,ts,ax,ay,az,wx,wy,wz
0,0.0,-0.005675,0.07671499999999999,0.035175,0.013809,-0.019500999999999998,-0.024048
1,0.01,0.012221,0.026702999999999998,-0.007324,0.018066,-0.020569,-0.019791
2,0.02,-0.005315,0.022443,0.032131,0.023392,-0.023758,-0.017654
3,0.03,0.0018309999999999995,-0.016652,-0.018201000000000002,0.023392,-0.025894,-0.015533000000000002
4,0.04,-0.01258,-0.032686,-0.053836,0.02446,-0.030151,-0.013397
5,0.05,0.013675999999999999,-0.023638,-0.041844,0.020203,-0.032288,-0.010208
6,0.06,-0.009534,0.037457,-0.072956,0.013809,-0.031219,-0.010208
7,0.07,-0.035843,0.017841,-0.07292699999999999,0.009552,-0.031219,-0.012329000000000001
8,0.08,-0.061876,0.048161,-0.020030000000000003,0.0010219999999999997,-0.024825999999999997,-0.00914
9,0.09,-0.060126,0.022875,0.05277000000000001,-0.003235,-0.018433,-0.010208
10,0.1,-0.088853,-0.005788000000000001,0.066106,-0.001099,-0.013106999999999999,-0.015533000000000002
11,0.11,-0.10105399999999999,-0.06732800000000001,0.047425999999999996,0.0031590000000000003,-0.012054,-0.014465
12,0.12,-0.096732,-0.105386,0.053877999999999995,0.003159,-0.00885,-0.015533000000000002
13,0.13,-0.065873,-0.097795,0.08088,0.003159,-0.007781999999999999,-0.016602000000000002
14,0.14,-0.048760000000000005,-0.11044000000000001,0.21525100000000003,0.004227000000000001,-0.012054,-0.016602000000000002
15,0.15,-0.04066,-0.091101,0.224302,0.008484,-0.00885,-0.016602000000000002
16,0.16,0.016776,-0.044787,0.253627,0.015944999999999997,-0.006714,-0.013397
17,0.17,0.005483999999999999,-0.060444000000000005,0.252316,0.02446,-0.005661,-0.013397
18,0.18,0.031316000000000004,-0.0010450000000000043,0.226285,0.029785000000000002,-0.007781999999999999,-0.013397
19,0.19,0.028321,-0.055310000000000005,0.151476,0.03511,-0.006714,-0.012329000000000001
20,0.2,-0.023718,-0.021216,0.10401099999999999,0.037247,-0.003525,-0.011276000000000001
21,0.21,-0.009954000000000001,-0.024306,0.046685000000000004,0.036179,-0.002457,-0.010208
22,0.22,-0.019991,-0.017134,0.003186,0.031921,-0.004593,-0.008072
23,0.23,-0.057415999999999995,-0.04753199999999999,-0.03614,0.026595999999999998,-0.002457,-0.007004000000000001
24,0.24,-0.0358,-0.055313,-0.019797,0.023392,-0.004593,-0.004883
25,0.25,-0.027329000000000003,-0.049339,0.0010250000000000016,0.021271,-0.006714,-0.0006099999999999994
26,0.26,-0.055408000000000006,-0.059953,0.0023230000000000004,0.018066,-0.010986,0.001511
27,0.27,-0.013075,-0.046156,0.015194999999999998,0.015944999999999997,-0.015244,0.000443
28,0.28,-0.029082,-0.0035789999999999993,-0.028242,0.010620000000000001,-0.016312,-0.00061
29,0.29,0.006113,0.047195,0.033195999999999996,0.004227000000000001,-0.013106999999999999,0.0015110000000000002
30,0.3,-0.041424,0.058259000000000005,0.034696,-4.600000000000003e-05,-0.00885,-0.002747
31,0.31,0.020906,0.061252999999999995,0.076075,-0.003235,-0.002457,-0.001678
32,0.32,-0.009173,0.025476,0.1092,-0.004303,0.008194,0.0004429999999999998
33,0.33,-0.007681,0.00674,0.146112,-0.002167,0.011382999999999999,0.002579
34,0.34,-0.021665,-0.040554,0.13000799999999998,0.00209,0.018844999999999997,0.001511
35,0.35,-0.033343,-0.10209800000000001,0.125198,0.004227000000000001,0.016708,0.003647
36,0.36,-0.045870999999999995,-0.080246,0.129948,0.007416,0.017776,0.004715
37,0.37,-0.054276,-0.084311,0.064949,0.009552,0.015656,0.005783
38,0.38,-0.08505700000000001,-0.073555,0.062011000000000004,0.0063479999999999995,0.015656,0.005783
39,0.39,-0.07952100000000001,-0.031744,-0.0005900000000000002,0.008484,0.017776,0.002579
40,0.4,-0.100912,-0.022346,0.038066,0.007416,0.020981,0.002579
41,0.41,-0.084883,-0.017875,-0.011559,0.008484,0.022049000000000003,0.003647
42,0.42,-0.076289,-0.047381,-0.01593,0.008484,0.028426999999999997,0.004715
43,0.43,-0.097001,-0.028997000000000002,-0.02434,0.009552,0.029495,0.006836
44,0.44,-0.064448,-0.088326,-0.06846000000000001,0.008484,0.0327,0.008971999999999999
45,0.45,-0.057217,-0.052157,-0.086687,0.009552,0.034821,0.01004
46,0.46,-0.054653999999999994,-0.018795,-0.10628599999999999,0.0010219999999999997,0.034821,0.008971999999999999
47,0.47,-0.0030969999999999986,0.029338000000000006,-0.082122,-0.004303,0.038025,0.007904000000000001
48,0.48,-0.022959999999999998,0.11698699999999998,-0.066835,-0.007492,0.041214,0.003647
49,0.49,-0.017927000000000002,0.121591,-0.046943,-0.003235,0.044418,-0.0016780000000000002
50,0.5,-0.018297,0.15149,-0.029604000000000002,0.003159,0.048676,-0.003815
51,0.51,-0.01056,0.11339,0.007893,0.0063479999999999995,0.045471,-0.003815
52,0.52,0.011486,0.08128200000000001,0.010108000000000002,0.012740999999999999,0.044418,-0.004883
53,0.53,0.015847999999999998,0.083273,0.035071000000000005,0.019135,0.04335,-0.002747
54,0.54,0.051647000000000005,0.024940000000000004,-0.03862,0.022338999999999998,0.039093,-0.00061
55,0.55,0.045603,0.037156,-0.028211999999999994,0.026595999999999998,0.038025,-0.00061
56,0.56,0.04798,0.028644,-0.042291,0.027663999999999998,0.038025,-0.0016779999999999998
57,0.57,0.028769,0.015988,-0.07683,0.027663999999999998,0.036957,-0.0016779999999999998
58,0.58,0.032060000000000005,0.019913,-0.073024,0.028717000000000003,0.035889,-0.002747
59,0.59,0.034548,0.015829,-0.043345999999999996,0.029785000000000002,0.034821,-0.002747
60,0.6,0.018101,0.018133,-0.10122300000000001,0.030853,0.033752,-0.004883
61,0.61,0.008722000000000002,-0.026232,-0.079867,0.03299,0.0327,-0.003815
62,0.62,0.020678,-0.010192,-0.117425,0.03299,0.033752,-0.003815
63,0.63,0.012228,-0.039370999999999996,-0.11821500000000001,0.031921,0.033752,-0.0016779999999999998
64,0.64,0.008534,-0.026848,-0.139487,0.027663999999999998,0.033752,-0.002747
65,0.65,-0.008357999999999999,-0.01902,-0.11682200000000001,0.025528,0.031631,-0.00061
66,0.66,-0.0066170000000000005,-0.017824,-0.120376,0.02446,0.0327,0.0004429999999999999
67,0.67,0.021783,-0.038664,-0.06428400000000001,0.022338999999999998,0.028426999999999997,0.002579
68,0.68,0.020444999999999998,-0.045794,-0.077264,0.022338999999999998,0.028426999999999997,0.0004429999999999998
69,0.69,-0.0060030000000000005,-0.0033050000000000024,-0.046183,0.021271,0.026306,-0.001678
70,0.7,0.028737000000000002,-0.035301,-0.057575,0.019135,0.027374000000000002,-0.0016779999999999998
71,0.71,0.021771000000000002,-0.035577,-0.05639299999999999,0.018066,0.027374000000000002,-0.003815
72,0.72,0.008013,-0.014876999999999996,-0.002356999999999998,0.009552,0.030563,-0.005936
73,0.73,-0.0042980000000000015,0.002234,0.0019310000000000024,0.004227000000000001,0.034821,-0.004883
74,0.74,0.040329000000000004,-0.016234000000000002,0.040243,0.0010220000000000001,0.034821,-0.007004000000000001
75,0.75,0.060867,-0.013724000000000002,0.051018,0.003159,0.040146,-0.004883
76,0.76,0.030237,-0.012144000000000005,0.026277,0.005295,0.038025,-0.003815
77,0.77,0.063377,-0.041663,0.027267000000000003,0.009552,0.041214,-0.007004000000000001
78,0.78,0.019949,-0.005094999999999999,-0.019233,0.015944999999999997,0.036957,-0.008072
79,0.79,0.026588999999999998,-0.019979,-0.034582,0.019135,0.033752,-0.005936
80,0.8,-0.007816,0.024429,-0.07484099999999999,0.016998,0.0327,-0.004883
81,0.81,-0.013978,0.0879,-0.08519600000000001,0.011673000000000001,0.034821,-0.0016779999999999998
82,0.82,-0.053583000000000006,0.079773,-0.099643,0.005295,0.041214,-0.002747
83,0.83,-0.062601,0.049997,-0.133546,-0.0032350000000000005,0.049744,-0.0016779999999999998
84,0.84,-0.028467000000000003,0.066997,-0.082131,-0.012816999999999999,0.059326,-0.004883
85,0.85,-0.029772000000000003,0.063262,-0.109019,-0.018143,0.066788,-0.0016779999999999998
86,0.86,-0.031116,0.002257000000000002,-0.080836,-0.020279,0.069977,-0.002747
87,0.87,0.012901,0.001413000000000001,-0.086768,-0.019211000000000002,0.073181,-0.001678
88,0.88,0.027613,-0.003617,-0.043434,-0.016022,0.07637000000000001,-0.003815
89,0.89,-0.0023679999999999986,-0.046039,-0.034012,-0.011765000000000001,0.07423400000000001,-0.003815
90,0.9,0.076366,-0.038051,-0.025141999999999998,-0.012816999999999999,0.07637000000000001,-0.003815
91,0.91,0.041667,-0.044362,-0.064234,-0.010695999999999999,0.07850599999999999,-0.004883
92,0.92,0.071249,-0.017998000000000004,-0.05123200000000001,-0.009628,0.07743799999999999,-0.0016779999999999998
93,0.93,0.0048460000000000005,-0.019205,-0.070283,-0.009628,0.080627,-0.003815
94,0.94,-0.022268,0.021371,-0.13133499999999998,-0.006423999999999999,0.083832,-0.0016779999999999998
95,0.95,-0.028960000000000003,0.022714,-0.11701199999999999,-0.0032350000000000005,0.081696,-0.002747
96,0.96,-0.07812899999999999,0.043164,-0.154712,-0.006424000000000001,0.079559,-0.004883
97,0.97,-0.020596,0.036069,-0.123624,-0.009628,0.07637000000000001,-0.004883
98,0.98,0.028472000000000008,0.020156,-0.15043499999999999,-0.013885,0.07423400000000001,-0.004883
99,0.99,0.078351,-0.04161,-0.12401300000000001,-0.014953999999999999,0.073181,-0.0016779999999999998
100,1.0,0.080512,-0.05771799999999999,-0.15648199999999998,-0.012816999999999999,0.072113,-0.004883
101,1.01,0.112005,-0.121449,-0.19286199999999998,-0.018143,0.072113,-0.001678
102,1.02,0.1358,-0.13284200000000002,-0.269382,-0.024536000000000002,0.066788,0.0004429999999999999
103,1.03,0.14283900000000002,-0.085365,-0.313496,-0.040512,0.058258000000000004,0.003647
104,1.04,0.14114200000000002,-0.079111,-0.346571,-0.06076,0.048676,0.006836
105,1.05,0.131707,-0.042468,-0.27826,-0.076736,0.04335,0.012161
106,1.06,0.112579,-0.037587999999999996,-0.227298,-0.09378099999999999,0.038025,0.015366
107,1.07,0.088634,-0.006199999999999999,-0.12975,-0.099106,0.031631,0.018555000000000002
108,1.08,0.070037,-0.015996,-0.063148,-0.101242,0.031631,0.015366
109,1.09,0.082712,0.025822,-0.056625,-0.098038,0.027374000000000002,0.011108
110,1.1,0.05959,0.087004,0.008978000000000002,-0.091644,0.016708,0.005783
111,1.11,0.019429,0.061798,0.03634,-0.082062,0.006058,0.008971999999999999
112,1.12,0.023285,0.061216999999999994,0.020596000000000003,-0.078873,0.007126,0.013229
113,1.13,0.062855,0.03741,0.017593,-0.075668,0.006058,0.017487
114,1.14,0.140095,0.019958,-0.017522,-0.06501799999999999,0.0039369999999999995,0.023880000000000002
115,1.15,0.179768,-0.104734,-0.009773,-0.061828999999999995,-0.001389,0.023880000000000002
116,1.16,0.220075,-0.233341,-0.119735,-0.06501799999999999,0.0039369999999999995,0.023880000000000002
117,1.17,0.26802800000000004,-0.39510500000000004,-0.185997,-0.077805,0.013519,0.014297
118,1.18,0.2731,-0.41259399999999996,-0.297415,-0.10231,0.028426999999999997,0.005782999999999999
119,1.19,0.214948,-0.367681,-0.440114,-0.133194,0.047607,0.001511
120,1.2,0.198155,-0.287921,-0.52464,-0.15983599999999998,0.05719,0.002579
121,1.21,0.20972399999999997,-0.193899,-0.48247299999999993,-0.187531,0.06572,0.008971999999999999
122,1.22,0.184033,-0.063466,-0.423418,-0.21415700000000001,0.07423400000000001,0.018555000000000002
123,1.23,0.221148,0.04423,-0.33657600000000004,-0.23120100000000002,0.083832,0.026016
124,1.24,0.299502,0.145793,-0.312253,-0.24291999999999997,0.087021,0.031342
125,1.25,0.380675,0.215836,-0.215475,-0.24291999999999997,0.091278,0.029205000000000002
126,1.26,0.46558299999999997,0.254035,-0.080599,-0.233337,0.096603,0.028151999999999996
127,1.27,0.553996,0.27586700000000003,0.028143,-0.2099,0.102997,0.015366
128,1.28,0.652104,0.269167,0.049608,-0.194977,0.09767200000000001,0.002579
129,1.29,0.750913,0.256902,0.062985,-0.182205,0.095551,-0.007004000000000001
130,1.3,0.8296450000000001,0.176514,0.110927,-0.17687999999999998,0.102997,-0.015533000000000002
131,1.31,0.843583,0.119594,0.123045,-0.175812,0.11898800000000001,-0.024048
132,1.32,0.8306629999999999,0.02338500000000001,0.0987,-0.17687999999999998,0.143478,-0.027252
133,1.33,0.7929470000000001,-0.07070499999999999,0.05153200000000001,-0.17793299999999998,0.161591,-0.025116
134,1.34,0.758343,-0.158557,0.056249,-0.179001,0.176498,-0.020859
135,1.35,0.664101,-0.27719,0.03247,-0.17687999999999998,0.182892,-0.013397
136,1.36,0.637317,-0.25518,-0.097977,-0.173676,0.178635,-0.010208
137,1.37,0.673144,-0.316739,-0.147457,-0.17687999999999998,0.167984,-0.003815
138,1.38,0.705222,-0.377992,-0.156911,-0.184326,0.178635,0.004715
139,1.39,0.73719,-0.396904,-0.12701700000000002,-0.20776399999999998,0.201004,0.016434
140,1.4,0.773628,-0.502562,-0.02554,-0.232269,0.235092,0.021759
141,1.41,0.7223109999999999,-0.640898,0.01698,-0.256775,0.272385,0.027083999999999997
142,1.42,0.549652,-0.8531270000000001,0.012673999999999998,-0.274872,0.31605500000000003,0.03241
143,1.43,0.292426,-1.102701,-0.092447,-0.288727,0.36186199999999996,0.036667
144,1.44,-0.01543900000000001,-1.2796049999999999,-0.231471,-0.301514,0.39808699999999997,0.046249
145,1.45,-0.398559,-1.3417350000000001,-0.43263999999999997,-0.302582,0.39913899999999997,0.056915
146,1.46,-0.747583,-1.101452,-0.714547,-0.292984,0.37144499999999997,0.07608
147,1.47,-1.009747,-0.676833,-1.005975,-0.266357,0.334167,0.09845
148,1.48,-1.223735,-0.082316,-1.4374959999999999,-0.235458,0.290482,0.126144
149,1.49,-1.244289,0.680413,-1.8257700000000001,-0.199249,0.241486,0.153854
150,1.5,-1.064674,1.2761790000000002,-2.083096,-0.152374,0.172241,0.16983
151,1.51,-0.813616,1.84201,-2.177449,-0.099106,0.090225,0.170898
152,1.52,-0.602956,2.258939,-2.16525,-0.046906,0.014587000000000003,0.153854
153,1.53,-0.286563,2.602949,-2.087014,-0.011764999999999998,-0.045074,0.118698
154,1.54,-0.116199,2.622303,-1.8847770000000001,0.0063479999999999995,-0.069565,0.06543
155,1.55,-0.13991900000000002,2.464321,-1.766961,0.022338999999999998,-0.071701,0.008971999999999999
156,1.56,-0.31514200000000003,1.959857,-1.565636,0.027663999999999998,-0.0504,-0.051743
157,1.57,-0.565496,1.308976,-1.42192,0.022338999999999998,-0.013106999999999999,-0.109268
158,1.58,-0.8048489999999999,0.6077640000000001,-1.432451,0.013809,0.0327,-0.161469
159,1.59,-0.9106110000000001,-0.08540399999999998,-1.4453770000000001,-0.007492,0.073181,-0.197693
160,1.6,-0.966741,-0.618592,-1.453354,-0.039458999999999994,0.101944,-0.22113000000000002
161,1.61,-0.9198709999999999,-1.044997,-1.4339389999999999,-0.08845499999999999,0.11471600000000001,-0.218994
162,1.62,-0.82295,-1.2081709999999999,-1.431023,-0.141724,0.107269,-0.203018
163,1.63,-0.63515,-1.210775,-1.3708870000000002,-0.199249,0.082764,-0.187042
164,1.64,-0.48043900000000006,-1.0652840000000001,-1.328411,-0.248245,0.046539,-0.172119
165,1.65,-0.381984,-0.786658,-1.2701440000000002,-0.286591,0.0018010000000000003,-0.162537
166,1.66,-0.42068500000000003,-0.450743,-1.269018,-0.30896,-0.040802,-0.157211
167,1.67,-0.46606099999999995,-0.17878,-1.282657,-0.305771,-0.073837,-0.150818
168,1.68,-0.580529,0.07521,-1.2973780000000001,-0.267426,-0.093002,-0.144424
169,1.69,-0.6387550000000001,0.20500500000000002,-1.331056,-0.205643,-0.106857,-0.140167
170,1.7,-0.719395,0.341442,-1.3626770000000001,-0.13533,-0.106857,-0.136963
171,1.71,-0.8105180000000001,0.308923,-1.452983,-0.07034299999999999,-0.11218299999999999,-0.139099
172,1.72,-0.814399,0.1891,-1.521615,-0.011764999999999998,-0.110046,-0.14335599999999998
173,1.73,-0.8120109999999999,0.091309,-1.672682,0.03299,-0.10899400000000001,-0.152954
174,1.74,-0.779898,-0.116747,-1.804875,0.059615999999999995,-0.120697,-0.158279
175,1.75,-0.661086,-0.289166,-1.9856759999999998,0.058548,-0.136688,-0.155075
176,1.76,-0.605579,-0.494184,-2.126791,0.03299,-0.161179,-0.14975
177,1.77,-0.474909,-0.655307,-2.2127830000000004,-0.01709,-0.197403,-0.13591
178,1.78,-0.399458,-0.717587,-2.228822,-0.069275,-0.24320999999999998,-0.113541
179,1.79,-0.344615,-0.5969270000000001,-2.290674,-0.12361099999999998,-0.299667,-0.086899
180,1.8,-0.29682,-0.280192,-2.290325,-0.170486,-0.36998000000000003,-0.060272000000000006
181,1.81,-0.307688,0.142295,-2.288389,-0.205643,-0.43708800000000003,-0.04216
182,1.82,-0.291167,0.599485,-2.247522,-0.22587600000000002,-0.48822,-0.027252
183,1.83,-0.346953,0.980411,-2.163252,-0.230133,-0.513794,-0.019791
184,1.84,-0.456879,1.405173,-2.081705,-0.221619,-0.538284,-0.025116
185,1.85,-0.580862,1.727654,-2.0302029999999998,-0.210968,-0.561722,-0.037903
186,1.86,-0.649399,2.177557,-1.96865,-0.197113,-0.5936739999999999,-0.053878999999999996
187,1.87,-0.688509,2.67904,-2.032463,-0.171539,-0.629898,-0.068787
188,1.88,-0.901465,3.198196,-2.304468,-0.126801,-0.6714479999999999,-0.081573
189,1.89,-1.023743,3.628049,-2.586611,-0.06289700000000001,-0.723648,-0.076248
190,1.9,-1.134758,3.901932,-2.909205,-0.0032350000000000018,-0.7651819999999999,-0.062408000000000005
191,1.91,-1.262643,3.9195059999999997,-3.145311,0.04364,-0.8078,-0.037903
192,1.92,-1.383905,3.7420419999999996,-3.23915,0.079849,-0.8237760000000001,0.0015109999999999985
193,1.93,-1.514909,3.385303,-3.090461,0.100098,-0.800339,0.048386
194,1.94,-1.758764,3.0932470000000003,-2.434259,0.062805,-0.7310939999999999,0.095261
195,1.95,-1.8283060000000002,3.1208299999999998,-1.257506,-0.101242,-0.6405489999999999,0.11656199999999999
196,1.96,-1.8471099999999998,3.5688169999999997,0.035407999999999995,-0.365417,-0.6011350000000001,0.11976600000000001
197,1.97,-1.74285,3.89172,1.34761,-0.566757,-0.6480100000000001,0.135742
198,1.98,-1.123024,3.8168580000000003,2.405014,-0.565689,-0.657593,0.15171800000000002
199,1.99,-0.5439109999999999,2.8601919999999996,3.07691,-0.411224,-0.552139,0.134674
200,2.0,0.242127,1.455606,3.245972,-0.23120100000000002,-0.463715,0.082474
201,2.01,1.2701149999999999,-0.299646,3.081849,-0.095917,-0.464783,0.006836000000000003
202,2.02,2.513129,-1.9421110000000001,2.7140560000000002,0.007415999999999998,-0.5361630000000001,-0.061339999999999985
203,2.03,3.4178290000000002,-3.218572,2.202058,0.078796,-0.6117859999999999,-0.131638
204,2.04,3.5314419999999997,-3.851547,1.534532,0.121399,-0.632034,-0.183838
205,2.05,2.787245,-3.5129339999999996,0.577825,0.115005,-0.627777,-0.197693
206,2.06,1.7648400000000002,-2.603871,-0.376529,0.041504,-0.63736,-0.155075
207,2.07,0.8971069999999999,-1.459955,-1.036593,-0.095917,-0.643753,-0.090103
208,2.08,0.362098,-0.415025,-1.046816,-0.277008,-0.6139220000000001,-0.028319999999999998
209,2.09,0.109898,0.539469,-0.447668,-0.433609,-0.5542600000000001,0.024947999999999998
210,2.1,-0.10903900000000001,1.3714549999999999,0.366559,-0.522018,-0.519119,0.08033799999999999
211,2.11,-0.13939300000000002,1.8254669999999997,0.9832930000000001,-0.531601,-0.498871,0.149582
212,2.12,-0.33812,2.010895,1.410125,-0.44426000000000004,-0.48396300000000003,0.204987
213,2.13,-0.280329,1.708241,1.347261,-0.2621,-0.463715,0.267838
214,2.14,-0.146732,1.1118139999999999,0.892598,-0.057556,-0.430695,0.323227
215,2.15,0.141819,0.36990300000000004,0.2373270000000001,0.13525399999999999,-0.417908,0.363708
216,2.16,0.325944,-0.558245,-0.4091980000000001,0.257751,-0.41258199999999995,0.349854
217,2.17,0.383546,-1.5798219999999998,-0.786217,0.320602,-0.397675,0.298721
218,2.18,0.355932,-2.545224,-1.020263,0.340851,-0.376373,0.246521
219,2.19,0.218629,-3.324301,-1.297915,0.33552600000000005,-0.339081,0.209244
220,2.2,-0.011178999999999994,-3.854201,-1.4960280000000001,0.314209,-0.297531,0.197525
221,2.21,-0.280675,-4.18328,-1.637634,0.266281,-0.233627,0.201782
222,2.22,-0.42321899999999996,-4.172932,-1.8017459999999998,0.201294,-0.160126,0.223083
223,2.23,-0.52158,-4.0027040000000005,-1.908728,0.116074,-0.069565,0.246521
224,2.24,-0.467858,-3.620452,-1.8879869999999999,0.034042,0.014587000000000003,0.25824
225,2.25,-0.385422,-3.249342,-1.7492330000000003,-0.040512,0.082764,0.24226399999999998
226,2.26,-0.305028,-2.7259849999999997,-1.599475,-0.076736,0.132828,0.207108
227,2.27,-0.25961100000000004,-2.348435,-1.3396430000000001,-0.082062,0.166916,0.15918
228,2.28,-0.106728,-1.9341409999999999,-1.269392,-0.040512,0.20314000000000002,0.095261
229,2.29,0.117843,-1.555334,-1.274881,0.002090000000000005,0.22657800000000003,0.036667
230,2.3,0.2356,-1.336778,-1.368456,0.05215499999999999,0.254272,-0.017654
231,2.31,0.47548199999999996,-1.133368,-1.5422,0.100098,0.27771,-0.059204
232,2.32,0.683833,-1.037608,-1.649083,0.145905,0.299011,-0.099686
233,2.33,0.7874939999999999,-0.796384,-1.762588,0.194901,0.303268,-0.131638
234,2.34,0.951361,-0.37429,-1.8124310000000001,0.25242600000000004,0.287292,-0.150818
235,2.35,1.0755860000000002,0.062588,-1.874771,0.320602,0.276642,-0.152954
236,2.36,1.142382,0.586743,-2.022363,0.378128,0.283035,-0.146561
237,2.37,1.112352,0.897584,-2.198516,0.406891,0.294754,-0.133774
238,2.38,0.952375,0.9955729999999999,-2.36912,0.37706,0.267059,-0.10394300000000001
239,2.39,0.6669619999999999,1.052804,-2.421964,0.29930100000000004,0.245743,-0.06134
240,2.4,0.32728899999999994,1.404616,-2.388375,0.187454,0.262787,-0.015533000000000003
241,2.41,-0.078661,2.107037,-2.428674,0.044708,0.33628800000000003,0.038803
242,2.42,-0.5031770000000001,3.073641,-2.422632,-0.127869,0.472641,0.093124
243,2.43,-0.602861,4.298513,-2.3187450000000003,-0.291916,0.642029,0.13681
244,2.44,-0.336537,5.353823,-2.009682,-0.387802,0.778381,0.139999
245,2.45,-0.011742,6.135125,-1.591084,-0.380341,0.84549,0.112305
246,2.46,0.299176,6.5648789999999995,-1.1347399999999999,-0.279144,0.8327030000000001,0.07928500000000001
247,2.47,0.762062,6.181541,-0.18786000000000005,-0.145981,0.764526,0.037735000000000005
248,2.48,0.412828,5.909739,0.613742,-0.076736,0.662262,0.049454000000000005
249,2.49,1.615644,6.407035,1.588438,-0.111893,0.67186,0.163437
250,2.5,3.894256,5.970152,2.6111310000000003,-0.08099400000000001,0.624985,0.234802
251,2.51,4.439612,3.93347,3.301017,0.051085999999999986,0.486496,0.267838
252,2.52,3.3949849999999997,1.365813,3.8071269999999995,0.157623,0.369324,0.365829
253,2.53,1.831174,-1.048817,3.9097459999999997,0.21087600000000004,0.378906,0.485138
254,2.54,0.3314710000000002,-2.580938,3.540418,0.29504400000000003,0.378906,0.575699
255,2.55,-0.309913,-3.2086259999999998,2.645692,0.405823,0.346954,0.6353449999999999
256,2.56,-0.6147239999999999,-3.074353,1.371976,0.47293100000000005,0.22230500000000003,0.6289520000000001
257,2.57,-0.733993,-2.304388,0.327467,0.41221599999999997,0.08383199999999999,0.533081
258,2.58,-0.9612950000000001,-1.350498,0.12430799999999999,0.20875500000000002,-0.003525000000000001,0.361572
259,2.59,-1.448304,-0.445813,0.596476,-0.06394999999999999,-0.057846,0.19859300000000002
260,2.6,-1.765269,0.602082,1.585348,-0.323883,-0.058914,0.08140599999999999
261,2.61,-1.565302,1.690177,2.6533349999999998,-0.494324,0.054001,-0.004882999999999999
262,2.62,-0.704621,2.518392,3.148095,-0.539062,0.21911600000000006,-0.113541
263,2.63,-0.10810499999999999,2.6451290000000003,3.165455,-0.447449,0.367188,-0.233902
264,2.64,0.311886,2.1318740000000003,2.7644290000000002,-0.252502,0.4375,-0.330841
265,2.65,0.846515,1.29423,2.099943,-0.040511999999999986,0.456665,-0.40008499999999997
266,2.66,1.100257,0.098707,1.384204,0.12353499999999999,0.41938800000000004,-0.46614099999999997
267,2.67,0.935695,-1.0862610000000001,0.6943560000000001,0.24177600000000002,0.326706,-0.509811
268,2.68,0.743757,-2.311852,-0.022550999999999988,0.316345,0.204208,-0.51088
269,2.69,0.264328,-3.3835370000000005,-0.486422,0.369614,0.085953,-0.513016
270,2.7,-0.25059999999999993,-4.38512,-0.890869,0.419678,0.006058000000000001,-0.498093
271,2.71,-0.637412,-5.282989,-1.108983,0.446304,-0.055725,-0.491699
272,2.72,-1.061317,-5.963418,-1.280197,0.420746,-0.10899400000000001,-0.503418
273,2.73,-1.383909,-6.300898999999999,-1.276534,0.372803,-0.15799000000000002,-0.506622
274,2.74,-1.452236,-6.109848,-1.228746,0.293976,-0.206985,-0.498093
275,2.75,-1.419915,-5.483665,-1.2175040000000001,0.189575,-0.259186,-0.460815
276,2.76,-1.198688,-4.699967,-1.159074,0.086243,-0.297531,-0.379852
277,2.77,-0.8026300000000001,-3.8015339999999997,-0.875762,0.023392,-0.34761,-0.27970900000000004
278,2.78,-0.44553999999999994,-3.04812,-0.599687,0.02446,-0.41578699999999996,-0.188095
279,2.79,-0.135171,-2.351073,-0.473871,0.086243,-0.47010799999999997,-0.123123
280,2.8,0.05140800000000001,-1.68859,-0.634791,0.191711,-0.493546,-0.086899
281,2.81,0.17127799999999999,-1.1208850000000001,-0.8572860000000001,0.31208800000000003,-0.486084,-0.081573
282,2.82,0.32315,-0.980951,-1.142266,0.419678,-0.48396300000000003,-0.10394300000000001
283,2.83,0.316824,-1.181936,-1.540301,0.478271,-0.542542,-0.12419100000000001
284,2.84,0.263112,-1.444613,-1.959453,0.48678599999999994,-0.645874,-0.111404
285,2.85,-0.09579,-1.42864,-2.386915,0.45163000000000003,-0.7310939999999999,-0.074112
286,2.86,-0.637211,-1.04605,-2.8081840000000002,0.37493899999999997,-0.786499,-0.026184
287,2.87,-1.212841,-0.28728899999999996,-3.111325,0.263077,-0.77478,-0.004883
288,2.88,-1.743169,0.7202430000000001,-3.2831230000000002,0.134186,-0.7417600000000001,-0.028320000000000005
289,2.89,-1.926952,2.008726,-3.072403,0.0010219999999999954,-0.739624,-0.07838400000000001
290,2.9,-1.777664,3.4057839999999997,-2.49998,-0.120407,-0.708725,-0.12525899999999998
291,2.91,-1.4349049999999999,4.6022940000000006,-1.709583,-0.184326,-0.633102,-0.136963
292,2.92,-1.200754,5.621548000000001,-0.923115,-0.174744,-0.538284,-0.128448
293,2.93,-1.270197,6.330482,-0.457967,-0.072479,-0.48396300000000003,-0.102875
294,2.94,-1.703014,6.4587129999999995,-0.354015,0.091568,-0.43495200000000006,-0.069855
295,2.95,-2.118655,6.132312000000001,-0.739818,0.25563,-0.356125,-0.049622
296,2.96,-2.322174,5.283937,-1.143778,0.402634,-0.24853499999999998,-0.040024000000000004
297,2.97,-2.267886,3.9856830000000003,-1.149319,0.502762,-0.173965,-0.018723
298,2.98,-1.389497,3.020728,-0.2445280000000001,0.42713900000000005,-0.143082,-0.00914
299,2.99,0.110865,2.969793,1.6159720000000002,0.070267,-0.245346,-0.09436
300,3.0,0.437417,2.815245,4.299066000000001,-0.353714,-0.307129,-0.147629
301,3.01,0.761001,1.7887549999999999,6.3178589999999994,-0.48793000000000003,-0.296478,-0.117798
302,3.02,1.204064,0.200222,6.745653999999999,-0.381409,-0.169708,-0.204086
303,3.03,1.230513,-1.112937,5.865236,-0.1577,-0.114319,-0.379852
304,3.04,0.650938,-1.2476909999999999,3.9994699999999996,0.093704,-0.134552,-0.515137
305,3.05,0.655451,-0.371803,1.983269,0.275864,-0.120697,-0.5779880000000001
306,3.06,2.083091,0.439982,0.799205,0.262009,-0.151596,-0.54071
307,3.07,3.7030440000000002,1.1796790000000001,1.228004,0.069199,-0.208054,-0.46614099999999997
308,3.08,4.284202,1.7009029999999998,2.4556459999999998,-0.150238,-0.293274,-0.358551
309,3.09,3.744331,2.0958189999999997,3.2855519999999996,-0.286591,-0.418976,-0.19448900000000002
310,3.1,2.3765240000000003,2.399448,3.167134,-0.319626,-0.560654,-0.0016780000000000126
311,3.11,0.743047,2.4875689999999997,2.384629,-0.27807600000000005,-0.638428,0.207108
312,3.12,-0.3526349999999999,2.330046,1.518317,-0.188583,-0.684235,0.39566
313,3.13,-1.1480549999999998,1.8398029999999999,1.197747,-0.072479,-0.699142,0.51178
314,3.14,-1.778852,0.926894,1.2877299999999998,0.027664,-0.657593,0.558655
315,3.15,-2.2742310000000003,-0.16731100000000004,1.360248,0.13205,-0.541489,0.574631
316,3.16,-2.725564,-1.387351,1.131968,0.20768699999999998,-0.339081,0.543732
317,3.17,-2.732586,-2.71232,0.763442,0.276932,-0.11644000000000002,0.500061
318,3.18,-2.330645,-4.032484999999999,0.216645,0.334457,0.081696,0.455322
319,3.19,-1.763712,-5.19722,-0.383169,0.390915,0.186096,0.431885
320,3.2,-1.094617,-6.102362,-0.9876209999999999,0.41435200000000005,0.252136,0.43721000000000004
321,3.21,-0.03925299999999998,-6.990988000000001,-1.527791,0.368546,0.31498699999999996,0.47023000000000004
322,3.22,0.44543900000000003,-7.198289,-1.803609,0.286514,0.326706,0.504318
323,3.23,0.893808,-6.960719,-1.89568,0.152298,0.353333,0.5107119999999999
324,3.24,1.290133,-6.3300540000000005,-1.85388,-4.600000000000437e-05,0.375702,0.462769
325,3.25,1.454951,-5.404841,-1.7715290000000001,-0.133194,0.386368,0.364777
326,3.26,1.278694,-4.308992,-1.496574,-0.22480799999999998,0.38209499999999996,0.24333200000000002
327,3.27,1.0498370000000001,-3.3247660000000003,-1.237895,-0.252502,0.388489,0.133606
328,3.28,0.9147870000000001,-2.603136,-1.11829,-0.222687,0.401276,0.049454000000000005
329,3.29,0.633808,-2.119437,-1.090758,-0.156631,0.407669,-0.0027469999999999994
330,3.3,0.52685,-1.6594229999999999,-1.1827219999999998,-0.06289700000000001,0.404465,-0.027252
331,3.31,0.557974,-1.178035,-1.437087,0.057479999999999996,0.39808699999999997,-0.044295999999999995
332,3.32,0.555914,-0.471395,-1.6309200000000001,0.198105,0.39169299999999996,-0.068787
333,3.33,0.445009,0.226731,-1.9894150000000002,0.29930100000000004,0.404465,-0.092224
334,3.34,0.386929,0.648885,-2.243725,0.308884,0.43003800000000003,-0.097549
335,3.35,0.23003800000000002,0.6319170000000001,-2.177118,0.231125,0.45559700000000003,-0.095428
336,3.36,0.06340900000000001,0.653708,-1.935028,0.13311800000000001,0.48756400000000005,-0.092224
337,3.37,-0.293171,1.115944,-1.9379009999999999,0.04364,0.49821499999999996,-0.091156
338,3.38,-0.493758,2.034528,-2.02393,-0.056503,0.481171,-0.049622
339,3.39,-0.369593,3.4177199999999996,-1.843938,-0.180069,0.507797,0.015366
340,3.4,0.151072,4.952531,-1.535836,-0.287659,0.613266,0.075012
341,3.41,0.960836,6.290318,-1.2673370000000002,-0.312164,0.707001,0.099518
342,3.42,1.502728,6.976138000000001,-1.030506,-0.20776399999999998,0.701675,0.100586
343,3.43,1.649317,6.818039999999999,-0.790543,-0.019210999999999992,0.591965,0.103775
344,3.44,1.170021,5.628989,-0.18706900000000004,0.148026,0.47477700000000006,0.126144
345,3.45,0.06766899999999987,4.9147419999999995,0.701533,0.240707,0.47798199999999996,0.162369
346,3.46,0.008662999999999976,5.4669620000000005,1.9278110000000002,0.166138,0.540833,0.297653
347,3.47,1.706723,4.540412,3.7641970000000002,0.057479999999999996,0.468384,0.432953
348,3.48,1.491839,1.828454,5.018513,0.047897,0.345886,0.53627
349,3.49,0.9534540000000001,-0.7252310000000001,6.284064,-0.013885000000000002,0.19781500000000002,0.757858
350,3.5,0.177087,-1.59639,6.435999,-0.087387,0.173309,1.115784
351,3.51,1.082597,-0.2876270000000001,4.053567,0.009551999999999998,0.14240999999999998,1.204193
352,3.52,1.255242,1.3947049999999999,1.6402869999999998,0.061752,-0.048264,1.018845
353,3.53,0.12418799999999995,2.289621,1.262268,0.003159000000000002,-0.23788499999999999,0.680084
354,3.54,-1.4853299999999998,2.683598,2.506766,-0.06289700000000001,-0.278366,0.38607800000000003
355,3.55,-2.534378,2.885595,3.6687410000000003,-0.082062,-0.138809,0.125092
356,3.56,-3.491393,2.616434,3.962128,-0.061828999999999995,0.139221,-0.11673
357,3.57,-3.520736,2.0517950000000003,3.48746,-0.053299,0.450272,-0.303146
358,3.58,-2.730139,1.183514,2.630481,-0.05011,0.760269,-0.425659
359,3.59,-1.919298,0.26306300000000005,1.7438790000000002,-0.013885000000000002,0.9743799999999999,-0.500229
360,3.6,-1.153152,-0.40763,0.9433590000000001,0.040436,1.046829,-0.541763
361,3.61,-0.607939,-1.115359,0.387833,0.06601,0.9647979999999999,-0.5588069999999999
362,3.62,-0.272638,-2.022875,0.051074000000000015,0.060684,0.775177,-0.533249
363,3.63,0.250806,-3.118853,0.035785000000000004,0.058548,0.538696,-0.458679
364,3.64,0.544711,-4.068523,-0.275967,0.078796,0.340561,-0.374527
365,3.65,0.422991,-4.784491,-0.504529,0.136322,0.20632899999999998,-0.277588
366,3.66,0.403433,-5.262266,-0.767437,0.17466700000000002,0.12004100000000001,-0.21580500000000002
367,3.67,0.159119,-5.6525989999999995,-0.9007879999999999,0.21087600000000004,0.025238,-0.192368
368,3.68,-0.135262,-6.075474,-1.056612,0.22154200000000002,-0.072769,-0.185974
369,3.69,-0.595639,-5.906725,-1.669766,0.20768699999999998,-0.21019000000000002,-0.200882
370,3.7,-1.126633,-5.204548,-1.8561470000000002,0.069199,-0.21019000000000002,-0.18277000000000002
371,3.71,-1.291403,-4.605956,-1.676136,-0.016022,-0.170776,-0.152954
372,3.72,-1.251757,-3.775578,-1.2366540000000001,-0.038391,-0.151596,-0.11566199999999999
373,3.73,-1.138584,-2.987723,-0.9594950000000001,0.018066,-0.173965,-0.090103
374,3.74,-0.9584870000000001,-2.2606509999999997,-0.7306229999999999,0.12886,-0.211258,-0.07838400000000001
375,3.75,-0.785241,-1.580473,-0.772895,0.26521300000000003,-0.24853499999999998,-0.076248
376,3.76,-0.580246,-1.058159,-1.045971,0.403702,-0.282623,-0.080505
377,3.77,-0.466525,-0.7532810000000001,-1.582052,0.516617,-0.355057,-0.081573
378,3.78,-0.5237430000000001,-0.530518,-2.072965,0.573074,-0.480759,-0.068787
379,3.79,-0.9383319999999999,-0.288054,-2.581823,0.551773,-0.596878,-0.025116
380,3.8,-1.320251,-0.07412899999999997,-2.983772,0.43884300000000004,-0.620316,0.027084000000000004
381,3.81,-1.567691,0.36644,-3.269374,0.25242600000000004,-0.586227,0.036667
382,3.82,-1.8460009999999998,1.451191,-3.5138769999999995,0.055358999999999985,-0.565979,0.008971999999999999
383,3.83,-1.8495409999999999,3.107622,-3.53465,-0.128937,-0.586227,-0.018723
384,3.84,-1.575346,4.560279,-3.202293,-0.2621,-0.621384,-0.012329000000000001
385,3.85,-1.316624,5.671654,-2.445446,-0.30896,-0.6394810000000001,0.024947999999999998
386,3.86,-1.391501,6.405717,-1.4990350000000001,-0.257828,-0.63736,0.08354199999999999
387,3.87,-2.103768,6.730614999999999,-0.686036,-0.12254300000000001,-0.623505,0.130417
388,3.88,-2.732507,6.6136740000000005,-0.322243,0.045761,-0.564926,0.148514
389,3.89,-3.339929,5.919699,-0.195772,0.201294,-0.45094300000000004,0.135742
390,3.9,-3.4591269999999996,4.143082,0.28121399999999996,0.341904,-0.24107399999999998,0.11123699999999999
391,3.91,-2.50202,3.7176760000000004,1.5474780000000001,0.176788,-0.19100999999999999,0.04306
392,3.92,-1.733009,3.4893419999999997,4.400012,-0.160889,-0.23468000000000003,-0.034698
393,3.93,-1.10533,2.723466,7.087894,-0.272751,-0.14840699999999998,-0.026184
394,3.94,-0.338344,0.8695520000000001,7.666566,-0.101242,0.051865000000000015,-0.105011
395,3.95,-0.08041,-0.8273820000000001,6.648828999999999,0.081985,0.20846599999999998,-0.331909
396,3.96,-0.266054,-1.2552219999999998,4.714821,0.200226,0.284103,-0.538574
397,3.97,-0.504742,-0.507862,2.20193,0.283325,0.38955700000000004,-0.60675
398,3.98,0.613877,0.7486189999999999,0.29406600000000005,0.20875500000000002,0.401276,-0.54071
399,3.99,2.134388,1.8153650000000001,0.350346,-0.034134,0.400208,-0.434174
400,4.0,3.368091,2.615907,1.8404009999999997,-0.233337,0.379974,-0.2957
401,4.01,3.55065,3.109529,3.054131,-0.299377,0.313919,-0.098618
402,4.02,2.674944,3.3727400000000003,3.352229,-0.269547,0.163727,0.133606
403,4.03,1.4304700000000001,3.027884,2.645476,-0.182205,0.033752,0.36796599999999996
404,4.04,0.4363179999999999,2.408122,1.581726,-0.066086,-0.06530800000000002,0.5661010000000001
405,4.05,-0.24736700000000006,1.4280680000000001,0.8337610000000001,0.036179,-0.147339,0.6939390000000001
406,4.06,-0.9703930000000001,0.193967,0.8222450000000001,0.110748,-0.161179,0.749329
407,4.07,-1.7663529999999998,-1.1229549999999997,1.060614,0.201294,-0.053589,0.7514649999999999
408,4.08,-2.4251970000000003,-2.717646,1.053517,0.296112,0.129639,0.71524
409,4.09,-2.744592,-4.209789,0.615099,0.368546,0.353333,0.6396029999999999
410,4.1,-2.8248919999999997,-5.577618,0.104118,0.39624000000000004,0.55574,0.551193
411,4.11,-2.705373,-6.6855009999999995,-0.470537,0.38771100000000003,0.701675,0.474487
412,4.12,-2.466434,-7.515582000000001,-0.808878,0.350433,0.793289,0.44572399999999995
413,4.13,-1.972775,-8.058347,-0.8829600000000001,0.28865100000000005,0.8699950000000001,0.44572399999999995
414,4.14,-1.3824049999999999,-8.14926,-0.872123,0.21621700000000002,0.9264530000000001,0.47129799999999994
415,4.15,-0.675421,-7.692410000000001,-1.022386,0.12779200000000002,0.950958,0.500061
416,4.16,0.249781,-6.813967,-1.212167,0.005294999999999994,0.99144,0.501129
417,4.17,1.1056700000000002,-5.861831,-1.309974,-0.12254300000000001,0.9807739999999999,0.44999700000000004
418,4.18,1.594917,-4.725785,-1.2338200000000001,-0.213089,0.9275209999999999,0.355179
419,4.19,1.773481,-3.647098,-1.135508,-0.273819,0.883835,0.267838
420,4.2,1.7543810000000002,-2.886227,-1.014376,-0.294052,0.843353,0.20391800000000002
421,4.21,1.490535,-2.365542,-0.9030309999999999,-0.285522,0.8305819999999999,0.15704300000000002
422,4.22,1.055709,-2.0027939999999997,-0.707575,-0.249313,0.8380280000000001,0.121887
423,4.23,0.56831,-1.565125,-0.710374,-0.166214,0.872116,0.082474
424,4.24,0.11996,-0.986022,-0.954708,-0.05223099999999999,0.894501,0.024948
425,4.25,-0.384882,-0.17609600000000006,-1.529959,0.07559199999999999,0.8423,-0.034698
426,4.26,-0.618421,0.6759430000000001,-2.225556,0.168274,0.752808,-0.065598
427,4.27,-0.661273,1.156505,-2.63942,0.177856,0.687836,-0.080505
428,4.28,-0.449432,1.484881,-2.523888,0.122467,0.6334989999999999,-0.071991
429,4.29,-0.054581999999999985,2.0796799999999998,-2.2973689999999998,0.03511,0.5887600000000001,-0.044295999999999995
430,4.3,0.544371,3.6094230000000005,-1.251758,-0.148117,0.606873,0.029205
431,4.31,0.908186,4.812628,-0.42798100000000006,-0.268478,0.7048800000000001,0.099518
432,4.32,1.130416,6.10444,0.262705,-0.294052,0.814606,0.14213599999999998
433,4.33,0.8875709999999999,7.108589,0.304284,-0.145981,0.867859,0.160233
434,4.34,0.437105,7.1998619999999995,-0.342696,0.13311800000000001,0.799683,0.17941300000000002
435,4.35,-0.303195,6.278556,-1.3767260000000001,0.436722,0.681442,0.22521999999999998
436,4.36,-0.723644,4.726477,-1.9231479999999999,0.6551060000000001,0.660141,0.259308
437,4.37,-1.82733,3.2982139999999998,-1.4538790000000001,0.723282,0.779449,0.260376
438,4.38,-2.616658,2.60747,-0.238669,0.563492,0.9733280000000001,0.325348
439,4.39,-1.629533,1.3639,2.205796,0.239639,1.1341709999999998,0.467041
440,4.4,-0.9755299999999999,-0.930992,4.850161,-0.005371000000000001,1.219406,0.550125
441,4.41,-1.50549,-2.376678,6.820511,-0.22906500000000002,1.169327,0.758911
442,4.42,-2.209203,-1.527074,7.525492999999999,-0.495392,1.1139370000000002,1.172241
443,4.43,-0.31346699999999994,1.3698190000000001,6.274354,-0.591263,1.018066,1.549347
444,4.44,1.2483549999999999,4.72276,3.4254029999999998,-0.509232,0.7496189999999999,1.472641
445,4.45,0.09540300000000003,6.271732,3.064105,-0.46556099999999995,0.31498699999999996,1.083817
446,4.46,-1.7328290000000002,6.451318,5.50946,-0.384598,0.201004,0.736542
447,4.47,-2.990713,6.2229849999999995,7.4585539999999995,-0.183258,0.544022,0.38500999999999996
448,4.48,-3.921378,5.115818,7.0614740000000005,0.031920999999999984,1.059616,0.036667000000000005
449,4.49,-3.675934,3.454314,5.285499,0.153366,1.468674,-0.22752399999999998
450,4.5,-2.742515,1.8793990000000003,3.1978299999999997,0.2258,1.747772,-0.407547
451,4.51,-1.867099,0.25251799999999996,1.337344,0.285446,1.8521729999999998,-0.5087430000000001
452,4.52,-1.100532,-1.041377,-0.15355800000000006,0.286514,1.8340610000000002,-0.5588069999999999
453,4.53,-0.41693100000000005,-2.2201169999999997,-0.8360200000000001,0.227921,1.681717,-0.5779880000000001
454,4.54,0.41702700000000004,-3.507328,-0.9027569999999999,0.167206,1.4399110000000002,-0.538574
455,4.55,1.0839590000000001,-4.5147949999999994,-1.189582,0.116074,1.1863709999999998,-0.440567
456,4.56,1.581758,-5.166348,-1.386155,0.10435499999999999,0.9552149999999999,-0.32871999999999996
457,4.57,1.449531,-5.599396,-1.825967,0.120331,0.810333,-0.229645
458,4.58,1.028233,-6.036194,-1.9235330000000002,0.1427,0.6334989999999999,-0.166794
459,4.59,0.558091,-6.0768830000000005,-1.98795,0.17040999999999998,0.45986899999999997,-0.12525899999999998
460,4.6,-0.004786000000000013,-6.071704,-2.21349,0.148026,0.311798,-0.108215
461,4.61,-0.6872659999999999,-5.993946,-2.347771,0.051086,0.196747,-0.096497
462,4.62,-1.464985,-5.662657,-2.135138,-0.103363,0.138153,-0.074112
463,4.63,-1.801827,-5.245458,-1.623572,-0.254639,0.122177,-0.035767
464,4.64,-1.89042,-4.607996,-1.057726,-0.322815,0.125366,-0.002747000000000001
465,4.65,-1.814545,-3.8160000000000003,-0.543367,-0.288727,0.129639,0.014297
466,4.66,-1.770417,-2.905733,-0.46508900000000003,-0.171539,0.127502,0.024947999999999998
467,4.67,-1.6852220000000002,-1.962234,-0.607302,-0.0010990000000000028,0.14135699999999998,0.04306
468,4.68,-1.6663700000000001,-1.0989309999999999,-1.030614,0.187454,0.144547,0.075012
469,4.69,-1.6788610000000002,-0.48961400000000005,-1.7268700000000001,0.351501,0.107269,0.11123699999999999
470,4.7,-1.740968,-0.21258400000000002,-2.3483680000000002,0.45163000000000003,0.042282,0.15065
471,4.71,-1.667745,-0.165018,-2.8388419999999996,0.47293100000000005,-0.034424,0.191132
472,4.72,-1.728625,-0.231713,-3.163467,0.41328400000000004,-0.115372,0.20817600000000003
473,4.73,-1.843659,-0.185407,-3.262819,0.315277,-0.22723400000000002,0.195389
474,4.74,-2.067065,0.22869,-3.567331,0.187454,-0.333755,0.15171800000000002
475,4.75,-2.433769,1.228743,-3.9453120000000004,0.013809000000000002,-0.355057,0.1091
476,4.76,-2.668266,2.6993270000000003,-4.184889,-0.186462,-0.293274,0.10591099999999999
477,4.77,-2.7255380000000002,4.380249,-3.7248349999999997,-0.371811,-0.21444699999999997,0.13147
478,4.78,-2.741563,5.65486,-2.730461,-0.448517,-0.16650399999999999,0.185806
479,4.79,-3.140261,6.6998869999999995,-1.493703,-0.404846,-0.12496900000000001,0.246521
480,4.8,-3.7675769999999997,7.308650999999999,-0.297662,-0.26103200000000004,-0.072769,0.300858
481,4.81,-4.175668,7.122578,0.433861,-0.04051199999999998,-0.007781999999999997,0.327484
482,4.82,-4.5202160000000005,5.9324580000000005,0.44349399999999994,0.211945,0.06997699999999997,0.34239200000000003
483,4.83,-4.6248190000000005,3.871124,0.9960709999999999,0.338715,0.232971,0.354111
484,4.84,-3.361742,2.482712,2.605443,0.13525399999999999,0.345886,0.27742
485,4.85,-2.38308,2.009369,5.512785,-0.302582,0.224442,0.139999
486,4.86,-1.2620639999999999,1.4117950000000001,8.251564,-0.463425,0.289429,0.11763
487,4.87,-0.635234,0.40189,8.256821,-0.24078400000000003,0.610062,0.041992000000000015
488,4.88,-1.239348,-0.36544899999999997,6.657089999999999,0.014877,1.00528,-0.154007
489,4.89,-2.106888,0.29442,4.6551,0.171463,1.167206,-0.350021
490,4.9,-3.048553,1.181326,2.827378,0.246033,1.203415,-0.407547
491,4.91,-2.024674,1.834572,1.8104349999999998,0.2258,1.214066,-0.327652
492,4.92,0.02075399999999994,2.5934150000000002,2.002108,0.10968,1.192764,-0.25840799999999997
493,4.93,1.341178,3.2469810000000003,2.730005,-0.026672,1.1086120000000002,-0.13591
494,4.94,1.42961,3.605836,3.013662,-0.11615,0.968002,0.07821699999999998
495,4.95,0.929041,3.4694220000000002,2.342004,-0.148117,0.8241879999999999,0.332809
496,4.96,0.29848,2.997809,1.192513,-0.140656,0.768799,0.5693050000000001
497,4.97,0.10172300000000001,2.262455,0.22115500000000002,-0.125748,0.728317,0.74826
498,4.98,-0.530909,1.6468939999999999,0.239943,-0.11828599999999999,0.7964939999999999,0.8260350000000001
499,4.99,-1.587418,0.811051,0.805186,-0.10231,0.9690549999999999,0.82283
500,5.0,-2.515164,-0.200974,1.449558,-0.055435000000000005,1.1554870000000002,0.767441
501,5.01,-3.0205349999999997,-1.543779,1.8275009999999998,0.030853000000000005,1.384521,0.668365
502,5.02,-2.8767650000000002,-2.791625,1.714145,0.16507,1.598633,0.5820770000000001
503,5.03,-2.481807,-3.827961,1.234958,0.34829699999999997,1.818085,0.5202939999999999
504,5.04,-1.944447,-4.673237,0.590775,0.48571800000000004,2.013016,0.473419
505,5.05,-1.491517,-5.632347,0.290471,0.5336609999999999,2.108902,0.49153100000000005
506,5.06,-1.092262,-6.415031,0.088145,0.5283359999999999,2.114227,0.56398
507,5.07,-0.8313379999999999,-7.1586929999999995,-0.0245,0.47613500000000003,2.085464,0.6758270000000001
508,5.08,-0.396826,-7.623367999999999,-0.372872,0.37706,2.067352,0.785553
509,5.09,-0.04066599999999998,-7.661313000000001,-0.760563,0.24496500000000002,2.034332,0.840942
510,5.1,0.545093,-6.932760000000001,-1.198666,0.10328699999999999,1.96402,0.8111109999999999
511,5.11,1.070716,-5.9505040000000005,-1.329855,-0.021347,1.878799,0.720566
512,5.12,1.184705,-4.704218,-1.253112,-0.111893,1.7765349999999998,0.608719
513,5.13,1.261606,-3.6265690000000004,-1.1161299999999998,-0.125748,1.6827849999999998,0.521362
514,5.14,1.413889,-2.634507,-0.928226,-0.073547,1.583725,0.459579
515,5.15,1.335116,-1.8488689999999999,-0.910774,0.05748,1.449493,0.398865
516,5.16,1.236182,-1.141411,-1.072511,0.24710100000000002,1.284378,0.34346
517,5.17,1.489567,-0.565743,-1.7654599999999998,0.388779,1.130981,0.25824
518,5.18,1.5999700000000001,-0.07632899999999998,-2.197693,0.49957299999999993,0.9264530000000001,0.163437
519,5.19,2.152615,0.765333,-2.9874099999999997,0.560287,0.7112729999999999,0.046249
520,5.2,2.552403,1.185753,-3.670257,0.502762,0.51207,-0.043227999999999996
521,5.21,2.335505,0.956111,-3.5036089999999995,0.38559,0.45986899999999997,-0.074112
522,5.22,1.637852,0.789639,-3.0626439999999997,0.249237,0.5525359999999999,-0.068787
523,5.23,0.55602,1.258591,-2.864465,0.088379,0.639893,-0.068787
524,5.24,-0.8463719999999999,2.291657,-2.584696,-0.11828599999999999,0.631378,-0.068787
525,5.25,-2.207583,3.655733,-1.9538060000000002,-0.310028,0.55574,-0.066666
526,5.26,-3.10066,5.223477,-1.1967,-0.370758,0.460938,-0.053878999999999996
527,5.27,-3.351173,6.640656,-0.5276029999999999,-0.22374000000000002,0.392746,-0.033645999999999995
528,5.28,-3.114762,7.425397,-0.363331,0.10328699999999999,0.373581,0.012161
529,5.29,-2.69956,7.176334,-0.3896,0.487854,0.41618299999999997,0.070755
530,5.3,-3.5757760000000003,5.199018,0.7258819999999999,0.788254,0.708069,0.118698
531,5.31,-3.916889,4.307754,2.390009,0.658295,0.986099,0.22628800000000002
532,5.32,-2.735443,2.888648,4.343473,0.338715,1.02446,0.40419
533,5.33,-2.336538,1.280334,6.162011,-0.044784999999999985,0.920059,0.744003
534,5.34,-1.770317,0.9821989999999999,8.257553999999999,-0.353714,1.20874,1.29155
535,5.35,0.4986099999999999,2.537933,7.648655000000001,-0.2621,1.67746,1.5504149999999999
536,5.36,1.184157,4.437476,4.011314,0.03724699999999999,1.440979,1.229767
537,5.37,-1.23989,4.555699,2.8085430000000002,0.139511,0.962677,0.7280270000000001
538,5.38,-3.5616220000000003,3.187363,4.565942,0.125656,0.932846,0.34346
539,5.39,-4.77013,1.8519150000000002,5.279795,0.12353499999999999,1.341904,0.07075500000000001
540,5.4,-4.7668919999999995,0.6854560000000001,4.3613029999999995,0.09477200000000001,1.7829279999999998,-0.11033600000000003
541,5.41,-3.4217269999999997,-0.07555400000000001,2.871779,-0.012817000000000002,2.120605,-0.213669
542,5.42,-1.59085,-0.46079,1.250551,-0.16409300000000002,2.341125,-0.304214
543,5.43,-0.629794,-0.628572,0.209456,-0.268478,2.362427,-0.339371
544,5.44,0.44515600000000005,-0.619845,-0.303005,-0.322815,2.213287,-0.310608
545,5.45,1.227118,-0.242038,-0.219802,-0.368622,1.9661560000000002,-0.297821
546,5.46,1.7617740000000002,-0.634486,0.15082499999999996,-0.333466,1.6699979999999999,-0.293564
547,5.47,2.065671,-1.705615,0.04519400000000001,-0.193924,1.371735,-0.260544
548,5.48,2.042554,-3.2141509999999998,-0.4304390000000001,-0.046906,1.200226,-0.212601
549,5.49,1.573954,-4.572741000000001,-1.04426,0.07559199999999999,1.074524,-0.17744400000000002
550,5.5,0.7871489999999999,-5.4381900000000005,-1.744706,0.168274,0.946686,-0.12631199999999998
551,5.51,-0.028090000000000004,-6.117031,-2.2829479999999998,0.211945,0.8305819999999999,-0.08477799999999999
552,5.52,-0.9198360000000001,-6.336155000000001,-2.85718,0.17999300000000001,0.7517550000000001,-0.082642
553,5.53,-1.683566,-6.489262,-2.89533,0.07347100000000001,0.6899569999999999,-0.095428
554,5.54,-2.016439,-6.306273,-2.579294,-0.038391,0.6462859999999999,-0.076248
555,5.55,-2.080641,-5.761343,-2.1180380000000003,-0.148117,0.631378,-0.068787
556,5.56,-1.8278740000000002,-5.028217,-1.5330409999999999,-0.198181,0.62178,-0.051743
557,5.57,-1.4431209999999999,-4.15985,-1.1633,-0.15876800000000002,0.606873,-0.043227999999999996
558,5.58,-1.1062,-3.346655,-1.014381,-0.046906,0.580246,-0.030441000000000003
559,5.59,-0.866676,-2.382291,-1.098792,0.10435499999999999,0.571716,-0.0006099999999999994
560,5.6,-0.706688,-1.561985,-1.4779149999999999,0.257751,0.546158,0.030273
561,5.61,-0.572442,-1.024384,-2.077122,0.371735,0.460938,0.039871
562,5.62,-0.574287,-0.6211760000000001,-2.611231,0.430328,0.31605500000000003,0.034531
563,5.63,-0.795144,-0.297969,-3.305135,0.416473,0.148804,0.01004
564,5.64,-0.8985049999999999,0.155972,-3.9979690000000003,0.31208800000000003,-0.033356000000000004,-0.012329000000000001
565,5.65,-0.543031,0.758907,-4.59689,0.164017,-0.222977,-0.036835
566,5.66,-0.016743000000000008,1.896205,-5.0011220000000005,-0.005371000000000001,-0.38169899999999995,-0.069855
567,5.67,0.302605,3.6414400000000002,-5.070179,-0.183258,-0.475433,-0.090103
568,5.68,0.27255999999999997,5.570931,-4.581425,-0.330276,-0.509521,-0.08796699999999999
569,5.69,-0.130967,7.2008220000000005,-3.6470839999999995,-0.399506,-0.499939,-0.081573
570,5.7,-1.1317959999999998,8.192203999999998,-2.225082,-0.377136,-0.475433,-0.090103
571,5.71,-2.86642,8.520907000000001,-0.639255,-0.24078400000000003,-0.40725700000000004,-0.092224
572,5.72,-4.522511,8.091567,0.39679200000000003,-0.0010989999999999887,-0.261322,-0.090103
573,5.73,-5.8056019999999995,6.631653999999999,0.7423529999999999,0.287582,-0.059982000000000014,-0.080505
574,5.74,-6.288835,4.525039,1.271876,0.45909099999999997,0.24148600000000006,-0.052811000000000004
575,5.75,-5.509741,3.046784,3.115138,0.30249000000000004,0.4375,-0.081573
576,5.76,-4.227551,2.408716,5.827736,-0.079941,0.405533,-0.147629
577,5.77,-2.6108849999999997,1.48656,7.9690270000000005,-0.272751,0.40873699999999996,-0.131638
578,5.78,-1.49795,0.13354699999999994,7.909776,-0.131073,0.5866239999999999,-0.136963
579,5.79,-1.244578,-0.41598999999999997,6.090376999999999,0.10861199999999999,0.9999540000000001,-0.304214
580,5.8,-1.608277,0.36143000000000003,3.649482,0.29184,1.178925,-0.501297
581,5.81,-1.650365,1.240593,1.745556,0.342972,1.1139370000000002,-0.493835
582,5.82,0.1808740000000001,2.125101,1.31635,0.218338,1.136307,-0.391571
583,5.83,2.564225,2.90698,2.0483830000000003,-4.600000000000437e-05,1.1501620000000001,-0.294632
584,5.84,3.9685639999999998,3.390464,2.865761,-0.188583,1.0425719999999998,-0.17318699999999998
585,5.85,3.7091559999999997,3.571962,3.2338009999999997,-0.273819,0.764526,0.004714999999999997
586,5.86,2.826556,3.3463480000000003,2.647122,-0.249313,0.46945200000000004,0.234802
587,5.87,2.409939,2.6967529999999997,1.059207,-0.161957,0.23722800000000002,0.45744300000000004
588,5.88,2.1858470000000003,1.901916,-0.31978700000000004,-0.076736,0.011383000000000018,0.606583
589,5.89,1.845533,1.113194,-0.562822,-0.034134,-0.068512,0.6598510000000001
590,5.9,0.957103,0.12478599999999995,-0.3049,-0.004303,-0.024825999999999997,0.6353449999999999
591,5.91,-0.015310000000000048,-0.9690489999999999,0.06019899999999999,0.038314999999999995,0.096603,0.574631
592,5.92,-0.8530190000000001,-2.2698549999999997,0.227491,0.083054,0.262787,0.502182
593,5.93,-1.3401239999999999,-3.442657,0.08976399999999997,0.168274,0.447083,0.44679300000000005
594,5.94,-1.7012099999999999,-4.656238,-0.4513360000000001,0.25882,0.62178,0.407379
595,5.95,-1.814359,-5.525678,-0.8859999999999999,0.332321,0.7389680000000001,0.402054
596,5.96,-1.727525,-6.474947,-1.131625,0.371735,0.80394,0.44679300000000005
597,5.97,-1.441592,-7.186226,-1.208148,0.38345300000000004,0.799683,0.49366800000000005
598,5.98,-1.200189,-7.559224,-1.332442,0.372803,0.752808,0.561844
599,5.99,-0.9097149999999999,-7.675236999999999,-1.375169,0.34510799999999997,0.7048800000000001,0.63002
600,6.0,-0.466924,-7.228477000000001,-1.5002,0.29930100000000004,0.6920930000000001,0.644928
601,6.01,-0.03282099999999999,-6.543399,-1.636311,0.253494,0.695282,0.597
602,6.02,0.23173200000000002,-5.771881,-1.742865,0.214081,0.69635,0.495804
603,6.03,0.504092,-5.032322,-1.5600829999999999,0.189575,0.686768,0.387146
604,6.04,0.730762,-4.323023,-1.470507,0.198105,0.686768,0.29232800000000003
605,6.05,0.9774370000000001,-3.697742,-1.5189549999999998,0.23858600000000002,0.684631,0.200714
606,6.06,1.660327,-3.343904,-1.6539580000000003,0.26521300000000003,0.71553,0.09738200000000001
607,6.07,1.596303,-3.2117400000000003,-1.9634490000000002,0.283325,0.718719,-0.028320000000000005
608,6.08,1.5747200000000001,-2.525187,-2.307014,0.31101999999999996,0.700623,-0.139099
609,6.09,1.585293,-1.04447,-2.995503,0.342972,0.647354,-0.24456799999999998
610,6.1,1.2857290000000001,0.484478,-3.922664,0.334457,0.6047359999999999,-0.304214
611,6.11,0.6160899999999999,1.522716,-4.387224,0.26414499999999996,0.587692,-0.291428
612,6.12,0.379538,2.255953,-4.025263,0.145905,0.616455,-0.22325100000000003
613,6.13,0.090434,3.22988,-3.32081,0.03511,0.601547,-0.166794
614,6.14,-0.284496,4.559337,-2.592136,-0.072479,0.473709,-0.12098699999999998
615,6.15,-0.541405,6.102384,-1.614632,-0.173676,0.33523600000000003,-0.05281099999999999
616,6.16,-0.260233,7.598748,-0.805438,-0.219482,0.279831,0.035599000000000006
617,6.17,0.58662,8.791574,-0.627132,-0.133194,0.340561,0.075012
618,6.18,1.204395,9.390336,-1.103559,0.06919900000000001,0.421509,0.044128
619,6.19,1.0111219999999999,8.715423,-1.7982360000000002,0.314209,0.40980500000000003,0.024947999999999998
620,6.2,0.647861,6.983275,-2.000966,0.563492,0.42257700000000004,0.049454000000000005
621,6.21,-0.6340970000000001,4.880781,-1.531643,0.719009,0.472641,0.049454000000000005
622,6.22,-2.474854,3.709484,-0.3524510000000001,0.642319,0.670792,0.128281
623,6.23,-1.7510880000000002,2.5721979999999998,1.4948629999999998,0.369614,0.86467,0.29125999999999996
624,6.24,-1.146741,-0.057503000000000075,2.985538,0.18318199999999998,0.958405,0.400986
625,6.25,-1.066899,-3.072044,3.7561,0.081985,0.792221,0.5575869999999999
626,6.26,-0.883942,-4.562719,4.5483720000000005,-0.072479,0.575974,0.824966
627,6.27,-0.29086599999999996,-3.158232,4.858114,-0.32495100000000005,0.6452180000000001,1.2031399999999999
628,6.28,1.7618840000000002,0.7049059999999998,4.183458,-0.568893,0.762405,1.33522
629,6.29,1.850739,4.249573000000001,3.6397809999999997,-0.63707,0.432175,1.087021
630,6.3,0.20455200000000007,6.218458,4.327001999999999,-0.5177609999999999,-0.04400600000000002,0.691803
631,6.31,-1.083827,6.644303,5.556527,-0.300446,-0.23149099999999997,0.33068800000000004
632,6.32,-1.9176650000000002,6.101348000000001,6.346762,-0.101242,0.04228200000000002,0.012160999999999977
633,6.33,-2.6300470000000002,4.922829,5.5320599999999995,0.027663999999999998,0.594086,-0.23924299999999998
634,6.34,-2.613152,3.251554,4.107998,0.10328699999999999,1.086243,-0.41394
635,6.35,-2.13414,1.6208559999999999,2.506399,0.191711,1.374924,-0.516205
636,6.36,-1.362127,-0.012571,0.801944,0.283325,1.42926,-0.552429
637,6.37,-0.526561,-1.6821870000000003,-0.589067,0.32486,1.325928,-0.557755
638,6.38,0.4016730000000001,-3.475576,-1.422691,0.316345,1.011673,-0.552429
639,6.39,1.300617,-4.765611,-2.028973,0.286514,0.642029,-0.523666
640,6.4,2.248373,-6.858658999999999,-2.27636,0.137375,0.301147,-0.44163500000000006
641,6.41,2.041039,-7.076522,-2.135095,0.120331,0.250015,-0.438446
642,6.42,1.610852,-7.4750119999999995,-1.814097,0.10328699999999999,0.14773599999999998,-0.46720900000000004
643,6.43,0.9224479999999999,-7.659542,-1.6928779999999999,0.085175,0.003936999999999996,-0.500229
644,6.44,0.20646200000000006,-7.426164999999999,-1.624809,0.041504,-0.122833,-0.472534
645,6.45,-0.494807,-6.8858619999999995,-1.7497770000000001,-0.06501799999999999,-0.208054,-0.41926599999999997
646,6.46,-1.105919,-6.13176,-1.617622,-0.202438,-0.24639899999999998,-0.340439
647,6.47,-1.1221139999999998,-5.273411,-1.189044,-0.291916,-0.271973,-0.233902
648,6.48,-0.8736950000000001,-4.362831,-0.673438,-0.265289,-0.30925,-0.155075
649,6.49,-0.61757,-3.426019,-0.5448069999999999,-0.12574800000000005,-0.346542,-0.102875
650,6.5,-0.319849,-2.752041,-0.732271,0.058548,-0.400864,-0.066666
651,6.51,-0.26001199999999997,-2.427327,-1.1964219999999999,0.185318,-0.490356,-0.067734
652,6.52,-0.415468,-2.313568,-1.661513,0.214081,-0.599014,-0.08477799999999999
653,6.53,-0.77996,-2.0859520000000003,-2.188685,0.17040999999999998,-0.6490779999999999,-0.098618
654,6.54,-1.258616,-1.490516,-2.748113,0.078796,-0.634155,-0.11033599999999999
655,6.55,-1.398102,-0.460845,-3.131637,0.019135,-0.6586609999999999,-0.123123
656,6.56,-1.241296,0.978253,-3.7306150000000002,0.00209,-0.748138,-0.141235
657,6.57,-1.084124,2.9164849999999998,-4.163273,-0.027739999999999997,-0.806732,-0.180649
658,6.58,-0.9128850000000001,5.003096,-4.060726,-0.099106,-0.791824,-0.23496999999999998
659,6.59,-1.034297,6.579300999999999,-3.510482,-0.197113,-0.759857,-0.28823899999999997
660,6.6,-1.276932,7.346272,-2.5247040000000003,-0.291916,-0.692749,-0.30635100000000004
661,6.61,-2.004195,7.570552,-1.505392,-0.310028,-0.616058,-0.273331
662,6.62,-3.459598,7.654192999999999,-0.8548389999999999,-0.22374000000000002,-0.519119,-0.218994
663,6.63,-4.8650910000000005,7.430913,-1.15372,-0.06501799999999999,-0.41685500000000003,-0.17639200000000002
664,6.64,-5.0932010000000005,6.7302539999999995,-1.544217,0.090515,-0.28369099999999997,-0.140167
665,6.65,-4.4190830000000005,5.570635,-1.6523729999999999,0.218338,-0.11218299999999999,-0.109268
666,6.66,-3.593111,3.723587,-0.903616,0.284393,0.030563,-0.081573
667,6.67,-1.663202,2.689879,0.7814000000000001,0.110748,0.09874,-0.11991900000000001
668,6.68,0.334554,2.48705,4.327039,-0.312164,-0.057846,-0.212601
669,6.69,1.800541,1.830529,7.72763,-0.45170600000000005,-0.077026,-0.174255
670,6.7,2.0731610000000003,-0.004197000000000006,7.658268,-0.16409300000000002,0.09767200000000001,-0.136963
671,6.71,1.047916,-1.392902,5.841399,0.126724,0.425781,-0.265869
672,6.72,-0.486457,-0.7339979999999999,3.8374870000000003,0.223663,0.6452180000000001,-0.572662
673,6.73,-2.150522,0.891703,1.9529849999999997,0.270538,0.610062,-0.738846
674,6.74,-0.8433950000000001,2.3793490000000004,0.560909,0.168274,0.547211,-0.6589510000000001
675,6.75,1.72695,3.6112610000000003,1.2056870000000002,-0.08099400000000001,0.538696,-0.535385
676,6.76,4.065849,4.227777,3.162321,-0.257828,0.532303,-0.377716
677,6.77,4.5116190000000005,4.2944379999999995,4.3050809999999995,-0.247177,0.34375,-0.138031
678,6.78,3.748674,4.052214,3.8971089999999995,-0.140656,0.07743799999999999,0.162369
679,6.79,3.253629,3.3746370000000003,2.195426,-0.013884999999999995,-0.14840699999999998,0.45105
680,6.8,3.1158799999999998,2.21972,0.28007600000000005,0.091568,-0.392349,0.6396029999999999
681,6.81,2.630848,0.9243940000000002,-0.6646989999999999,0.12886,-0.528702,0.721634
682,6.82,1.685181,-0.430739,-0.567914,0.097961,-0.54361,0.720566
683,6.83,0.31562399999999996,-2.04943,0.088143,0.061752,-0.42218,0.67157
684,6.84,-0.8251940000000001,-3.683921,0.269923,0.07347100000000001,-0.265579,0.590607
685,6.85,-1.757591,-5.0959010000000005,-0.08370900000000002,0.07559199999999999,-0.09407,0.472366
686,6.86,-2.204009,-6.3252440000000005,-0.40420700000000004,0.084122,0.032699999999999986,0.380753
687,6.87,-2.3639229999999998,-7.235253999999999,-0.59202,0.12779200000000002,0.14773599999999998,0.326416
688,6.88,-2.343164,-7.881581,-0.779482,0.176788,0.242554,0.34346
689,6.89,-2.073372,-8.197534,-0.8317690000000001,0.21514899999999998,0.307526,0.420166
690,6.9,-1.6410220000000002,-8.01018,-1.000636,0.240707,0.322449,0.521362
691,6.91,-0.929567,-7.50185,-1.305385,0.23219299999999998,0.34268200000000004,0.581024
692,6.92,-0.320216,-6.7426759999999994,-1.7147080000000001,0.17466700000000002,0.39808699999999997,0.570358
693,6.93,0.384265,-5.8813,-1.9597900000000001,0.097961,0.40980500000000003,0.485138
694,6.94,0.795981,-4.865997,-2.058401,0.058548,0.369324,0.341339
695,6.95,0.9161459999999999,-3.999907,-1.9710779999999999,0.036179,0.350143,0.20817600000000003
696,6.96,1.079458,-3.43305,-1.85228,0.046829,0.36186199999999996,0.10697899999999999
697,6.97,1.189946,-3.0161860000000003,-1.8793819999999999,0.07666,0.390625,0.036667
698,6.98,1.418815,-2.736137,-2.035248,0.087311,0.434296,-0.018723
699,6.99,1.356307,-2.4953369999999997,-1.890932,0.10328699999999999,0.491821,-0.053878999999999996
700,7.0,1.421084,-1.737739,-2.000495,0.17466700000000002,0.539764,-0.070923
701,7.01,1.402499,-0.569056,-3.0876759999999996,0.25242600000000004,0.540833,-0.096497
702,7.02,1.278559,0.54577,-4.324977,0.22047399999999998,0.468384,-0.11673
703,7.03,1.07483,1.283434,-4.617216,0.083054,0.360794,-0.12525899999999998
704,7.04,0.918983,2.0055520000000002,-4.167741,-0.086319,0.292618,-0.12951700000000002
705,7.05,0.587221,3.170454,-3.541749,-0.268478,0.31073,-0.139099
706,7.06,-0.026614999999999996,4.427292,-2.545401,-0.461304,0.404465,-0.141235
707,7.07,-0.185333,5.771781,-1.278443,-0.629608,0.55574,-0.111404
708,7.08,0.32576900000000003,7.454467999999999,-0.123234,-0.674347,0.728317,-0.07838400000000001
709,7.09,0.6601779999999999,8.842775,-0.107051,-0.48793000000000003,0.815659,-0.067734
710,7.1,0.48391999999999996,9.1552,-0.880608,-0.141724,0.754944,-0.048553
711,7.11,0.376918,8.016423,-0.991665,0.16934200000000002,0.6175229999999999,0.002579000000000001
712,7.12,0.102132,6.568207000000001,0.297727,0.29823299999999997,0.55574,0.067566
713,7.13,-0.084372,6.466133,2.285685,0.158691,0.609009,0.210312
714,7.14,1.806666,5.866687000000001,5.762871,-0.101242,0.6047359999999999,0.380753
715,7.15,2.144494,3.479085,7.353289999999999,-0.165161,0.47052,0.5224300000000001
716,7.16,2.282652,1.062139,8.4685,-0.21629299999999999,0.26918000000000003,0.819641
717,7.17,1.875603,0.010297999999999974,8.830217,-0.15983599999999998,0.204208,1.1541290000000002
718,7.18,2.845214,0.907388,5.604156,0.195969,0.172241,1.296875
719,7.19,2.9897139999999998,2.093381,1.3055429999999997,0.467606,-0.10472100000000002,1.04335
720,7.2,1.101291,2.231273,-0.272239,0.41328400000000004,-0.49568199999999996,0.617233
721,7.21,-1.01062,2.038062,1.132247,0.19278,-0.627777,0.27528400000000003
722,7.22,-2.122576,1.7859470000000002,2.283398,0.0010219999999999954,-0.519119,0.0015110000000000126
723,7.23,-2.84932,1.290071,2.435798,-0.183258,-0.180359,-0.222198
724,7.24,-2.529096,0.7025779999999999,1.660764,-0.393127,0.255341,-0.405411
725,7.25,-2.2418549999999997,-0.27171700000000004,0.774027,-0.578476,0.67186,-0.5311130000000001
726,7.26,-1.699704,-1.064981,-0.08186199999999999,-0.653046,0.859344,-0.582245
727,7.27,-0.855136,-1.616417,-0.397758,-0.645584,0.8327030000000001,-0.597168
728,7.28,-0.13744099999999998,-1.9392509999999998,-0.33376100000000003,-0.601913,0.587692,-0.583313
729,7.29,0.544409,-2.3128,0.012072,-0.528412,0.293686,-0.556686
730,7.3,1.088489,-3.061963,0.500571,-0.395248,-0.010985999999999996,-0.522598
731,7.31,1.3919549999999998,-4.177699,0.782362,-0.184326,-0.245346,-0.48851000000000006
732,7.32,1.335772,-5.1953,0.5398970000000001,0.11181600000000001,-0.346542,-0.46614099999999997
733,7.33,0.8230379999999999,-6.009561,-0.274285,0.333389,-0.339081,-0.47679099999999996
734,7.34,0.214544,-7.023012,-0.895191,0.433517,-0.273041,-0.485306
735,7.35,-0.401909,-7.901215,-1.4314040000000001,0.46228,-0.21444699999999997,-0.484253
736,7.36,-1.0045620000000002,-7.868580000000001,-2.214839,0.370667,-0.19953900000000002,-0.464005
737,7.37,-1.342131,-7.3433589999999995,-2.6360360000000003,0.162949,-0.20912199999999997,-0.425659
738,7.38,-1.629526,-6.338747,-2.518977,-0.043716000000000005,-0.21444699999999997,-0.36174
739,7.39,-1.391282,-5.163753,-2.150214,-0.14491300000000001,-0.22084,-0.283981
740,7.4,-0.967676,-3.7403440000000003,-1.842395,-0.12254300000000001,-0.240021,-0.21473699999999998
741,7.41,-0.36375,-2.356221,-1.599082,0.012741000000000002,-0.25811799999999996,-0.175323
742,7.42,-0.009659,-1.262177,-1.4790379999999999,0.20343,-0.31778,-0.171051
743,7.43,0.106842,-0.6047319999999999,-1.446059,0.36322,-0.4552,-0.175323
744,7.44,0.034184,-0.653882,-1.649814,0.47187799999999996,-0.626709,-0.151886
745,7.45,-0.133609,-0.9144950000000001,-1.923159,0.541122,-0.727905,-0.092224
746,7.46,-0.29075,-1.2580049999999998,-2.3677610000000002,0.540054,-0.7801060000000001,-0.044295999999999995
747,7.47,-0.245808,-1.186934,-3.084739,0.466553,-0.808868,-0.060272000000000006
748,7.48,-0.082092,-0.5239090000000001,-3.95077,0.32806399999999997,-0.8514709999999999,-0.12525899999999998
749,7.49,-0.038235000000000005,0.923374,-4.76928,0.137375,-0.9036709999999999,-0.208344
750,7.5,-0.24027199999999999,2.627238,-5.063244999999999,-0.09059099999999999,-0.933502,-0.25415
751,7.51,-0.624646,4.133666000000001,-4.576846,-0.28979499999999997,-0.888763,-0.22325100000000003
752,7.52,-1.167337,5.357903,-3.347887,-0.408035,-0.728973,-0.152954
753,7.53,-1.965589,6.564616,-2.119689,-0.386734,-0.550003,-0.111404
754,7.54,-3.186435,7.200533,-1.257455,-0.253571,-0.420044,-0.10394300000000001
755,7.55,-4.42556,7.381692,-0.86246,-0.072479,-0.320969,-0.12098699999999998
756,7.56,-4.689227,7.092405,-0.95747,0.090515,-0.185684,-0.14975
757,7.57,-4.173702,5.648748,-0.733979,0.205551,-0.044006,-0.155075
758,7.58,-2.405002,3.9001349999999997,0.46191000000000004,0.121399,0.04335,-0.11991900000000001
759,7.59,-0.041862999999999984,3.8205730000000004,3.154255,-0.326004,0.017776,-0.196625
760,7.6,0.8826200000000001,3.948264,7.862698,-0.795792,0.07743799999999999,-0.203018
761,7.61,1.736704,3.2944160000000005,10.27849,-0.76384,0.274506,-0.159348
762,7.62,1.82099,1.991997,9.942373,-0.480469,0.44068900000000005,-0.294632
763,7.63,0.945572,1.4322290000000002,7.596781,-0.13000499999999998,0.561066,-0.598236
764,7.64,-0.693557,1.808668,3.844386,0.314209,0.549347,-0.786774
765,7.65,-0.3158040000000001,2.5192759999999996,0.4596449999999999,0.5592189999999999,0.532303,-0.760147
766,7.66,2.402806,2.9771099999999997,-0.020136999999999988,0.469742,0.473709,-0.6120760000000001
767,7.67,5.389474,3.356495,1.306317,0.314209,0.397018,-0.44270299999999996
768,7.68,6.6004830000000005,2.847071,2.1930509999999996,0.193832,0.22018400000000002,-0.236038
769,7.69,5.3433910000000004,1.9102740000000002,2.028033,0.064941,-0.06318700000000001,0.004714999999999997
770,7.7,3.5919160000000003,1.268163,1.081273,-0.058624,-0.341217,0.279541
771,7.71,2.571215,0.559916,-0.40613699999999997,-0.14917,-0.599014,0.49153100000000005
772,7.72,1.4389129999999999,-0.122874,-1.121815,-0.2099,-0.8567959999999999,0.632156
773,7.73,0.426868,-0.7479020000000001,-0.801251,-0.265289,-0.986771,0.713104
774,7.74,-0.632881,-1.483062,0.006415999999999977,-0.318558,-0.944153,0.713104
775,7.75,-1.447363,-2.283918,0.895227,-0.32495100000000005,-0.763062,0.656647
776,7.76,-2.139112,-3.1042400000000003,1.2664819999999999,-0.266357,-0.489288,0.559708
777,7.77,-2.502984,-4.315158,1.2722129999999998,-0.16835,-0.16650399999999999,0.443604
778,7.78,-2.3492889999999997,-5.554041000000001,0.875632,-0.027739999999999997,0.073181,0.357315
779,7.79,-1.777325,-6.612394999999999,0.285333,0.120331,0.24894699999999997,0.287003
780,7.8,-1.2712510000000001,-7.385908000000001,-0.354133,0.239639,0.333099,0.266769
781,7.81,-0.681804,-7.786671000000001,-0.9785440000000001,0.320602,0.38209499999999996,0.294464
782,7.82,-0.06735199999999998,-7.685703999999999,-1.657261,0.355759,0.41831999999999997,0.344528
783,7.83,0.450726,-6.979864999999999,-2.4760619999999998,0.31953400000000004,0.444946,0.382874
784,7.84,0.891265,-5.9161790000000005,-2.965814,0.194901,0.43855299999999997,0.34239200000000003
785,7.85,1.146099,-4.745248999999999,-2.861768,0.084122,0.401276,0.256119
786,7.86,1.208006,-3.89799,-2.684113,0.007415999999999998,0.341614,0.154907
787,7.87,1.038723,-3.489436,-2.322982,-0.037323,0.311798,0.08033799999999999
788,7.88,0.942175,-3.390532,-1.9241689999999998,-0.047974,0.328842,0.044128
789,7.89,0.81375,-3.4890190000000003,-1.7873459999999999,-0.053299,0.38209499999999996,0.019622999999999998
790,7.9,0.812932,-3.49951,-1.8172830000000002,-0.049042,0.46626300000000004,-0.0016780000000000009
791,7.91,0.663542,-3.177705,-2.0114549999999998,-0.019211000000000002,0.55574,-0.020859
792,7.92,0.523325,-2.459359,-2.523737,0.036179,0.601547,-0.044295999999999995
793,7.93,0.437176,-1.400334,-3.3114769999999996,0.06813,0.605804,-0.065598
794,7.94,0.42796999999999996,-0.26012100000000005,-3.858881,0.036179,0.579178,-0.097549
795,7.95,0.337439,0.783563,-4.02073,-0.037323,0.5418850000000001,-0.13058499999999998
796,7.96,0.35662699999999997,2.1790830000000003,-3.9314400000000003,-0.136398,0.48223900000000003,-0.13058499999999998
797,7.97,0.5025109999999999,4.115501,-3.4701809999999997,-0.256775,0.410858,-0.095428
798,7.98,0.960894,6.203007,-2.284693,-0.397385,0.433228,-0.048553
799,7.99,1.6481720000000002,8.051932,-1.096784,-0.49644499999999997,0.553604,-0.015532999999999996
800,8.0,2.279298,9.339958,-0.297137,-0.474075,0.661194,-0.007004000000000001
801,8.01,2.3484,9.698997,-0.24704099999999998,-0.273819,0.687836,-0.031508999999999995
802,8.02,1.9974470000000002,8.721017999999999,-0.839643,0.014877,0.595154,-0.045364
803,8.03,1.4789450000000002,7.006913000000001,-0.622527,0.177856,0.39808699999999997,-0.014465
804,8.04,0.35371699999999995,6.238091000000001,1.1390209999999998,0.10755899999999999,0.286224,0.09845
805,8.05,1.5651929999999998,5.988723,4.519444,-0.171539,0.250015,0.331741
806,8.06,2.635971,4.1792300000000004,6.648397,-0.294052,0.058258,0.473419
807,8.07,2.422439,1.0780020000000001,7.311242999999999,-0.304703,-0.292206,0.7280270000000001
808,8.08,2.329577,-1.158583,7.988714999999999,-0.300446,-0.42218,1.054001
809,8.09,2.395879,-1.10175,6.883899,-0.098038,-0.358261,1.308594
810,8.1,3.155272,0.939362,3.590669,0.175735,-0.324173,1.235092
811,8.11,1.8674849999999998,2.97411,1.884414,0.262009,-0.52977,0.834549
812,8.12,-1.011865,3.7325269999999997,2.175816,0.194901,-0.751343,0.40631100000000003
813,8.13,-2.446669,3.814868,2.965912,0.060684,-0.793945,0.06861899999999999
814,8.14,-3.1240040000000002,3.3600309999999998,3.3896800000000002,-0.085266,-0.605392,-0.196625
815,8.15,-2.737592,2.828409,2.850965,-0.233337,-0.225098,-0.386246
816,8.16,-1.8745779999999999,1.849089,1.864064,-0.36969,0.22657800000000006,-0.5439
817,8.17,-1.342087,0.735577,0.768876,-0.414429,0.559998,-0.631256
818,8.18,-0.622378,-0.528043,-0.177628,-0.386734,0.7400359999999999,-0.655746
819,8.19,0.452819,-1.7419779999999998,-0.6689470000000001,-0.326004,0.734711,-0.6600189999999999
820,8.2,0.8923629999999999,-2.538321,-0.896416,-0.249313,0.504608,-0.67067
821,8.21,1.039794,-3.55309,-0.975684,-0.198181,0.24362199999999998,-0.663208
822,8.22,1.162617,-4.7646120000000005,-0.725011,-0.15983599999999998,-0.05679300000000001,-0.635513
823,8.23,1.1678540000000002,-5.891966,-0.317128,-0.073547,-0.33482399999999995,-0.619537
824,8.24,0.845939,-6.5237300000000005,-0.166235,0.100098,-0.498871,-0.60675
825,8.25,0.33624,-7.175153999999999,-0.45415200000000006,0.246033,-0.546814,-0.5897060000000001
826,8.26,-0.01974999999999999,-7.883594,-0.865974,0.318481,-0.558533,-0.586517
827,8.27,-0.50867,-8.19806,-1.321624,0.304626,-0.558533,-0.5737300000000001
828,8.28,-0.87931,-7.634181,-2.024285,0.200226,-0.535095,-0.548157
829,8.29,-1.179584,-6.727117999999999,-2.370371,0.038314999999999995,-0.503128,-0.501297
830,8.3,-1.2083780000000002,-5.514851,-1.9655040000000001,-0.06289700000000001,-0.442413,-0.41926599999999997
831,8.31,-0.8964,-4.171269000000001,-1.33023,-0.011764999999999998,-0.38382,-0.340439
832,8.32,-0.521285,-2.9586740000000002,-0.818453,0.18531800000000004,-0.340149,-0.286102
833,8.33,-0.49167700000000003,-2.064129,-0.841067,0.416473,-0.36038200000000004,-0.27226300000000003
834,8.34,-0.665724,-1.702062,-1.103141,0.566681,-0.4552,-0.25415
835,8.35,-0.8306370000000001,-1.566943,-1.551466,0.659363,-0.589417,-0.196625
836,8.36,-0.975599,-1.508018,-2.392852,0.690247,-0.635223,-0.10394300000000001
837,8.37,-0.9622069999999999,-1.2684799999999998,-3.2051119999999997,0.691315,-0.6714479999999999,-0.005935999999999997
838,8.38,-0.801441,-1.021564,-3.972893,0.635925,-0.725769,0.054779000000000015
839,8.39,-0.5709609999999999,-0.597294,-4.468332,0.488922,-0.800339,0.040924
840,8.4,-0.331984,0.273656,-4.590964,0.262009,-0.886627,-0.010208000000000002
841,8.41,0.009216000000000002,1.591218,-4.610593,0.020203,-0.9409639999999999,-0.052811000000000004
842,8.42,0.22225599999999998,3.38444,-4.531098,-0.174744,-0.914322,-0.057067999999999994
843,8.43,-0.05063100000000001,5.208611,-3.9001980000000005,-0.286591,-0.779037,-0.036835
844,8.44,-0.8201370000000001,6.749639,-2.8119709999999998,-0.269547,-0.6022029999999999,-0.008072
845,8.45,-2.170907,7.677451,-1.675947,-0.16409300000000002,-0.46052600000000005,-0.00914
846,8.46,-3.603017,7.890553,-0.741642,-0.025604,-0.338013,-0.049622
847,8.47,-4.17183,7.603273,-0.302886,0.10755899999999999,-0.194214,-0.100754
848,8.48,-3.570797,6.296653,-0.21406,0.23326100000000002,-0.073837,-0.12525899999999998
849,8.49,-2.386072,4.580074,0.44289799999999996,0.2258,0.01458700000000001,-0.123123
850,8.5,0.14655200000000002,4.354654,2.6348599999999998,-0.08952299999999999,-0.06211900000000001,-0.217926
851,8.51,1.300103,4.277238,6.877741,-0.482605,-0.10578900000000001,-0.257339
852,8.52,2.289332,3.279354,9.5595,-0.500717,0.072113,-0.200882
853,8.53,2.570307,1.839094,9.179996000000001,-0.28447,0.287292,-0.315933
854,8.54,1.7149240000000001,0.480633,7.8113649999999994,-0.025603999999999988,0.52272,-0.597168
855,8.55,-0.5458419999999999,0.6446350000000001,4.678142,0.313156,0.580246,-0.819809
856,8.56,-1.7608409999999999,1.6629099999999999,1.161789,0.566681,0.526978,-0.8368530000000001
857,8.57,0.030469000000000083,2.140807,-0.13766499999999998,0.527267,0.48968500000000004,-0.672791
858,8.58,3.233463,2.598535,0.8910540000000001,0.331253,0.41513100000000003,-0.46507299999999996
859,8.59,5.656511,2.821754,1.970934,0.186386,0.218048,-0.262665
860,8.6,5.615807,2.308096,2.161025,0.07666,-0.110046,-0.014465000000000006
861,8.61,4.135464,1.9271490000000002,1.438503,-0.03518700000000001,-0.39447,0.276352
862,8.62,3.164095,1.489278,0.008214999999999972,-0.138519,-0.6618649999999999,0.539474
863,8.63,2.801342,0.9409200000000001,-0.932582,-0.188583,-0.932434,0.6992649999999999
864,8.64,2.320643,0.284857,-0.958067,-0.199249,-1.064529,0.745071
865,8.65,1.45428,-0.317837,-0.29428000000000004,-0.202438,-1.0219120000000002,0.698196
866,8.66,0.2777299999999999,-1.2314260000000001,0.758275,-0.205643,-0.8078,0.603394
867,8.67,-0.92809,-2.418479,1.277107,-0.1577,-0.503128,0.47876
868,8.68,-1.779591,-3.693276,1.1813639999999999,-0.059691999999999995,-0.203796,0.34346
869,8.69,-2.122634,-4.9924669999999995,0.762532,0.093704,-0.0013890000000000152,0.24865700000000002
870,8.7,-2.191078,-6.2881160000000005,-0.014409999999999978,0.242844,0.087021,0.201782
871,8.71,-2.078957,-7.352155000000001,-0.7443069999999999,0.34404,0.112595,0.22521999999999998
872,8.72,-1.740806,-8.082222999999999,-1.38399,0.382385,0.085953,0.295532
873,8.73,-1.390472,-8.448741,-1.776707,0.341904,0.082764,0.398865
874,8.74,-0.833942,-8.134534,-2.166906,0.239639,0.121109,0.50325
875,8.75,-0.206415,-7.142841000000001,-2.143353,0.09584,0.196747,0.51178
876,8.76,0.359292,-5.817183999999999,-2.173754,0.010619999999999996,0.23722800000000002,0.452118
877,8.77,0.659269,-4.514464,-2.085385,-0.026672,0.247879,0.34346
878,8.78,0.768917,-3.7797980000000004,-1.9717040000000001,-0.034134,0.284103,0.229477
879,8.79,0.8836809999999999,-3.520971,-2.024756,-0.035187,0.35121199999999997,0.162369
880,8.8,0.894301,-3.450872,-2.07132,-0.056503,0.439621,0.112305
881,8.81,0.79287,-3.238177,-1.728494,-0.05011,0.520584,0.071823
882,8.82,0.773115,-2.7506619999999997,-1.58356,0.022338999999999998,0.5866239999999999,0.037735000000000005
883,8.83,0.768609,-1.6614509999999998,-1.958307,0.144836,0.637772,0.007904000000000001
884,8.84,0.923823,-0.061868000000000034,-3.0520509999999996,0.25563,0.668655,-0.027252
885,8.85,0.98356,1.3296379999999999,-4.032337,0.26414499999999996,0.6643979999999999,-0.08371
886,8.86,0.685394,1.9871150000000002,-4.273598000000001,0.20343,0.6452180000000001,-0.14335599999999998
887,8.87,0.46982299999999994,2.691958,-3.9329650000000003,0.09689299999999999,0.626053,-0.169998
888,8.88,0.425129,3.6254370000000002,-3.238531,-0.066086,0.59729,-0.164673
889,8.89,0.227802,4.916253,-2.170668,-0.265289,0.652679,-0.11673
890,8.9,0.28696900000000003,6.40871,-1.071305,-0.419754,0.812469,-0.043228
891,8.91,0.999251,7.921689999999999,-0.722801,-0.401642,0.960541,0.030273
892,8.92,1.471224,8.660524,-1.224012,-0.182205,0.956284,0.05796799999999999
893,8.93,1.379402,8.049988,-2.157362,0.134186,0.7964939999999999,0.085663
894,8.94,1.211708,6.206589,-1.769167,0.369614,0.6111300000000001,0.13147
895,8.95,0.249783,4.994243,-0.20856300000000014,0.390915,0.547211,0.182602
896,8.96,0.328823,4.958825,2.4821,0.10328700000000003,0.6111300000000001,0.33813499999999996
897,8.97,1.9623509999999997,3.611906,6.115833,-0.193924,0.606873,0.45851099999999995
898,8.98,1.97226,0.964009,7.521818,-0.20776399999999998,0.350143,0.578888
899,8.99,2.5505009999999997,-1.0255969999999999,8.549658,-0.251434,-0.004592999999999986,0.909119
900,9.0,3.245459,-0.799273,9.033316000000001,-0.294052,-0.15266400000000002,1.303268
901,9.01,4.480496,2.0253360000000002,6.312155000000001,-0.085266,-0.173965,1.436432
902,9.02,4.03019,4.619353,2.724322,0.089447,-0.446671,1.1093899999999999
903,9.03,1.529535,5.724374,1.992949,0.13311800000000001,-0.844025,0.620438
904,9.04,-0.398741,5.70031,3.3180129999999997,0.176788,-0.972916,0.22521999999999998
905,9.05,-2.036005,4.975599,4.0323459999999995,0.187454,-0.7801060000000001,-0.12738000000000002
906,9.06,-3.143275,3.6694760000000004,3.6662769999999996,0.110748,-0.348663,-0.399017
907,9.07,-3.436838,1.8606189999999998,2.500032,-0.022415,0.167984,-0.586517
908,9.08,-3.299329,0.06738900000000002,0.8269559999999999,-0.125748,0.6175229999999999,-0.695175
909,9.09,-2.85386,-1.4042940000000002,-0.833617,-0.186462,0.841232,-0.726059
910,9.1,-1.962898,-2.8970990000000003,-1.356882,-0.21629299999999999,0.836975,-0.684509
911,9.11,-0.9985200000000001,-4.116204,-1.025139,-0.230133,0.660141,-0.616333
912,9.12,0.13134799999999994,-4.703681,-0.58897,-0.20883200000000002,0.32563800000000004,-0.516205
913,9.13,1.20373,-5.126442,-0.320386,-0.182205,0.0007320000000000103,-0.43205299999999996
914,9.14,1.885161,-5.307009,-0.397064,-0.136398,-0.24427800000000002,-0.36174
915,9.15,2.283593,-5.4589419999999995,-0.671561,-0.071411,-0.401932,-0.358551
916,9.16,2.0165740000000003,-5.717798,-1.104414,0.019135,-0.531891,-0.41926599999999997
917,9.17,1.375816,-6.145498,-1.166683,0.056427,-0.588348,-0.460815
918,9.18,0.6040979999999999,-6.4807690000000004,-1.1007209999999998,0.083054,-0.6139220000000001,-0.503418
919,9.19,-0.273326,-6.478292,-1.20367,0.080917,-0.625641,-0.532181
920,9.2,-1.063684,-5.9328650000000005,-1.342268,0.06813,-0.607529,-0.527924
921,9.21,-1.220875,-5.174469,-1.4430370000000001,0.061752,-0.585159,-0.471466
922,9.22,-1.117726,-4.46171,-1.259559,0.09689299999999999,-0.573441,-0.388367
923,9.23,-0.904479,-3.9537989999999996,-0.9356709999999999,0.18850699999999998,-0.56279,-0.29675300000000004
924,9.24,-0.638833,-3.275945,-0.799797,0.34510799999999997,-0.547882,-0.217926
925,9.25,-0.373067,-2.552233,-0.956357,0.520874,-0.550003,-0.155075
926,9.26,-0.406922,-2.2217279999999997,-1.3551,0.6497649999999999,-0.6533359999999999,-0.108215
927,9.27,-0.23992,-2.2450490000000003,-1.914736,0.681732,-0.8354950000000001,-0.037903
928,9.28,0.041876,-2.416394,-2.337695,0.634857,-0.96759,0.038803
929,9.29,-0.078361,-2.2781029999999998,-2.883295,0.5240779999999999,-1.047485,0.095261
930,9.3,-0.312264,-1.807797,-3.314349,0.34829699999999997,-1.105011,0.11656199999999999
931,9.31,-0.395593,-0.9995069999999999,-3.815924,0.139511,-1.142288,0.099518
932,9.32,-0.481562,0.4410399999999999,-4.05971,-0.069275,-1.157211,0.070755
933,9.33,-0.604527,2.379531,-3.9854089999999998,-0.22587600000000002,-1.1209870000000002,0.055847
934,9.34,-0.8458540000000001,4.410719,-3.595505,-0.29512,-0.999542,0.045197
935,9.35,-1.38554,6.049067,-2.933864,-0.274872,-0.844025,0.03241
936,9.36,-2.4189580000000004,7.019008,-2.090033,-0.196045,-0.697006,-0.0006099999999999994
937,9.37,-3.645292,7.224241999999999,-1.1487040000000002,-0.095917,-0.558533,-0.056014999999999995
938,9.38,-4.5009440000000005,6.791306,-0.488336,0.013808999999999995,-0.42218,-0.11991900000000001
939,9.39,-4.402417,5.875502,-0.257876,0.119278,-0.216583,-0.154007
940,9.4,-3.090904,3.6920010000000003,-0.5040979999999999,0.26947,0.064651,-0.162537
941,9.41,0.49906000000000006,2.64322,2.843266,-0.256775,-0.030151,-0.18277000000000002
942,9.42,1.891477,2.768376,7.303355000000001,-0.6423949999999999,0.020981,-0.157211
943,9.43,2.888862,2.297256,9.405244999999999,-0.580612,0.172241,-0.16893
944,9.44,2.061617,1.1420549999999998,8.570255,-0.256775,0.300079,-0.311676
945,9.45,0.4903040000000001,0.91248,6.198298,0.05854799999999999,0.5578770000000001,-0.546036
946,9.46,-1.623739,1.608201,3.022673,0.23645,0.691025,-0.794235
947,9.47,-1.811288,2.404281,1.169259,0.275864,0.6793060000000001,-0.810211
948,9.48,0.0012140000000000484,3.208207,1.225188,0.17040999999999998,0.584503,-0.67067
949,9.49,2.495746,3.8629059999999997,2.73386,0.074524,0.49821499999999996,-0.471466
950,9.5,4.180485,3.9813160000000005,3.7065449999999998,0.087311,0.377838,-0.21580500000000002
951,9.51,4.013632,3.932172,2.878747,0.125656,0.162659,0.08140600000000002
952,9.52,3.361689,3.316127,1.43341,0.080917,-0.08235199999999998,0.374359
953,9.53,3.110554,2.4566049999999997,0.08853699999999998,0.015944999999999997,-0.32629400000000003,0.590607
954,9.54,2.788686,1.660295,-0.57117,-0.034134,-0.542542,0.6939390000000001
955,9.55,2.1314130000000002,0.8432729999999999,-0.477958,-0.071411,-0.6064609999999999,0.702454
956,9.56,-0.292015,-1.5368050000000002,1.207983,-0.084198,-0.32629400000000003,0.542664
957,9.57,-1.379414,-2.914966,1.467925,0.0042270000000000025,-0.138809,0.455322
958,9.58,-2.0558799999999997,-3.985388,1.16604,0.12886,0.045471,0.366898
959,9.59,-2.317781,-4.959902,0.597414,0.257751,0.21379099999999998,0.313644
960,9.6,-2.369846,-5.710737,-0.058346999999999975,0.379196,0.37251300000000004,0.307251
961,9.61,-2.470012,-6.493201999999999,-0.728021,0.468674,0.46519499999999997,0.36903400000000003
962,9.62,-2.269136,-7.00013,-1.208057,0.489975,0.540833,0.473419
963,9.63,-1.695855,-7.5198,-1.601783,0.401566,0.638824,0.599121
964,9.64,-1.023939,-7.452921000000001,-1.7995439999999998,0.308884,0.661194,0.620438
965,9.65,-0.356098,-7.036905,-2.066274,0.213013,0.66333,0.560776
966,9.66,0.24030300000000002,-6.403283,-2.2729150000000002,0.105423,0.6452180000000001,0.439331
967,9.67,0.527567,-5.815528,-2.360489,-0.014954000000000004,0.665466,0.308304
968,9.68,0.8571120000000001,-5.362741000000001,-2.080591,-0.105499,0.7240449999999999,0.201782
969,9.69,1.1858090000000001,-4.913198,-1.8793529999999998,-0.153442,0.819931,0.110168
970,9.7,1.2060549999999999,-4.283368,-1.694236,-0.16409300000000002,0.9339139999999999,0.023880000000000002
971,9.71,1.094581,-3.4729989999999997,-1.544827,-0.134262,1.0191350000000001,-0.052811000000000004
972,9.72,1.01156,-2.522779,-1.5442770000000001,-0.05011,1.030853,-0.108215
973,9.73,1.0257180000000001,-1.302251,-1.74997,0.092636,0.9552149999999999,-0.136963
974,9.74,1.156038,0.14937999999999996,-2.441216,0.235382,0.8348389999999999,-0.150818
975,9.75,1.582724,1.418759,-3.362914,0.275864,0.7059479999999999,-0.165726
976,9.76,1.792821,1.8548950000000002,-3.6501339999999995,0.189575,0.587692,-0.163605
977,9.77,2.0218529999999997,2.213409,-3.161423,0.050034,0.48223900000000003,-0.12631199999999998
978,9.78,2.174628,3.110733,-2.499348,-0.11615,0.40980500000000003,-0.070923
979,9.79,2.033625,4.35584,-1.662107,-0.296188,0.447083,-0.014465
980,9.8,1.792007,5.85112,-0.696882,-0.415497,0.602615,0.000443
981,9.81,1.263609,7.414757000000001,-0.435567,-0.359039,0.714462,-0.036835
982,9.82,0.4883339999999999,8.385246,-1.211258,-0.132126,0.6931609999999999,-0.067734
983,9.83,-0.059877000000000014,8.204338,-2.5596900000000002,0.144836,0.59729,-0.051743
984,9.84,-0.308595,7.038958,-3.0092830000000004,0.35789499999999996,0.48542799999999997,0.021759000000000004
985,9.85,-0.631761,5.662473,-1.9707540000000001,0.403702,0.45559700000000003,0.103775
986,9.86,-1.119642,5.610375,-0.045487000000000055,0.23326100000000002,0.460938,0.20285
987,9.87,0.6556110000000002,5.763131,2.93698,-0.022415000000000004,0.388489,0.393524
988,9.88,2.448916,3.671905,5.358423999999999,-0.104431,0.210587,0.533081
989,9.89,2.1408419999999997,0.943553,6.4382470000000005,-0.197113,0.013519000000000015,0.762115
990,9.9,2.26071,-0.8843700000000001,7.547242999999999,-0.301514,-0.160126,1.0902100000000001
991,9.91,2.28232,-0.714129,6.6663429999999995,-0.138519,-0.165451,1.37677
992,9.92,3.1304540000000003,0.973783,3.5859160000000005,0.16401700000000002,-0.142014,1.3725129999999999
993,9.93,2.871006,2.747408,1.0958349999999997,0.297165,-0.302872,1.0454709999999998
994,9.94,0.8143019999999999,3.408986,1.259167,0.24496500000000002,-0.466919,0.585281
995,9.95,-0.540486,3.8058870000000002,2.756209,0.181061,-0.473312,0.184738
996,9.96,-2.079091,3.788757,3.5429519999999997,0.126724,-0.30499299999999996,-0.184906
997,9.97,-3.1461099999999997,3.209206,3.3147230000000003,0.022339,0.06146199999999999,-0.457611
998,9.98,-2.9919279999999997,2.338563,2.38746,-0.109756,0.447083,-0.625931
999,9.99,-2.760801,1.2246189999999997,1.364558,-0.17687999999999998,0.731506,-0.723938
1000,10.0,-2.320173,0.08447399999999994,0.35036,-0.150238,0.800751,-0.735641
1001,10.01,-1.219595,-1.008346,-0.323351,-0.11402899999999999,0.6803739999999999,-0.7036899999999999
1002,10.02,-0.4336709999999999,-1.8942419999999998,-0.5447850000000001,-0.13000499999999998,0.481171,-0.6365810000000001
1003,10.03,0.424322,-2.62026,-0.440064,-0.17793299999999998,0.27131700000000003,-0.547104
1004,10.04,1.2960479999999999,-3.500834,-0.20918,-0.205643,0.075302,-0.482117
1005,10.05,1.544246,-4.1531709999999995,-0.23687600000000006,-0.166214,-0.09407,-0.45228599999999997
1006,10.06,1.4359389999999999,-4.885462,-0.540665,-0.089523,-0.20059200000000002,-0.453354
1007,10.07,1.059628,-5.727818,-0.9540219999999999,-0.018143,-0.291153,-0.491699
1008,10.08,0.5196609999999999,-6.702641000000001,-1.112121,0.012740999999999999,-0.375305,-0.552429
1009,10.09,-0.13905999999999996,-7.387528,-1.298554,0.00209,-0.428558,-0.58757
1010,10.1,-0.6816369999999999,-7.723696,-1.312674,-0.06076,-0.47010799999999997,-0.597168
1011,10.11,-1.28603,-7.335035,-1.225673,-0.132126,-0.502075,-0.5652010000000001
1012,10.12,-1.38339,-6.413508,-1.2531430000000001,-0.205643,-0.51059,-0.487442
1013,10.13,-1.20127,-5.633233000000001,-1.1315790000000001,-0.253571,-0.509521,-0.397964
1014,10.14,-0.7692680000000001,-4.865215,-0.925707,-0.23866300000000001,-0.513794,-0.30954
1015,10.15,-0.378433,-4.007394000000001,-0.6568350000000001,-0.15876800000000002,-0.534027,-0.230713
1016,10.16,-0.01578199999999999,-3.136498,-0.52799,-0.013884999999999995,-0.565979,-0.17744400000000002
1017,10.17,0.242263,-2.4253400000000003,-0.535629,0.197037,-0.608597,-0.13591
1018,10.18,0.21415700000000001,-2.0083,-1.054924,0.375992,-0.701279,-0.086899
1019,10.19,0.30535999999999996,-1.8915400000000002,-1.473592,0.47293100000000005,-0.8525389999999999,-0.007003999999999996
1020,10.2,0.221917,-1.777032,-2.034291,0.49424700000000005,-0.996353,0.07608
1021,10.21,-0.148555,-1.484869,-2.3213150000000002,0.426071,-1.1156620000000002,0.128281
1022,10.22,-0.713344,-0.935026,-2.5542580000000004,0.292908,-1.181702,0.12402300000000001
1023,10.23,-1.2778,0.05018699999999998,-2.8449419999999996,0.143768,-1.179581,0.091003
1024,10.24,-1.701384,1.720011,-3.107106,0.025528,-1.0975489999999999,0.055847
1025,10.25,-1.95515,3.881485,-3.4291419999999997,-0.060760000000000015,-0.9761049999999999,0.0036469999999999975
1026,10.26,-2.2038189999999998,5.797339,-3.108949,-0.108704,-0.804611,-0.061339999999999985
1027,10.27,-2.5065169999999997,7.042078,-2.3013790000000003,-0.099106,-0.626709,-0.113541
1028,10.28,-3.041836,7.479199,-1.413925,-0.018143,-0.473312,-0.150818
1029,10.29,-3.4315900000000004,7.219859,-1.004535,0.10116599999999999,-0.32629400000000003,-0.18277000000000002
1030,10.3,-3.270458,6.386539,-1.4907350000000001,0.219406,-0.173965,-0.211533
1031,10.31,-2.8402700000000003,5.553069,-2.541301,0.280121,-0.031219,-0.236038
1032,10.32,-2.4532,4.361948,-2.799189,0.278,0.044418,-0.212601
1033,10.33,0.09796000000000003,3.2868150000000003,-0.8569799999999999,-0.0746,0.002868999999999997,-0.133774
1034,10.34,1.224682,3.7207760000000003,2.838274,-0.585938,-0.07809400000000001,-0.133774
1035,10.35,2.0156680000000002,3.559682,6.584998,-0.851181,0.023102000000000004,-0.07838400000000001
1036,10.36,2.3441520000000002,2.444014,7.886394999999999,-0.78833,0.084885,-0.13058499999999998
1037,10.37,1.709982,1.018479,8.169079,-0.599777,0.102997,-0.322327
1038,10.38,0.7255910000000001,0.990617,6.800027,-0.259964,0.190353,-0.5737300000000001
1039,10.39,-0.974583,1.833473,3.914717,0.14802599999999996,0.20953400000000003,-0.793167
1040,10.4,-0.572357,2.456738,1.6729049999999999,0.360016,0.204208,-0.812347
1041,10.41,1.285836,2.7224060000000003,1.6571360000000002,0.305695,0.21379099999999998,-0.6930390000000001
1042,10.42,3.307638,2.862487,2.7828619999999997,0.171463,0.255341,-0.506622
1043,10.43,4.137887,2.580046,3.144777,0.085175,0.127502,-0.25521900000000003
1044,10.44,3.4740660000000005,2.296052,2.344337,0.009551999999999993,-0.12176499999999997,0.032409999999999994
1045,10.45,2.429578,1.9980490000000002,0.880234,-0.085266,-0.340149,0.324295
1046,10.46,1.622322,1.637229,-0.4616210000000001,-0.19072,-0.475433,0.568237
1047,10.47,0.830512,1.094364,-0.9195549999999999,-0.2621,-0.557465,0.721634
1048,10.48,-0.03507499999999997,0.4776409999999999,-0.549974,-0.29512,-0.507401,0.772766
1049,10.49,-1.057639,-0.493963,0.26453000000000004,-0.287659,-0.349731,0.747192
1050,10.5,-1.9319369999999998,-1.5193159999999999,1.023347,-0.205643,-0.14094500000000001,0.677963
1051,10.51,-2.516377,-2.7658400000000003,1.251783,-0.05650299999999999,0.073181,0.578888
1052,10.52,-2.684602,-4.0194410000000005,1.088747,0.122467,0.265991,0.498993
1053,10.53,-2.371338,-5.135194,0.4209,0.303558,0.42045600000000005,0.443604
1054,10.54,-1.794132,-6.245729,-0.549864,0.41221599999999997,0.533371,0.402054
1055,10.55,-1.0411489999999999,-7.326254,-1.271436,0.428192,0.551483,0.41484099999999996
1056,10.56,-0.315176,-8.036964999999999,-1.787952,0.38345300000000004,0.534439,0.448929
1057,10.57,0.403698,-8.285324000000001,-2.058562,0.304626,0.525909,0.48408500000000004
1058,10.58,1.1031440000000001,-8.021217,-2.2750060000000003,0.17040999999999998,0.5173949999999999,0.506454
1059,10.59,1.690868,-7.2239,-2.081245,0.054290999999999985,0.48863199999999996,0.452118
1060,10.6,1.964994,-6.113963,-2.121584,-0.034134,0.450272,0.33920300000000003
1061,10.61,1.9751290000000001,-4.97507,-1.907109,-0.11615,0.44068900000000005,0.20285
1062,10.62,1.822023,-4.185354,-1.526153,-0.155563,0.4375,0.088867
1063,10.63,1.626796,-3.6383160000000005,-1.295557,-0.140656,0.444946,-0.0027469999999999994
1064,10.64,1.301436,-3.209736,-1.221143,-0.085266,0.458801,-0.071991
1065,10.65,1.039459,-2.999877,-1.436321,-0.019211000000000002,0.481171,-0.12419100000000001
1066,10.66,0.7052189999999999,-2.853857,-1.622517,0.047897,0.502472,-0.152954
1067,10.67,0.702278,-2.052914,-2.012914,0.136322,0.48436,-0.16893
1068,10.68,0.871925,-0.397619,-2.8440060000000003,0.219406,0.468384,-0.203018
1069,10.69,0.8768309999999999,1.376668,-3.8676129999999995,0.20768699999999998,0.442825,-0.246689
1070,10.7,0.598554,2.304753,-4.124223000000001,0.10116599999999999,0.41618299999999997,-0.274384
1071,10.71,0.371132,2.826104,-3.482311,-0.040512,0.426849,-0.25947600000000004
1072,10.72,0.37972399999999995,3.703989,-2.533969,-0.179001,0.432175,-0.225388
1073,10.73,0.40404,4.73856,-1.403626,-0.316422,0.444946,-0.185974
1074,10.74,0.33911199999999997,5.933307,-0.435569,-0.41017200000000004,0.49607799999999996,-0.11673
1075,10.75,0.872708,7.159235000000001,-0.22209600000000002,-0.397385,0.587692,-0.032577999999999996
1076,10.76,1.309597,8.120013,-1.019215,-0.254639,0.6452180000000001,0.014297
1077,10.77,1.295564,8.253402000000001,-2.173478,-0.02027899999999999,0.5632020000000001,0.059036
1078,10.78,1.134193,7.403656,-2.7829200000000003,0.206619,0.41618299999999997,0.14213599999999998
1079,10.79,1.202222,5.930902,-2.375516,0.368546,0.319244,0.22096300000000002
1080,10.8,0.2117039999999999,4.704941000000001,-1.365928,0.409027,0.32777399999999995,0.234802
1081,10.81,-0.31756,4.471408,0.08068699999999984,0.257751,0.387421,0.301926
1082,10.82,1.3270180000000005,3.484607,2.333165,0.03511,0.365051,0.42335500000000004
1083,10.83,1.906838,0.801488,3.8136900000000002,-0.06289700000000001,0.339493,0.514969
1084,10.84,1.439754,-2.049385,4.852453,-0.143845,0.252136,0.670502
1085,10.85,1.279333,-3.6243589999999997,5.447545,-0.232269,0.096603,0.912323
1086,10.86,1.615795,-2.8108310000000003,4.5460910000000005,-0.280197,-0.093002,1.186081
1087,10.87,2.8284740000000004,0.14926199999999998,3.2425740000000003,-0.34944200000000003,-0.15266400000000002,1.25853
1088,10.88,2.745262,3.3894610000000003,3.054311,-0.419754,-0.348663,1.030563
1089,10.89,1.1751710000000002,5.562074,3.672368,-0.409103,-0.57663,0.665176
1090,10.9,-0.405736,6.504761,4.697394,-0.310028,-0.683167,0.323227
1091,10.91,-1.572781,6.388072,5.647151,-0.20137,-0.493546,-0.01872299999999996
1092,10.92,-2.626564,5.38278,5.381455,-0.14917,-0.051468000000000035,-0.32871999999999996
1093,10.93,-2.580197,3.784501,4.362278,-0.095917,0.378906,-0.5737300000000001
1094,10.94,-2.404964,1.8457270000000001,2.787941,0.027663999999999998,0.647354,-0.745239
1095,10.95,-1.8621169999999998,-0.04512000000000005,1.077509,0.16081199999999998,0.741089,-0.825134
1096,10.96,-0.9278200000000001,-2.068633,-0.20922,0.231125,0.742157,-0.849625
1097,10.97,0.016618000000000018,-3.755233,-0.931268,0.26521300000000003,0.572784,-0.8208770000000001
1098,10.98,0.987625,-5.080814,-1.4310049999999999,0.23645,0.353333,-0.767609
1099,10.99,1.3819489999999999,-5.874062,-1.687991,0.171463,0.07743799999999999,-0.67067
1100,11.0,1.7126669999999997,-6.341637,-1.767995,0.10116599999999999,-0.12496900000000001,-0.569473
1101,11.01,1.742075,-6.436789,-1.7170159999999999,0.058548,-0.31352199999999997,-0.525787
1102,11.02,1.24137,-6.711566,-1.517901,0.050033999999999995,-0.456268,-0.509811
1103,11.03,0.68242,-6.866296000000001,-1.312858,0.036179,-0.592621,-0.49063100000000004
1104,11.04,0.025196,-6.675203999999999,-1.220026,0.007416000000000002,-0.717255,-0.474655
1105,11.05,-0.5986520000000001,-6.217074,-1.286615,-0.047974,-0.798218,-0.45548999999999995
1106,11.06,-1.152172,-5.325111,-1.318899,-0.11296099999999999,-0.8312379999999999,-0.42140200000000005
1107,11.07,-1.215762,-4.4596480000000005,-1.186892,-0.126801,-0.8301700000000001,-0.36387600000000003
1108,11.08,-1.025197,-3.596335,-0.990265,-0.06289700000000001,-0.809937,-0.30635100000000004
1109,11.09,-0.747746,-2.8500669999999997,-0.767831,0.07559200000000002,-0.763062,-0.260544
1110,11.1,-0.313742,-2.346246,-0.527001,0.290771,-0.7076720000000001,-0.233902
1111,11.11,-0.348143,-2.268853,-0.6297550000000001,0.5144810000000001,-0.68103,-0.236038
1112,11.12,-0.402852,-2.707802,-0.954432,0.658295,-0.732162,-0.22431900000000002
1113,11.13,-0.390212,-3.3505949999999998,-1.514566,0.703033,-0.824844,-0.183838
1114,11.14,-0.469976,-3.699123,-2.168287,0.648712,-0.9409639999999999,-0.107147
1115,11.15,-0.695997,-3.512636,-2.726094,0.49850500000000003,-1.001678,-0.02298
1116,11.16,-0.613416,-2.775909,-3.384272,0.317413,-1.02298,0.040924
1117,11.17,-0.593122,-1.488481,-3.9679839999999995,0.121399,-1.019791,0.070755
1118,11.18,-0.8198719999999999,0.2793570000000002,-4.416228,-0.06501799999999999,-0.9920959999999999,0.064362
1119,11.19,-1.2690709999999998,2.505548,-4.523973000000001,-0.22374000000000002,-0.926041,0.041992
1120,11.2,-1.6736360000000001,4.7330760000000005,-4.05081,-0.326004,-0.838699,0.03241
1121,11.21,-2.105786,6.425821,-2.8861310000000002,-0.355835,-0.739624,0.014297000000000002
1122,11.22,-2.874376,7.497750999999999,-1.6897229999999999,-0.282333,-0.587296,-0.010207999999999998
1123,11.23,-3.5607050000000005,7.789725999999999,-1.104299,-0.14491300000000001,-0.39447,-0.036835
1124,11.24,-3.675818,7.362292999999999,-0.9688040000000001,0.019135,-0.219772,-0.077316
1125,11.25,-3.1871240000000003,6.44928,-1.490605,0.155487,-0.041869999999999984,-0.12419100000000001
1126,11.26,-2.1002709999999998,5.570069,-2.101336,0.240707,0.129639,-0.156143
1127,11.27,-1.336941,4.337646,-1.890579,0.248169,0.21485900000000002,-0.1604
1128,11.28,0.18623,3.223128,-0.812472,0.097961,0.196747,-0.133774
1129,11.29,2.029934,3.3742949999999996,2.233746,-0.326004,0.069977,-0.192368
1130,11.3,2.699408,3.181549,6.336263,-0.650909,0.062515,-0.159348
1131,11.31,3.044284,2.0561409999999998,7.871244,-0.5603640000000001,0.14773599999999998,-0.13058499999999998
1132,11.32,2.114668,0.3399110000000001,7.501218,-0.338791,0.19354200000000002,-0.229645
1133,11.33,0.6254890000000001,-0.557013,6.351265,-0.139587,0.353333,-0.443771
1134,11.34,-1.424421,0.284002,4.207719,0.026595999999999998,0.397018,-0.7409819999999999
1135,11.35,-2.417885,1.735541,2.197582,0.139511,0.295822,-0.862411
1136,11.36,-1.1546459999999998,2.925379,1.223224,0.09584,0.204208,-0.77507
1137,11.37,1.0742040000000002,3.731265,2.0669009999999997,-0.021347,0.256393,-0.592896
1138,11.38,2.859972,3.599846,3.265348,-0.078873,0.293686,-0.34256
1139,11.39,3.052433,3.153923,3.2919110000000003,-0.071411,0.11045799999999999,-0.026183999999999985
1140,11.4,2.529366,2.869195,2.285156,-0.06289700000000001,-0.14945999999999998,0.327484
1141,11.41,2.4959689999999997,2.3304009999999997,0.755484,-0.053299,-0.378494,0.637482
1142,11.42,2.4634560000000003,1.633071,-0.379873,-0.011765,-0.569183,0.81218
1143,11.43,1.9358970000000002,0.8578480000000002,-0.8722690000000001,0.031921,-0.659729,0.8590549999999999
1144,11.44,0.940091,-0.220965,-0.515679,0.006348,-0.561722,0.800461
1145,11.45,-0.13016300000000006,-1.4103860000000001,0.08367900000000003,-0.043716000000000005,-0.356125,0.6864779999999999
1146,11.46,-0.8591,-2.707891,0.42599899999999996,-0.055435000000000005,-0.14840699999999998,0.558655
1147,11.47,-1.539882,-3.9590300000000003,0.27510300000000004,-0.018143,0.032700000000000014,0.421234
1148,11.48,-1.65857,-5.076786,0.055438,0.058548,0.15945399999999998,0.333878
1149,11.49,-1.503994,-6.20118,-0.3178369999999999,0.162949,0.218048,0.316833
1150,11.5,-1.309559,-7.181338,-0.662327,0.260956,0.20846599999999998,0.360504
1151,11.51,-0.965088,-7.845702,-1.0652059999999999,0.32913200000000004,0.195679,0.443604
1152,11.52,-0.590024,-8.206945,-1.4290370000000001,0.321671,0.202072,0.539474
1153,11.53,-0.11412699999999999,-7.772764,-1.898836,0.246033,0.22018400000000002,0.609787
1154,11.54,0.3894219999999999,-6.898383,-2.151954,0.121399,0.227631,0.590607
1155,11.55,0.8388959999999999,-5.68281,-2.195267,0.008483999999999992,0.221252,0.47876
1156,11.56,0.8533299999999999,-4.373595,-2.059127,-0.058624,0.20846599999999998,0.320023
1157,11.57,0.739298,-3.4917809999999996,-1.8480889999999999,-0.06715399999999999,0.23829699999999998,0.178345
1158,11.58,0.648154,-3.184916,-1.8455139999999999,-0.035187,0.299011,0.070755
1159,11.59,0.569361,-3.151627,-1.883159,-0.006423999999999999,0.35972600000000005,-0.005936000000000004
1160,11.6,0.597805,-3.178802,-1.715798,0.014877000000000001,0.42896999999999996,-0.058136
1161,11.61,0.64746,-2.937104,-1.688581,0.048964999999999995,0.501404,-0.096497
1162,11.62,0.585617,-2.170556,-1.999284,0.100098,0.551483,-0.12738
1163,11.63,0.718542,-0.812052,-2.673892,0.11821,0.568527,-0.14335599999999998
1164,11.64,0.8450129999999999,0.5595220000000001,-3.3050309999999996,0.067078,0.554672,-0.165726
1165,11.65,0.814768,1.627645,-3.4622050000000004,-0.016022,0.539764,-0.197693
1166,11.66,0.612291,2.661723,-3.213685,-0.075668,0.526978,-0.222198
1167,11.67,0.608349,3.8871569999999998,-2.726502,-0.13533,0.46198999999999996,-0.21048000000000003
1168,11.68,0.8907209999999999,5.19454,-1.913197,-0.226944,0.44068900000000005,-0.16786199999999998
1169,11.69,1.408552,6.365983,-0.868685,-0.30896,0.480103,-0.102875
1170,11.7,2.233632,7.385634,-0.41796400000000006,-0.285522,0.568527,-0.029373
1171,11.71,2.4041959999999998,8.055574,-1.022241,-0.10656700000000001,0.55574,0.048386
1172,11.72,1.830566,7.882725,-2.104781,0.134186,0.48436,0.110168
1173,11.73,1.1483139999999998,6.558233,-2.0702130000000003,0.305695,0.367188,0.1922
1174,11.74,0.03211699999999995,5.450899,-0.803946,0.309952,0.354401,0.251846
1175,11.75,-0.629595,5.5436309999999995,1.2560040000000001,0.085175,0.287292,0.38819899999999996
1176,11.76,1.174887,4.250659,4.4039980000000005,-0.13639799999999996,0.210587,0.538406
1177,11.77,1.412867,1.224961,5.8761019999999995,-0.196045,0.107269,0.658783
1178,11.78,1.047798,-1.0769309999999999,7.11022,-0.339859,-0.034424,0.935745
1179,11.79,0.819842,-1.707666,7.275321000000001,-0.395248,-0.16331500000000002,1.261719
1180,11.8,2.082267,0.2867019999999999,5.008762,-0.235458,-0.22403,1.46199
1181,11.81,2.557101,3.028928,2.4720299999999997,-0.132126,-0.345474,1.289413
1182,11.82,1.472012,4.977032,2.053525,-0.147049,-0.571304,0.8856809999999999
1183,11.83,-0.025506999999999943,5.866446,3.483375,-0.12361099999999998,-0.691681,0.4787600000000001
1184,11.84,-1.410682,5.892275,4.593992,-0.072479,-0.516983,0.066498
1185,11.85,-2.953072,5.026957,4.667134,-0.058624,-0.11644,-0.28823899999999997
1186,11.86,-3.3864370000000004,3.496255,3.9713269999999996,-0.072479,0.33523600000000003,-0.5428310000000001
1187,11.87,-3.24779,1.7458240000000003,2.5676189999999997,-0.036255,0.725113,-0.6941069999999999
1188,11.88,-2.929618,0.399815,0.9521149999999999,0.06494100000000001,0.9104770000000001,-0.776123
1189,11.89,-2.155081,-1.017103,-0.14489799999999994,0.143768,0.9360350000000001,-0.812347
1190,11.9,-1.3697270000000001,-2.555298,-0.693288,0.173599,0.7379,-0.813416
1191,11.91,-0.358198,-3.7546410000000003,-0.982716,0.11393699999999998,0.444946,-0.758026
1192,11.92,0.7792520000000001,-4.860118,-0.927477,0.011673000000000005,0.148804,-0.6653439999999999
1193,11.93,1.821306,-5.765749,-0.958008,-0.039458999999999994,-0.097275,-0.5588069999999999
1194,11.94,2.455301,-6.2188989999999995,-1.295859,-0.051177999999999994,-0.285812,-0.492767
1195,11.95,2.302044,-6.593549,-1.324582,-0.037323,-0.397675,-0.460815
1196,11.96,1.8851790000000002,-7.172273,-1.140917,-0.012816999999999999,-0.49568199999999996,-0.438446
1197,11.97,1.174844,-7.425681,-1.027862,0.03511,-0.5776979999999999,-0.41607700000000003
1198,11.98,0.333998,-7.205408,-1.396706,0.042572000000000006,-0.6618649999999999,-0.389435
1199,11.99,-0.7042809999999999,-6.628543,-1.616967,-0.016022,-0.711929,-0.354279
1200,12.0,-1.430822,-5.596265,-1.634641,-0.096985,-0.720444,-0.290375
1201,12.01,-1.8094299999999999,-4.58825,-1.3434030000000001,-0.121475,-0.721512,-0.216858
1202,12.02,-1.8438150000000002,-3.6218690000000002,-1.12524,-0.069275,-0.717255,-0.157211
1203,12.03,-1.6871779999999998,-2.8416770000000002,-0.958003,0.040436,-0.710861,-0.12419100000000001
1204,12.04,-1.4409399999999999,-2.193495,-0.9874809999999999,0.176788,-0.690613,-0.111404
1205,12.05,-1.1611989999999999,-2.0210310000000002,-1.1044370000000001,0.296112,-0.68103,-0.12525899999999998
1206,12.06,-0.8424780000000001,-2.0697229999999998,-1.331905,0.375992,-0.738556,-0.13484200000000002
1207,12.07,-0.359589,-2.284332,-1.7072650000000003,0.41435200000000005,-0.8078,-0.111404
1208,12.08,-0.130649,-2.19655,-2.088103,0.430328,-0.848282,-0.068787
1209,12.09,-0.24456,-1.822026,-2.8164279999999997,0.432465,-0.87384,-0.017654
1210,12.1,-0.444679,-1.280001,-3.5810690000000003,0.36322,-0.9058069999999999,0.020691
1211,12.11,-0.43591,-0.693992,-3.9216830000000003,0.24496500000000002,-0.9409639999999999,0.029205000000000002
1212,12.12,-0.42791,0.19510300000000005,-3.9556150000000003,0.087311,-0.9292450000000001,0.023880000000000002
1213,12.13,-0.6295310000000001,1.644896,-3.8101879999999997,-0.10231,-0.879166,0.013229
1214,12.14,-1.006385,3.345705,-3.288562,-0.28447,-0.816315,0.015366
1215,12.15,-1.527692,4.919723,-2.438729,-0.379272,-0.720444,0.038803
1216,12.16,-2.26896,6.218064,-1.825132,-0.333466,-0.633102,0.053711
1217,12.17,-3.2340150000000003,6.949585000000001,-1.447084,-0.173676,-0.546814,0.037735000000000005
1218,12.18,-4.1474400000000005,7.037835,-1.37473,0.0031589999999999947,-0.41578699999999996,-0.010208
1219,12.19,-4.607441000000001,6.419017,-1.468717,0.148026,-0.242142,-0.063461
1220,12.2,-4.275003,5.330545,-1.6155950000000001,0.240707,-0.047195,-0.101822
1221,12.21,-3.302014,3.7394760000000002,-1.0879290000000001,0.254562,0.096603,-0.091156
1222,12.22,-1.307504,3.093882,-0.13121000000000005,0.04682900000000001,0.09874,-0.112473
1223,12.23,-0.269225,3.345364,2.851507,-0.426147,0.069977,-0.163605
1224,12.24,0.738734,3.3561620000000003,6.616939,-0.769165,0.24148600000000006,-0.11991900000000001
1225,12.25,1.466512,2.753663,8.421785,-0.74147,0.423645,-0.1604
1226,12.26,0.924155,1.182332,8.445749000000001,-0.5273439999999999,0.45454399999999995,-0.294632
1227,12.27,0.46541099999999996,0.586174,7.0205,-0.226944,0.48223900000000003,-0.49063100000000004
1228,12.28,-0.444925,1.4708809999999999,4.416812,0.054291000000000006,0.524841,-0.729263
1229,12.29,-0.11943099999999995,2.36762,2.3665979999999998,0.17999300000000001,0.551483,-0.7718659999999999
1230,12.3,1.7470130000000001,3.5078940000000003,1.8486099999999999,0.081985,0.506744,-0.710083
1231,12.31,3.459024,4.20063,2.959103,-0.047974,0.47584499999999996,-0.57692
1232,12.32,4.228551,4.095242,3.7271370000000004,-0.071411,0.40660100000000005,-0.371323
1233,12.33,3.5100230000000003,3.695661,3.2017740000000003,-0.031998,0.253204,-0.115662
1234,12.34,2.204487,2.984691,2.112131,-0.013885,0.090225,0.171951
1235,12.35,1.381749,2.0927759999999997,0.9058459999999999,-0.030930000000000003,-0.08660900000000002,0.42228699999999997
1236,12.36,0.791906,1.246449,0.272996,-0.025604000000000002,-0.28688,0.597
1237,12.37,0.17452599999999996,0.5313720000000001,0.121205,-0.003235,-0.392349,0.692871
1238,12.38,-1.083659,-1.525352,0.417922,0.026595999999999998,-0.28476,0.702454
1239,12.39,-1.62276,-2.688827,0.46464099999999997,0.051086,-0.1026,0.676895
1240,12.4,-1.8296990000000002,-3.7260809999999998,0.141683,0.093704,0.101944,0.623627
1241,12.41,-1.474869,-4.778642,-0.309818,0.126724,0.27876300000000004,0.559708
1242,12.42,-1.053342,-5.7584040000000005,-0.631881,0.138443,0.40873699999999996,0.49259899999999995
1243,12.43,-0.801589,-6.557886,-0.804712,0.152298,0.499283,0.46171599999999996
1244,12.44,-0.545491,-7.259410000000001,-1.0085549999999999,0.177856,0.5173949999999999,0.46064799999999995
1245,12.45,-0.31701399999999996,-7.643167,-1.224181,0.189575,0.531235,0.47129799999999994
1246,12.46,-0.005572999999999982,-7.573367999999999,-1.619141,0.172531,0.5525359999999999,0.472366
1247,12.47,0.400516,-7.003075999999999,-1.9359529999999998,0.136322,0.562134,0.442535
1248,12.48,0.779411,-6.086905000000001,-2.192218,0.061752,0.5642550000000001,0.36903400000000003
1249,12.49,1.084861,-5.249931,-2.240426,-0.022415000000000008,0.5578770000000001,0.267838
1250,12.5,1.088176,-4.528805,-2.0688419999999996,-0.085266,0.547211,0.155975
1251,12.51,0.8896569999999999,-3.94791,-1.869909,-0.125748,0.559998,0.07608
1252,12.52,0.7989729999999999,-3.508918,-1.584074,-0.145981,0.613266,0.023880000000000002
1253,12.53,0.576504,-3.234312,-1.449603,-0.142792,0.675049,-0.018723
1254,12.54,0.26755300000000004,-2.98862,-1.447677,-0.101242,0.725113,-0.049622
1255,12.55,0.120503,-2.6695029999999997,-1.482546,-0.026672,0.754944,-0.069855
1256,12.56,0.076511,-2.077917,-1.7746009999999999,0.062805,0.747482,-0.081573
1257,12.57,0.172756,-1.0953190000000002,-2.313799,0.121399,0.681442,-0.092224
1258,12.58,0.6183,0.14564500000000002,-3.021732,0.10755899999999999,0.574921,-0.113541
1259,12.59,1.166718,0.935683,-3.2821239999999996,0.038315,0.45133999999999996,-0.12525899999999998
1260,12.6,1.736616,1.65888,-2.982821,-0.037323,0.357605,-0.099686
1261,12.61,2.136315,2.779774,-2.373908,-0.105499,0.311798,-0.034698
1262,12.62,2.2428209999999997,4.378134999999999,-1.603293,-0.198181,0.33628800000000003,0.034531
1263,12.63,2.225501,6.020016,-0.7837909999999999,-0.302582,0.44175699999999996,0.078217
1264,12.64,1.9601439999999999,7.4426440000000005,-0.371151,-0.345184,0.594086,0.075012
1265,12.65,1.189616,8.234693,-0.819976,-0.266357,0.670792,0.029205000000000002
1266,12.66,0.237723,8.00051,-1.70163,-0.078873,0.594086,-0.015533000000000002
1267,12.67,-0.558526,6.931045,-2.25035,0.138443,0.42896999999999996,0.011108000000000002
1268,12.68,-1.160924,5.450737,-1.830945,0.280121,0.273438,0.087799
1269,12.69,-1.6465310000000002,4.828365,-0.674762,0.248169,0.264923,0.187943
1270,12.7,-0.48832,5.141035,1.1818799999999998,0.036179,0.281967,0.38500999999999996
1271,12.71,1.9077849999999998,3.8302660000000004,2.966209,-0.140656,0.205261,0.514969
1272,12.72,2.038442,1.1429120000000002,4.455284,-0.321747,0.03482099999999999,0.6598510000000001
1273,12.73,2.5191529999999998,-0.8920360000000002,6.287371,-0.5166930000000001,-0.118576,0.944275
1274,12.74,2.379341,-1.270306,6.478112,-0.5039060000000001,-0.18782000000000001,1.190353
1275,12.75,2.977464,0.16622199999999998,4.717625,-0.279144,-0.131363,1.263855
1276,12.76,2.682471,2.246275,2.446338,-0.072479,-0.178223,1.030563
1277,12.77,0.7499770000000001,3.54765,2.108633,0.008483999999999998,-0.339081,0.632156
1278,12.78,-1.167722,4.080156,3.1003,0.011673000000000001,-0.397675,0.27421599999999996
1279,12.79,-2.682227,4.083637,4.065797,-0.021347,-0.290085,-0.047485
1280,12.8,-4.065743,3.483917,4.192605,-0.086319,-0.0024569999999999588,-0.280777
1281,12.81,-4.063269999999999,2.580749,3.422338,-0.156631,0.31073,-0.395828
1282,12.82,-2.6261669999999997,1.57605,2.19454,-0.221619,0.573853,-0.46507299999999996
1283,12.83,-1.774289,0.673275,1.102133,-0.235458,0.720856,-0.532181
1284,12.84,-0.988574,-0.14887200000000006,-0.013992000000000004,-0.203506,0.708069,-0.55455
1285,12.85,0.14350999999999994,-1.1563350000000001,-0.665882,-0.153442,0.521652,-0.537506
1286,12.86,0.9480459999999999,-1.875386,-1.031147,-0.12361099999999998,0.27131700000000003,-0.500229
1287,12.87,1.5550030000000001,-3.0015110000000003,-1.026641,-0.10975599999999999,0.030563000000000007,-0.458679
1288,12.88,2.034618,-4.100731,-0.938033,-0.100174,-0.15798999999999996,-0.437378
1289,12.89,1.905762,-4.878796,-0.63572,-0.055435000000000005,-0.299667,-0.474655
1290,12.9,1.2212319999999999,-5.51311,-0.517655,0.040436,-0.38914499999999996,-0.535385
1291,12.91,0.255695,-6.176043,-0.47865,0.16507,-0.46903999999999996,-0.580124
1292,12.92,-0.62321,-6.826641,-0.672158,0.250305,-0.546814,-0.591843
1293,12.93,-1.202064,-7.012772999999999,-0.9034969999999999,0.26521300000000003,-0.5936739999999999,-0.564148
1294,12.94,-1.73278,-6.517201,-1.148493,0.21087600000000004,-0.612854,-0.51088
1295,12.95,-2.017154,-5.7031279999999995,-1.1643860000000001,0.10861199999999999,-0.609665,-0.424591
1296,12.96,-1.9276240000000002,-4.765286,-1.058698,0.050033999999999995,-0.591553,-0.322327
1297,12.97,-1.524143,-3.776797,-0.892175,0.088379,-0.574509,-0.22113000000000002
1298,12.98,-0.965542,-2.855859,-0.795035,0.21087600000000004,-0.534027,-0.150818
1299,12.99,-0.545621,-2.387514,-0.799879,0.368546,-0.512726,-0.12525899999999998
1300,13.0,-0.44690699999999994,-2.546598,-1.108982,0.45163000000000003,-0.579834,-0.131638
1301,13.01,-0.291878,-3.0238509999999996,-1.522732,0.416473,-0.675705,-0.12631199999999998
1302,13.02,-0.42721099999999995,-3.305214,-1.9178110000000002,0.334457,-0.739624,-0.091156
1303,13.03,-0.621737,-3.063514,-2.430715,0.248169,-0.756668,-0.027252
1304,13.04,-0.654405,-2.326127,-2.990386,0.190643,-0.761993,0.041992
1305,13.05,-0.7797470000000001,-1.130901,-3.7342230000000005,0.158691,-0.784363,0.075012
1306,13.06,-1.094749,0.225287,-4.104577,0.102234,-0.8205870000000001,0.082474
1307,13.07,-1.2280149999999999,1.451524,-3.9346019999999995,0.016998,-0.833359,0.06543
1308,13.08,-1.25993,2.743145,-3.3589900000000004,-0.086319,-0.813126,0.033477999999999994
1309,13.09,-1.326824,3.990251,-2.508092,-0.147049,-0.749207,0.016434
1310,13.1,-1.4938280000000002,4.969558999999999,-1.700684,-0.120407,-0.638428,0.039871
1311,13.11,-2.009408,5.804143,-1.21951,-0.011764999999999998,-0.499939,0.08033799999999999
1312,13.12,-2.930686,6.155416000000001,-1.127846,0.138443,-0.401932,0.11656199999999999
1313,13.13,-3.922448,5.835458999999999,-1.431716,0.29184,-0.277298,0.128281
1314,13.14,-4.291224,5.337873,-1.86825,0.372803,-0.132416,0.10591099999999999
1315,13.15,-3.836926,4.551436,-2.155952,0.382385,-0.00033600000000000296,0.087799
1316,13.16,-2.873491,3.2162490000000004,-1.807657,0.320602,0.07104500000000001,0.085663
1317,13.17,-0.5019830000000001,3.101448,-0.402776,0.004227000000000009,0.060394,0.021759
1318,13.18,1.0423950000000002,3.931313,3.18696,-0.584869,0.017776,-0.105011
1319,13.19,1.840699,4.075996,7.368875999999999,-0.9183040000000001,0.130692,-0.082642
1320,13.2,2.028321,3.770307,8.563892999999998,-0.8405299999999999,0.39808699999999997,-0.152954
1321,13.21,1.162064,2.657189,8.896465,-0.612564,0.605804,-0.42884799999999995
1322,13.22,-0.622933,1.9467869999999998,7.790833,-0.2099,0.483307,-0.688782
1323,13.23,0.15829399999999993,1.9725599999999999,1.495859,0.5155489999999999,0.27771,-0.666412
1324,13.24,2.920876,2.464156,1.7528650000000001,0.43778999999999996,0.23829699999999998,-0.503418
1325,13.25,4.127425,2.491981,2.39376,0.380264,0.158401,-0.303146
1326,13.26,3.3420699999999997,2.09353,2.226073,0.286514,0.042282,-0.04216
1327,13.27,1.753355,1.885305,1.548353,0.154419,-0.062119,0.23374899999999998
1328,13.28,0.560395,1.579115,0.3434280000000001,0.059615999999999995,-0.185684,0.486206
1329,13.29,0.153331,1.003671,-0.647203,0.013809,-0.356125,0.66304
1330,13.3,-0.296279,0.5674130000000001,-0.963267,0.014877000000000001,-0.442413,0.720566
1331,13.31,-0.9989469999999999,-0.051970000000000016,-0.346611,0.019135,-0.42536899999999994,0.687546
1332,13.32,-1.8242049999999999,-0.945371,0.5030999999999999,0.038314999999999995,-0.252792,0.621506
1333,13.33,-2.1357369999999998,-1.980562,0.943789,0.09584,-0.01843299999999999,0.5671689999999999
1334,13.34,-2.258966,-3.019854,0.9186770000000001,0.171463,0.21911599999999998,0.497925
1335,13.35,-2.1033150000000003,-4.176401,0.5458689999999999,0.259888,0.434296,0.44786099999999995
1336,13.36,-1.6084120000000002,-5.169731,0.032366000000000006,0.355759,0.535492,0.432953
1337,13.37,-1.2019440000000001,-6.31051,-0.451262,0.45909099999999997,0.574921,0.47023000000000004
1338,13.38,-0.9066350000000001,-7.380878,-0.9358040000000001,0.529404,0.587692,0.526688
1339,13.39,-0.607387,-8.196883999999999,-1.38018,0.541122,0.5866239999999999,0.61937
1340,13.4,-0.206891,-8.342500999999999,-1.7120080000000002,0.46122700000000005,0.634567,0.700333
1341,13.41,0.278591,-7.549598,-1.879457,0.309952,0.672913,0.690735
1342,13.42,0.684046,-6.402480000000001,-2.084765,0.152298,0.685699,0.599121
1343,13.43,0.903234,-5.482225,-1.9154509999999998,-0.009627999999999998,0.665466,0.46064799999999995
1344,13.44,0.984072,-4.435543,-1.5198180000000001,-0.10231,0.6452180000000001,0.313644
1345,13.45,1.023892,-3.6298519999999996,-1.121868,-0.139587,0.6643979999999999,0.19966099999999998
1346,13.46,1.174035,-3.191634,-0.865203,-0.127869,0.717667,0.110168
1347,13.47,0.99998,-3.1920669999999998,-0.9012969999999999,-0.11402899999999999,0.801819,0.048386
1348,13.48,0.607622,-2.95485,-1.089156,-0.09059099999999999,0.883835,-0.0038149999999999994
1349,13.49,0.149777,-2.0920389999999998,-1.6560650000000001,-0.05011,0.9434969999999999,-0.066666
1350,13.5,-0.363886,-0.9520299999999999,-2.537709,-0.0010989999999999993,0.9477540000000001,-0.11673
1351,13.51,-0.879971,0.16288900000000006,-3.2303319999999998,0.03299,0.892365,-0.123123
1352,13.52,-1.240433,1.1205370000000001,-3.4112120000000004,0.021271,0.83165,-0.096497
1353,13.53,-1.175346,2.022944,-2.989966,-0.014954000000000004,0.7837069999999999,-0.05069
1354,13.54,-0.8200770000000001,2.922802,-2.1370869999999997,-0.049042,0.707001,-0.012329000000000005
1355,13.55,-0.364103,3.850828,-0.8910379999999999,-0.10336300000000001,0.639893,0.04306
1356,13.56,0.320705,4.607353,0.25609999999999994,-0.161957,0.622849,0.137863
1357,13.57,1.41811,5.412967,0.982511,-0.171539,0.7112729999999999,0.22096300000000002
1358,13.58,1.729436,6.270521,0.603418,-0.05011,0.811401,0.246521
1359,13.59,1.361561,6.367773000000001,-0.574194,0.177856,0.777313,0.27421599999999996
1360,13.6,0.836247,5.5877300000000005,-1.5327790000000001,0.400497,0.6899569999999999,0.328552
1361,13.61,-0.13925099999999999,4.512633,-1.3417,0.565613,0.676117,0.37648000000000004
1362,13.62,-2.108563,3.563617,-0.19890600000000005,0.619949,0.850815,0.35943600000000003
1363,13.63,-3.7950839999999997,3.123927,1.399565,0.44737200000000005,1.013809,0.402054
1364,13.64,-2.613293,2.0096540000000003,3.803657,0.11181599999999996,1.008484,0.535217
1365,13.65,-1.280397,0.02475000000000005,6.287093,-0.218414,0.8849030000000001,0.697128
1366,13.66,-1.820834,-1.1687969999999999,9.070447,-0.5731510000000001,0.8699950000000001,1.0880889999999999
1367,13.67,-1.3310620000000002,0.04129300000000002,9.81051,-0.732941,1.0873110000000001,1.605804
1368,13.68,1.1318290000000002,2.50529,6.727016000000001,-0.474075,1.0191350000000001,1.719788
1369,13.69,1.304713,5.028159,2.852174,-0.229065,0.753876,1.354401
1370,13.7,-0.7841119999999999,5.695461,2.623822,-0.170486,0.439621,0.8728940000000001
1371,13.71,-2.509504,5.750522,5.236846,-0.128937,0.600479,0.48301700000000003
1372,13.72,-4.137043,5.832032,6.692522,-0.06395,1.070267,0.036667000000000005
1373,13.73,-4.996817,4.834973000000001,6.323117,-0.034134,1.5496370000000002,-0.312744
1374,13.74,-4.678267,3.5003040000000003,4.427727,0.007415999999999998,1.843643,-0.46614099999999997
1375,13.75,-3.834578,2.067469,1.991522,0.048964999999999995,2.039658,-0.487442
1376,13.76,-3.193555,0.772832,0.31223900000000004,0.027663999999999998,2.117416,-0.464005
1377,13.77,-2.614099,-0.089281,-0.228266,-0.07034299999999999,2.132324,-0.40329
1378,13.78,-1.7250189999999999,-0.8533350000000001,-0.04175399999999999,-0.167282,2.04071,-0.321259
1379,13.79,-0.666295,-1.518991,0.134431,-0.17793299999999998,1.8585509999999998,-0.23924299999999998
1380,13.8,0.337256,-2.314559,0.06443600000000001,-0.107635,1.6412509999999998,-0.165726
1381,13.81,1.186356,-3.116318,-0.206882,0.019135,1.430328,-0.11566199999999999
1382,13.82,1.6548349999999998,-3.7311629999999996,-0.8628540000000001,0.11714200000000001,1.25882,-0.101822
1383,13.83,1.713759,-4.274369999999999,-1.369884,0.176788,1.112869,-0.12738
1384,13.84,1.460727,-4.770587,-1.7900939999999999,0.197037,0.9850459999999999,-0.164673
1385,13.85,0.7518859999999999,-5.328918,-2.048937,0.18318199999999998,0.8444209999999999,-0.187042
1386,13.86,-0.21268800000000002,-5.478127,-2.099559,0.136322,0.761337,-0.183838
1387,13.87,-0.8911629999999999,-5.387967,-1.9098009999999999,0.064941,0.7261810000000001,-0.13591
1388,13.88,-1.085754,-5.097938,-1.497715,0.012741000000000002,0.710205,-0.073059
1389,13.89,-0.850735,-4.6526309999999995,-0.967354,0.026595999999999998,0.683563,-0.016602000000000002
1390,13.9,-0.674462,-4.072611,-0.727298,0.105423,0.631378,0.033477999999999994
1391,13.91,-0.499738,-3.4286519999999996,-0.672566,0.23219299999999998,0.534439,0.071823
1392,13.92,-0.368212,-2.946057,-1.1728690000000002,0.380264,0.37251300000000004,0.112305
1393,13.93,-0.18495899999999998,-2.699784,-1.686821,0.508087,0.188217,0.167694
1394,13.94,0.020559,-2.550003,-2.076759,0.615677,0.049744,0.227356
1395,13.95,0.078182,-2.3934759999999997,-2.661047,0.6838529999999999,-0.0003359999999999995,0.284882
1396,13.96,-0.06689599999999997,-2.194954,-3.3293769999999996,0.692383,-0.034424,0.32109099999999996
1397,13.97,-0.458042,-2.0810020000000002,-3.8924769999999995,0.6401819999999999,-0.096207,0.333878
1398,13.98,-0.920826,-1.997394,-4.178015,0.526199,-0.14840699999999998,0.31897
1399,13.99,-1.624379,-1.62205,-3.992328,0.339783,-0.21977199999999997,0.267838
1400,14.0,-2.451486,-0.941642,-3.499515,0.09902999999999999,-0.34761,0.182602
1401,14.01,-3.1007849999999997,0.31452800000000003,-3.071126,-0.138519,-0.502075,0.133606
1402,14.02,-3.065691,2.369555,-2.7383580000000003,-0.323883,-0.587296,0.161301
1403,14.03,-2.703322,4.487722,-2.543069,-0.432541,-0.573441,0.21350100000000002
1404,14.04,-2.471855,6.146679,-2.290538,-0.455978,-0.546814,0.25717199999999996
1405,14.05,-2.679681,7.31606,-1.571716,-0.36648600000000003,-0.538284,0.29232800000000003
1406,14.06,-3.120556,7.7983970000000005,-0.536698,-0.17793299999999998,-0.48715200000000003,0.302979
1407,14.07,-3.832131,7.27078,0.10636099999999997,0.08624299999999999,-0.364655,0.262497
1408,14.08,-4.5941849999999995,6.056868,-0.14260499999999998,0.379196,-0.170776,0.20285
