,ts,ax,ay,az,wx,wy,wz
0,0.0,0.064286,0.012997000000000005,-0.07686,-0.008331,0.030746,0.02095
1,0.01,0.038772,-0.024868,-0.036989,-0.013656999999999999,0.025421,0.023087
2,0.02,0.052121,-0.017348,0.006435000000000001,-0.018982,0.006241000000000003,0.018813999999999997
3,0.03,0.053501,-0.026999000000000002,0.018137,-0.018982,-0.024643,0.009231999999999999
4,0.04,0.039682999999999996,-0.038185000000000004,0.032815,-0.022186,-0.042755,-0.003555
5,0.05,0.056791999999999995,-0.022861000000000003,0.036816,-0.017914,-0.053405999999999995,-0.006744
6,0.06,0.008150999999999995,0.001504,0.013695,-0.012589,-0.052338,-0.006744
7,0.07,-0.0013549999999999983,0.007113,0.014452000000000001,0.00018299999999999916,-0.038498000000000004,-0.006744
8,0.08,-0.015498,0.05155800000000001,0.048241,0.017227000000000003,-0.00015300000000000036,-0.001419
9,0.09,-0.012686,0.045423000000000005,0.021986000000000002,0.033218,0.024353,0.008162999999999998
10,0.1,0.016516000000000003,-0.004043999999999999,-0.052899,0.042801,0.036072,0.02095
11,0.11,0.056913,0.031141000000000002,-0.034238,0.041733,0.03714,0.027344
12,0.12,0.064434,-0.006508,-0.035925,0.028946,0.030746,0.030532999999999998
13,0.13,0.07332000000000001,-0.042799000000000004,-0.037168,0.009781,0.006240999999999997,0.027344
14,0.14,0.101743,-0.061480999999999994,0.029870999999999998,-0.008331,-0.01825,0.017746
15,0.15,0.055937000000000014,0.007211000000000001,0.059715,-0.015793,-0.033173,0.008163
16,0.16,0.012634999999999999,-0.060263,0.113614,-0.015793,-0.041687,0.0007019999999999999
17,0.17,0.05295,-0.074287,0.08931599999999999,0.0023190000000000003,-0.059799,-0.003555000000000001
18,0.18,-0.020609,-0.046904,0.043519999999999996,0.020432,-0.059799,-0.007812
19,0.19,0.0016540000000000027,-0.032717,0.007422,0.036407,-0.050217000000000005,-0.011017
20,0.2,-0.005665,-0.030989,-0.068888,0.051315,-0.041687,-0.008881
21,0.21,-0.017075,-0.023601,-0.108214,0.050262,-0.03743,-0.002487
22,0.22,-0.0075790000000000015,-0.031627999999999996,-0.154668,0.045989999999999996,-0.047012,0.0007020000000000001
23,0.23,0.011634000000000002,-0.026074,-0.181489,0.041733,-0.066193,0.0007020000000000001
24,0.24,0.043731,-0.011938000000000004,-0.18621400000000002,0.023621,-0.06405599999999999,-0.008881
25,0.25,0.04475,-0.00084,-0.199704,0.008713,-0.039566000000000004,-0.021667
26,0.26,0.017866999999999997,0.00469,-0.155601,-0.004074,-0.010803,-0.03125
27,0.27,-0.045803,0.025625,-0.08519700000000001,-0.010468,0.026489,-0.033386
28,0.28,-0.07123099999999999,0.034443,0.003313999999999997,-0.017914,0.057373,-0.025925
29,0.29,-0.14040899999999998,0.094806,0.058041999999999996,-0.02005,0.072296,-0.015274000000000001
30,0.3,-0.14477,0.060991,0.113371,-0.023239,0.057373,-0.0035549999999999996
31,0.31,-0.186219,0.039273,0.112344,-0.026443,0.025421,0.009231999999999999
32,0.32,-0.169301,0.036519,0.092563,-0.030701,-0.017197,0.02095
33,0.33,-0.125132,0.032512,0.081808,-0.032837,-0.049149,0.028412
34,0.34,-0.11691800000000001,0.049457999999999995,0.070967,-0.033905000000000005,-0.06405599999999999,0.031601
35,0.35,-0.024034,0.073249,0.037298000000000005,-0.029633,-0.07045,0.034789999999999995
36,0.36,-0.027862,0.031672000000000006,0.011197,-0.023239,-0.07045,0.039062
37,0.37,0.040762,0.038926,-0.021738999999999998,-0.017914,-0.047012,0.039062
38,0.38,0.066521,0.0415,0.02201,-0.011536,-0.005477999999999997,0.035858
39,0.39,0.081716,0.010162999999999998,0.045103,0.002319000000000001,0.030746,0.029464999999999998
40,0.4,0.10982,-0.019278,0.02713,0.020432,0.050980000000000004,0.022018
41,0.41,0.126887,-0.027387,0.029519,0.034270999999999996,0.062698,0.017746
42,0.42,0.145679,-0.015513999999999998,0.00981,0.041733,0.071228,0.0007019999999999995
43,0.43,0.08870800000000001,0.028736,-0.046192000000000004,0.035338999999999995,0.066971,-0.009949
44,0.44,0.032012,0.029373000000000003,-0.019447,0.026825,0.035004,-0.014206
45,0.45,-0.050239,0.07092899999999999,-0.091613,0.011902,-0.0022739999999999982,-0.007812
46,0.46,-0.046808999999999996,0.104735,-0.11015699999999999,-0.008331,-0.027847000000000004,0.007094999999999998
47,0.47,-0.020066999999999998,0.090371,-0.11170699999999999,-0.02858,-0.034241,0.022018
48,0.48,0.04501200000000001,0.061402,-0.070931,-0.045624,-0.027847000000000004,0.036926
49,0.49,0.084253,0.056079,0.017689,-0.057326999999999996,-0.006531,0.042252
50,0.5,0.13705,-0.011364999999999995,0.08402199999999999,-0.060532,0.009445,0.039062
51,0.51,0.117209,-0.061429,0.138125,-0.053070000000000006,0.009445,0.028412
52,0.52,0.13496,-0.062843,0.18698599999999999,-0.040283,-0.006531000000000001,0.015625
53,0.53,0.09739099999999999,-0.072359,0.219108,-0.021118,-0.025711,0.0007019999999999995
54,0.54,0.051816999999999995,-0.044289999999999996,0.20523899999999998,0.003387,-0.044891,-0.011017
55,0.55,0.020094,-0.047425999999999996,0.114889,0.028946,-0.060867,-0.015274000000000001
56,0.56,0.031796,0.018552000000000003,0.0073519999999999966,0.048126,-0.06405599999999999,-0.019531
57,0.57,0.031872000000000004,0.076697,-0.088883,0.05665599999999999,-0.034241,-0.021667
58,0.58,0.016833,0.064274,-0.162825,0.051315,0.015839000000000002,-0.016342
59,0.59,-0.009571,0.043435,-0.17662,0.037476,0.050980000000000004,-0.015274000000000001
60,0.6,-0.038317000000000004,-0.010581,-0.117216,0.014038,0.075485,-0.014206
61,0.61,-0.035355000000000004,-0.006651000000000001,-0.059489,0.002319000000000001,0.076553,-0.017394999999999997
62,0.62,-0.13423800000000002,-0.056837,0.028394,-0.003006,0.049927,-0.018463
63,0.63,-0.16094,-0.042105000000000004,0.027052,-0.006195,0.012634000000000001,-0.013138
64,0.64,-0.131081,-0.063318,-0.016136,-0.003006,-0.026779000000000004,-0.009949
65,0.65,-0.095413,0.02019,-0.042707,-0.003006,-0.049149,-0.009949
66,0.66,-0.106627,0.02362,-0.084563,-0.009399,-0.040619,-0.006744
67,0.67,-0.097457,0.007446000000000001,-0.102828,-0.014725,-0.021454,0.0017700000000000003
68,0.68,-0.093445,0.036032999999999996,-0.09289700000000001,-0.018982,-0.006531,0.0103
69,0.69,-0.088174,0.016578,-0.092013,-0.016861,0.011566,0.018813999999999997
70,0.7,-0.05965499999999999,0.006219999999999996,-0.047166,-0.011536,0.030746,0.028412
71,0.71,-0.05412800000000001,-0.013959000000000001,-0.0726,-0.008331,0.033936,0.035858
72,0.72,0.019916999999999997,-0.059837,-0.031301999999999996,-0.009399,0.021164,0.037994
73,0.73,0.063487,-0.034544,-0.044219,-0.013656999999999999,0.005188,0.033737
74,0.74,0.084221,-0.069962,-0.003573,-0.02005,-0.007599,0.025208
75,0.75,0.083954,-0.052978,0.046322,-0.024307,-0.011871,0.012421
76,0.76,0.063141,-0.0348,0.10726400000000001,-0.018982,-0.00441,0.00177
77,0.77,0.038713,-0.041229,0.094072,-0.0072629999999999995,0.001984,-0.0046229999999999995
78,0.78,0.047944,-0.040338,0.14891300000000002,0.010849,0.014771000000000001,-0.005676
79,0.79,0.016013999999999997,0.002019,0.09660099999999999,0.027893,0.026489,-0.0046229999999999995
80,0.8,-0.007803000000000002,-0.022419,0.09311900000000001,0.033218,0.031814999999999996,0.004974
81,0.81,0.027277,-0.00827,0.029654000000000003,0.035338999999999995,0.03714,0.012421
82,0.82,0.05449,-0.024662,-0.0063510000000000025,0.025757,0.025421,0.014556999999999999
83,0.83,0.057553999999999994,-0.067853,-0.004189,0.007644999999999998,0.022232,0.009231999999999999
84,0.84,0.09282699999999999,-0.03209,0.003647000000000001,-0.011536,0.012634000000000001,-0.0035549999999999996
85,0.85,0.03376400000000001,-0.040729,0.034991,-0.025375,0.003052,-0.013138
86,0.86,0.016986,0.014856,0.111338,-0.02858,-0.005478,-0.017394999999999997
87,0.87,-0.02317,0.0006700000000000005,0.13956500000000002,-0.022186,-0.01825,-0.021667
88,0.88,-0.040839999999999994,0.005708,0.141289,-0.003006,-0.021454,-0.021667
89,0.89,-0.016196000000000002,0.037982,0.100188,0.014038,-0.01825,-0.019531
90,0.9,-0.015031999999999998,0.03961,0.041545,0.03215,-0.011871,-0.014206
91,0.91,-0.002178,0.056701,-0.015474999999999997,0.038544,-0.009734999999999999,-0.011017
92,0.92,-0.0013170000000000007,0.036641,-0.037472000000000005,0.038544,-0.004409999999999999,-0.009949
93,0.93,-0.022012999999999998,0.029158999999999997,-0.102254,0.033218,-0.002274,-0.006744
94,0.94,-0.021665,0.007308999999999999,-0.089549,0.027893,-0.008667,-0.007812
95,0.95,-0.015481,0.06191699999999999,-0.11170999999999999,0.019363,-0.010803,-0.008881
96,0.96,-0.019912,0.024448,-0.13725,0.012969999999999999,-0.006531,-0.0046229999999999995
97,0.97,-0.06325399999999999,0.055822000000000004,-0.18107,0.005524,-0.011871,-0.001419
98,0.98,-0.0482,0.116128,-0.20115999999999998,-0.004074,-0.007599,0.00177
99,0.99,-0.052862,0.10178200000000001,-0.194583,-0.014725,0.012634000000000001,0.011368000000000001
100,1.0,-0.003167,0.060135,-0.12145999999999998,-0.026443,0.03714,0.023087
101,1.01,-0.052070000000000005,0.060614,-0.06586399999999999,-0.033905000000000005,0.046722,0.032669
102,1.02,-0.036659,0.011724,-0.00010999999999999983,-0.033905000000000005,0.031814999999999996,0.036926
103,1.03,-0.07067000000000001,-0.027092,0.056403999999999996,-0.032837,0.012634000000000001,0.04332
104,1.04,-0.039098,-0.036482,0.046892,-0.026443,-0.011871,0.044388
105,1.05,0.020474000000000003,-0.043563,0.033746,-0.015793,-0.036362,0.036926
106,1.06,0.026900999999999998,-0.046284,0.002657,-0.011536,-0.035294,0.027344
107,1.07,0.058868,-0.033083,-0.036444,-0.0072629999999999995,-0.024643,0.026276
108,1.08,0.08563,-0.05171,-0.059807000000000006,-0.006195,-0.011871,0.02095
109,1.09,0.129055,-0.040195,-0.062402,-0.008331,0.007308999999999999,0.015625
110,1.1,0.13938299999999998,-0.030204,-0.020425,-0.017914,0.032882999999999996,0.004974000000000001
111,1.11,0.092429,-0.024191999999999998,0.008262000000000002,-0.025375,0.043532999999999995,-0.0014190000000000006
112,1.12,0.019305,-0.06419,-0.012574,-0.024307,0.040329000000000004,-0.002487
113,1.13,0.007701,-0.049299,0.045084,-0.024307,0.030746,-0.002487
114,1.14,-0.037494,-0.017066000000000005,0.092176,-0.029633,0.022232,-0.001419
115,1.15,-0.065736,-0.042434,0.07525,-0.022186,-0.0033419999999999995,0.007095000000000001
116,1.16,-0.018813999999999997,-0.069613,0.057367999999999995,-0.014725,-0.026779,0.0103
117,1.17,0.042785000000000004,0.024709,0.046606,-0.010468,-0.035294,0.003906
118,1.18,0.042477999999999995,0.035008,0.032225,-0.012589,-0.029968,-0.0046229999999999995
119,1.19,-0.015655999999999996,0.055928,-0.0013350000000000098,-0.012589,-0.020386,-0.009949
120,1.2,0.016503,0.10963699999999997,-0.022739,-0.011536,-0.008666999999999998,-0.013138
121,1.21,-0.019444,0.093927,-0.047516,-0.013656999999999999,0.008376999999999999,-0.008881
122,1.22,-0.043294,0.08322,-0.01365,-0.015793,0.031814999999999996,0.0007020000000000012
123,1.23,-0.036045,0.056777,-0.06312899999999999,-0.014725,0.038208,0.0103
124,1.24,-0.035555,0.029756,0.00994,-0.016861,0.040329000000000004,0.022018
125,1.25,-0.0076979999999999965,-0.022011000000000003,0.028807999999999997,-0.023239,0.043532999999999995,0.023087
126,1.26,-0.046979,-0.03656,0.083702,-0.017914,0.023285,0.018813999999999997
127,1.27,-0.069602,-0.022609,0.130854,-0.018982,0.005188,0.011368000000000001
128,1.28,-0.0646,0.0035759999999999993,0.12067,-0.011536,-0.010803,0.008163
129,1.29,-0.11207,0.045316,0.15648800000000002,-0.004074,-0.016128999999999998,0.011368000000000001
130,1.3,-0.056336000000000004,0.039201,0.083274,0.0023189999999999994,-0.019318000000000002,0.014556999999999999
131,1.31,-0.046576,0.051907,0.03416,0.003387,-0.017197,0.018813999999999997
132,1.32,-0.031438,0.07463,-0.015786,0.003387,-0.011871,0.019882
133,1.33,-0.015847,0.064122,0.036173000000000004,-0.003006,-0.005478,0.02095
134,1.34,-0.026405,0.046426,0.015451,-0.006195,-0.002274,0.026276
135,1.35,-0.019077,0.015736,0.027794,-0.009399,-0.011871,0.030532999999999998
136,1.36,0.015666999999999997,0.053967999999999995,0.025403,-0.010468,-0.023575,0.030532999999999998
137,1.37,0.0061270000000000005,0.040761,0.011073999999999999,-0.012589,-0.029968,0.027344
138,1.38,0.009012000000000001,0.035055,0.011826999999999999,-0.010468,-0.033173,0.023087
139,1.39,0.041417,0.021576,0.022414,-0.0072629999999999995,-0.031036,0.019882
140,1.4,0.046904,0.031354,0.003054,0.000183,-0.021454,0.011368000000000001
141,1.41,0.094488,0.027826,0.012577,0.01297,-0.0012050000000000012,0.0060420000000000005
142,1.42,0.067861,0.018436,-0.047553,0.026825,0.021164,0.0017700000000000003
143,1.43,0.068999,0.046086,-0.08451399999999999,0.036407,0.038208,-0.002487
144,1.44,0.03685,0.06351,-0.062077999999999994,0.038544,0.057373,-0.005676
145,1.45,-0.057609000000000014,0.070174,-0.06289700000000001,0.036407,0.062698,-0.001419
146,1.46,-0.099989,0.041494,-0.079206,0.030014,0.058441,0.012421
147,1.47,-0.11040799999999999,0.012447,-0.105523,0.018295,0.033936,0.025208
148,1.48,-0.03334899999999999,-0.025416,-0.138718,0.0023190000000000003,-0.004410000000000001,0.037994
149,1.49,-0.008159,-0.028036000000000002,-0.18799200000000002,-0.014725,-0.034241,0.041183
150,1.5,0.082738,-0.079412,-0.224611,-0.031769,-0.055541999999999994,0.036926
151,1.51,0.103501,-0.060707000000000004,-0.21460700000000002,-0.045624,-0.051285000000000004,0.030532999999999998
152,1.52,0.09115,-0.09160800000000001,-0.198459,-0.044556,-0.028914999999999996,0.019882
153,1.53,0.061147,-0.094288,-0.099758,-0.031769,0.010513000000000002,0.014556999999999999
154,1.54,0.091252,-0.081316,-0.024175,-0.009399,0.048859,0.009231999999999999
155,1.55,0.07304,-0.09587000000000001,0.016944999999999998,0.017227000000000003,0.073364,0.00177
156,1.56,0.05870499999999999,-0.092684,0.0007229999999999999,0.036407,0.090408,-0.006743999999999999
157,1.57,0.07247100000000001,-0.046694,-0.059645000000000004,0.047057999999999996,0.086136,-0.008881
158,1.58,0.078033,-0.04517,-0.10408699999999999,0.040665,0.060577,-0.009949
159,1.59,0.049431,-0.019647,-0.12876300000000002,0.019363,0.046722,-0.008881
160,1.6,0.036789999999999996,0.04168,-0.13256199999999999,-0.012589,0.03714,-0.0003510000000000002
161,1.61,0.017396000000000002,0.019615,-0.085502,-0.042419,0.020096,0.002838
162,1.62,0.015571000000000002,0.018373,0.03316200000000001,-0.064789,0.001984,0.011368000000000001
163,1.63,0.0039380000000000005,0.015522,0.10760399999999999,-0.07225,-0.007599,0.016693
164,1.64,-0.00018199999999999987,0.020811,0.17423,-0.065857,-0.01825,0.015625
165,1.65,-0.003635,0.040101,0.165407,-0.05520599999999999,-0.017197,0.016693
166,1.66,0.025602999999999997,0.016644,0.18711,-0.037094,-0.011871,0.017746
167,1.67,0.032985,0.069961,0.214333,-0.023239,-0.00015299999999999952,0.019882
168,1.68,0.06982000000000001,0.039824,0.22277800000000003,-0.012589,0.008376999999999999,0.02095
169,1.69,0.055794,0.044087,0.16370099999999999,-0.005142,0.007309,0.019882
170,1.7,0.039827,0.066643,0.138517,-0.0008700000000000001,-0.011871,0.018813999999999997
171,1.71,0.043891,0.043016000000000006,0.100161,0.001251,-0.029968,0.013489
172,1.72,0.06235700000000001,0.036514,0.041996,0.003387,-0.051285000000000004,0.00177
173,1.73,0.066013,0.081636,-0.028404,0.010849,-0.059799,-0.002487
174,1.74,0.069855,0.10302599999999999,-0.041408999999999994,0.017227000000000003,-0.047012,-0.0046229999999999995
175,1.75,0.078457,0.113356,-0.008803,0.026825,-0.010803,-0.007812
176,1.76,0.080963,0.144645,-0.023816999999999998,0.038544,0.014771000000000001,-0.008881
177,1.77,0.02108100000000001,0.100267,-0.033597,0.045989999999999996,0.027556999999999998,-0.01207
178,1.78,0.017164,0.129751,-0.069637,0.042801,0.028610000000000003,-0.01207
179,1.79,-0.022080000000000002,0.105038,-0.06352999999999999,0.034270999999999996,0.012634000000000001,-0.018463
180,1.8,-0.059726999999999995,0.105371,-0.103104,0.022568,-0.013992,-0.022719999999999997
181,1.81,-0.054020000000000006,0.098628,-0.09925700000000001,0.011902,-0.039566000000000004,-0.018463
182,1.82,0.014258000000000002,0.10194500000000001,-0.12331099999999999,0.0033870000000000003,-0.061935000000000004,-0.014206
183,1.83,0.005972,0.107447,-0.10393800000000002,-0.005142,-0.066193,-0.019531
184,1.84,0.048367,0.112143,-0.127067,-0.0019379999999999998,-0.06405599999999999,-0.024857
185,1.85,0.086374,0.12409500000000001,-0.090262,0.018295,-0.054474,-0.034439
186,1.86,0.137346,0.173014,-0.067225,0.054520000000000006,-0.026779,-0.047226
187,1.87,0.133668,0.185906,-0.13003699999999999,0.097122,0.033936000000000015,-0.05575599999999999
188,1.88,0.157236,0.217861,-0.221456,0.136551,0.088272,-0.061080999999999996
189,1.89,0.23229499999999997,0.29094699999999996,-0.32113200000000003,0.165298,0.147919,-0.063202
190,1.9,0.285024,0.26078,-0.384762,0.179153,0.20011900000000002,-0.063202
191,1.91,0.33989899999999995,0.27228800000000003,-0.510479,0.18129,0.24699400000000002,-0.060013
192,1.92,0.330773,0.277325,-0.50474,0.171692,0.278946,-0.060013
193,1.93,0.298151,0.23724499999999998,-0.492359,0.142929,0.28428600000000004,-0.054688
194,1.94,0.23435300000000003,0.172306,-0.388293,0.114166,0.256577,-0.05043
195,1.95,0.265514,0.139048,-0.349725,0.089676,0.189468,-0.039764
196,1.96,0.309112,0.139956,-0.33961199999999997,0.070496,0.114899,-0.033386
197,1.97,0.280073,0.166393,-0.39526700000000003,0.055588,0.049927,-0.029113999999999998
198,1.98,0.30043000000000003,0.130133,-0.355426,0.045989999999999996,0.015839,-0.021667
199,1.99,0.374252,0.19712000000000002,-0.369919,0.040665,0.015839,-0.015274000000000001
200,2.0,0.45906499999999995,0.20277699999999999,-0.384679,0.047057999999999996,0.016891,-0.017394999999999997
201,2.01,0.462495,0.184419,-0.435667,0.059845,0.040329000000000004,-0.014206
202,2.02,0.43522,0.17968900000000002,-0.41745299999999996,0.069427,0.082947,-0.015274000000000001
203,2.03,0.414076,0.18411,-0.371253,0.076889,0.133011,-0.015274000000000001
204,2.04,0.398237,0.22851300000000002,-0.29689699999999997,0.090744,0.171356,-0.020599
205,2.05,0.365057,0.246685,-0.23976999999999998,0.12055999999999999,0.20011900000000002,-0.024857
206,2.06,0.283465,0.272115,-0.180484,0.15892,0.22676100000000002,-0.025925
207,2.07,0.186664,0.30725399999999997,-0.22614499999999998,0.20365899999999998,0.240601,-0.015274000000000001
208,2.08,0.144688,0.324542,-0.284074,0.24626199999999998,0.23208600000000001,0.0060420000000000005
209,2.09,0.140211,0.309071,-0.430654,0.268631,0.22569299999999998,0.033737
210,2.1,0.200655,0.338359,-0.571563,0.26969899999999997,0.218231,0.0625
211,2.11,0.164215,0.309666,-0.72885,0.245193,0.21611,0.09019500000000001
212,2.12,0.12626500000000002,0.261765,-0.802887,0.201523,0.233154,0.12428299999999999
213,2.13,0.054689,0.19509400000000002,-0.773832,0.148254,0.264038,0.15623499999999998
214,2.14,-0.051709999999999985,0.183671,-0.757196,0.095001,0.294937,0.181808
215,2.15,-0.23483099999999998,0.008559999999999998,-0.6286729999999999,0.020432,0.345001,0.227615
216,2.16,-0.34744899999999995,-0.058320000000000004,-0.5052479999999999,-0.012589,0.35139499999999996,0.261703
217,2.17,-0.455053,-0.122346,-0.498903,-0.037094,0.311981,0.297913
218,2.18,-0.538424,-0.24104499999999998,-0.549933,-0.059463999999999996,0.227814,0.339462
219,2.19,-0.451741,-0.395377,-0.676041,-0.08929400000000001,0.129822,0.37887600000000005
220,2.2,-0.340278,-0.459463,-0.782875,-0.12338299999999999,0.041397,0.392731
221,2.21,-0.142872,-0.510031,-0.845973,-0.15426600000000001,-0.019318,0.38845799999999997
222,2.22,-0.038254,-0.549423,-0.905208,-0.17131,-0.047012,0.357574
223,2.23,-0.044012,-0.516318,-0.931623,-0.18090799999999999,-0.039566000000000004,0.309631
224,2.24,-0.02742,-0.357485,-0.9653430000000001,-0.181976,-0.031036,0.263824
225,2.25,-0.018444,-0.290051,-0.9401809999999999,-0.17877200000000001,-0.008666999999999998,0.240387
226,2.26,0.015008000000000004,-0.150647,-0.9077129999999999,-0.174515,0.045654,0.22547899999999998
227,2.27,0.012459999999999999,-0.12704400000000002,-0.9013530000000001,-0.172379,0.075485,0.20950300000000002
228,2.28,0.010439,-0.052423000000000004,-0.967667,-0.18090799999999999,0.10318,0.191391
229,2.29,0.00297,0.043916000000000004,-0.937787,-0.208603,0.126617,0.16155999999999998
230,2.3,-0.052275,0.123418,-0.8799790000000001,-0.242691,0.14898699999999998,0.113632
231,2.31,-0.17765699999999998,0.22812,-0.792628,-0.27784699999999996,0.160706,0.060364
232,2.32,-0.343252,0.386056,-0.617269,-0.311935,0.186279,0.015625000000000003
233,2.33,-0.5286609999999999,0.5252399999999999,-0.463783,-0.340698,0.20864899999999997,-0.016342
234,2.34,-0.7323770000000001,0.708411,-0.38195,-0.35881,0.207581,-0.036575
235,2.35,-0.8276399999999999,0.885661,-0.263828,-0.374786,0.194794,-0.028061000000000003
236,2.36,-0.9622950000000001,1.000335,-0.270834,-0.39183,0.167099,-0.007811999999999999
237,2.37,-0.979087,1.025167,-0.17273,-0.41206400000000004,0.137268,0.027344
238,2.38,-0.950393,1.0691680000000001,-0.13709200000000002,-0.42804,0.090408,0.056107000000000004
239,2.39,-0.869517,0.955269,-0.150177,-0.417389,0.023285,0.065689
240,2.4,-0.7820050000000001,0.9106040000000001,-0.253134,-0.387573,-0.04808,0.06143200000000001
241,2.41,-0.670582,0.9090729999999999,-0.245925,-0.343887,-0.07791100000000001,0.042252
242,2.42,-0.6352770000000001,0.923977,-0.35253,-0.288498,-0.076843,0.022018
243,2.43,-0.7167,0.9083530000000001,-0.43832200000000004,-0.207535,-0.082169,0.0060420000000000005
244,2.44,-0.725309,0.894803,-0.5347189999999999,-0.129776,-0.049149,0.007095000000000001
245,2.45,-0.645474,1.022484,-0.651987,-0.047744999999999996,0.000916,0.012421
246,2.46,-0.653604,1.041261,-0.839985,0.044937,0.030746,0.015625
247,2.47,-0.566779,1.0206959999999998,-0.946284,0.12055999999999999,0.061646000000000006,0.030532999999999998
248,2.48,-0.381463,1.053256,-1.256027,0.170639,0.088272,0.045456
249,2.49,-0.33436,1.085488,-1.42226,0.183411,0.092529,0.046508999999999995
250,2.5,-0.295048,1.016886,-1.613587,0.150391,0.08934,0.030532999999999998
251,2.51,-0.348885,1.0821209999999999,-1.615257,0.092865,0.095734,-0.008881
252,2.52,-0.615971,1.242341,-1.397333,0.025757,0.151123,-0.042969
253,2.53,-0.6437350000000001,1.360919,-1.035165,-0.001938,0.22676100000000002,-0.045105
254,2.54,-0.9146110000000001,1.317966,-0.7048180000000001,0.03215,0.29280100000000003,-0.019531
255,2.55,-0.99902,1.227266,-0.49521899999999996,0.095001,0.325821,0.022018
256,2.56,-0.9489,1.1811989999999999,-0.366153,0.18129,0.30451999999999996,0.063553
257,2.57,-0.861439,1.068164,-0.48362299999999997,0.26650999999999997,0.252319,0.09764099999999999
258,2.58,-0.791574,0.999232,-0.698254,0.31657399999999997,0.176682,0.130676
259,2.59,-0.587856,0.911381,-0.9187770000000001,0.303787,0.08506799999999999,0.142395
260,2.6,-0.44646199999999997,0.8448629999999999,-1.100666,0.240936,-0.013991999999999996,0.118958
261,2.61,-0.28468499999999997,0.825256,-1.076543,0.149323,-0.08963,0.077408
262,2.62,-0.29265399999999997,0.8711549999999999,-0.943348,0.063034,-0.124786,0.018813999999999997
263,2.63,-0.432359,0.8934790000000001,-0.719689,0.009780999999999998,-0.135437,-0.026993
264,2.64,-0.571933,0.954191,-0.38305700000000004,-0.005142,-0.11946099999999998,-0.047226
265,2.65,-0.623827,1.015082,-0.138176,0.019363,-0.088562,-0.044037
266,2.66,-0.56615,1.0222799999999999,0.040108999999999985,0.068359,-0.075775,-0.040833
267,2.67,-0.535844,0.9866530000000001,0.18676500000000001,0.11950699999999999,-0.06405599999999999,-0.042969
268,2.68,-0.430345,0.9643459999999999,0.362261,0.15571600000000002,-0.053405999999999995,-0.05043
269,2.69,-0.280996,0.955408,0.532334,0.204727,-0.049149,-0.0728
270,2.7,-0.13988,0.9122530000000001,0.6755939999999999,0.25798000000000004,-0.05873099999999999,-0.109009
271,2.71,0.052377999999999994,0.9570790000000001,0.745728,0.30485500000000004,-0.076843,-0.160141
272,2.72,0.306207,0.993085,0.656842,0.364517,-0.10986300000000002,-0.22512800000000002
273,2.73,0.476688,1.1536469999999999,0.477443,0.413513,-0.139694,-0.30288699999999996
274,2.74,0.576126,1.349899,0.202825,0.4263,-0.148224,-0.372131
275,2.75,0.611223,1.425441,-0.036867000000000004,0.401794,-0.11946099999999998,-0.424332
276,2.76,0.562261,1.53605,-0.227841,0.298462,-0.008667000000000001,-0.45842
277,2.77,0.372949,1.443495,-0.237698,0.188736,0.07869,-0.45842
278,2.78,0.17741600000000002,1.242424,-0.133042,0.042801000000000006,0.159637,-0.433914
279,2.79,-0.058382,0.951635,0.10729500000000003,-0.129776,0.22143600000000002,-0.384918
280,2.8,-0.288957,0.5498109999999999,0.41174399999999994,-0.293823,0.220367,-0.322067
281,2.81,-0.36850700000000003,0.09756399999999997,0.799602,-0.42059300000000005,0.126617,-0.24963400000000002
282,2.82,-0.254875,-0.26074899999999995,1.086507,-0.47811899999999996,-0.057662999999999985,-0.18145799999999998
283,2.83,0.03803699999999999,-0.535367,1.309364,-0.46746800000000005,-0.28883400000000004,-0.126053
284,2.84,0.45065,-0.6368060000000001,1.233992,-0.397156,-0.521057,-0.123932
285,2.85,0.804565,-0.530413,1.054807,-0.272522,-0.691498,-0.16867100000000002
286,2.86,1.010899,-0.352296,0.7890149999999999,-0.12445099999999999,-0.747955,-0.233643
287,2.87,0.984395,-0.141344,0.384817,0.007644999999999998,-0.66806,-0.289047
288,2.88,0.899539,-0.013309,0.07223200000000002,0.117371,-0.504013,-0.310349
289,2.89,0.6966319999999999,0.040014999999999995,-0.104282,0.189804,-0.28137199999999996,-0.297562
290,2.9,0.48319300000000004,0.001174999999999999,-0.20552800000000002,0.23028600000000002,-0.034240999999999994,-0.256027
291,2.91,0.260885,-0.08078300000000001,-0.24767199999999998,0.245193,0.161774,-0.178253
292,2.92,0.143516,-0.294295,-0.265289,0.22921799999999998,0.261902,-0.078125
293,2.93,0.210729,-0.527998,-0.309515,0.174896,0.258713,0.003906
294,2.94,0.256734,-0.714737,-0.289308,0.089676,0.178818,0.055038
295,2.95,0.260261,-0.9502719999999999,-0.329926,-0.007262999999999999,0.064835,0.081665
296,2.96,0.247114,-1.109038,-0.286058,-0.096756,-0.076843,0.094452
297,2.97,0.241815,-1.2607190000000001,-0.361141,-0.161728,-0.23983800000000002,0.099777
298,2.98,0.306176,-1.352818,-0.42521899999999996,-0.204346,-0.37191799999999997,0.10298199999999999
299,2.99,0.430961,-1.4388729999999998,-0.5491199999999999,-0.225647,-0.46141099999999996,0.101913
300,3.0,0.511767,-1.511608,-0.621065,-0.213928,-0.478455,0.085922
301,3.01,0.6051300000000001,-1.478153,-0.724625,-0.18090799999999999,-0.44223,0.0625
302,3.02,0.7722720000000001,-1.5388540000000002,-0.821009,-0.108475,-0.408142,0.035858
303,3.03,1.003531,-1.479514,-0.9017540000000001,-0.012589000000000005,-0.360199,-0.014205999999999996
304,3.04,1.345237,-1.349185,-1.058137,0.11311300000000002,-0.32399,-0.099426
305,3.05,1.504157,-1.15361,-1.419198,0.252655,-0.320786,-0.23045300000000002
306,3.06,1.466732,-0.885043,-1.691354,0.362381,-0.28883400000000004,-0.378525
307,3.07,1.227898,-0.5906520000000001,-1.956734,0.41777,-0.21426399999999998,-0.511688
308,3.08,0.866693,-0.321332,-2.049273,0.43269300000000005,-0.13755799999999999,-0.591583
309,3.09,0.473026,0.097544,-2.1211439999999997,0.419907,-0.090698,-0.616074
310,3.1,0.13207100000000002,0.313048,-1.953473,0.385818,-0.041687,-0.578796
311,3.11,-0.170941,0.545477,-1.680282,0.33468600000000004,0.076553,-0.482925
312,3.12,-0.24311799999999997,0.624123,-1.291991,0.301666,0.20544400000000002,-0.361481
313,3.13,-0.28477399999999997,0.532455,-0.968031,0.293137,0.298126,-0.233643
314,3.14,-0.125028,0.438474,-0.730904,0.281418,0.318375,-0.130325
315,3.15,0.052801,0.41989899999999997,-0.46279,0.253723,0.25764499999999996,-0.038712
316,3.16,0.13911500000000002,0.355678,-0.291234,0.240936,0.178818,0.0017700000000000007
317,3.17,0.21189299999999997,0.354067,-0.259515,0.236679,0.079742,0.015625
318,3.18,0.214502,0.396472,-0.225677,0.231354,-0.015059999999999999,-0.0003509999999999997
319,3.19,0.256342,0.514656,-0.23448000000000002,0.23454299999999997,-0.068329,-0.015274000000000001
320,3.2,0.23448000000000002,0.608064,-0.19279200000000002,0.24626199999999998,-0.045959,-0.013138
321,3.21,0.207629,0.827874,-0.263556,0.25798000000000004,0.022232,-0.001419
322,3.22,0.118155,0.970989,-0.3221,0.259048,0.10638399999999999,0.031601
323,3.23,0.114452,1.1103379999999998,-0.388106,0.220703,0.21611,0.078476
324,3.24,0.134436,1.235003,-0.36376,0.145065,0.307709,0.139191
325,3.25,0.10522000000000001,1.2720989999999999,-0.293921,0.038544,0.33967600000000003,0.195648
326,3.26,0.114226,1.249895,-0.07085599999999999,-0.096756,0.318375,0.259567
327,3.27,0.052559,1.270882,0.34135400000000005,-0.24055500000000002,0.23848000000000003,0.310699
328,3.28,-0.062774,1.201411,0.9024049999999999,-0.34176599999999996,0.112778,0.366089
329,3.29,0.158942,1.2189969999999999,1.254527,-0.382233,-0.06300399999999999,0.404449
330,3.3,0.347564,1.339914,1.450619,-0.367325,-0.243027,0.409775
331,3.31,0.37642800000000004,1.325926,1.393937,-0.330048,-0.350616,0.377808
332,3.32,0.27551,1.128082,1.1956790000000002,-0.299149,-0.379379,0.350113
333,3.33,0.15546600000000002,1.159756,1.029549,-0.313004,-0.28137199999999996,0.319229
334,3.34,-0.06773499999999999,1.055453,1.035779,-0.375854,-0.05661,0.294724
335,3.35,-0.49204899999999996,0.743279,1.245468,-0.432312,0.222488,0.29686
336,3.36,-0.793926,0.292898,1.509989,-0.453613,0.46217299999999994,0.320282
337,3.37,-1.008011,-0.093556,1.653128,-0.434433,0.559113,0.347992
338,3.38,-0.987547,-0.349978,1.720939,-0.384369,0.486679,0.366089
339,3.39,-0.841551,-0.48844799999999994,1.656943,-0.300217,0.287476,0.367157
340,3.4,-0.64089,-0.519826,1.300766,-0.203278,0.036071999999999986,0.347992
341,3.41,-0.418943,-0.271088,0.8614059999999999,-0.128708,-0.173782,0.311768
342,3.42,-0.327384,-0.188171,0.40211199999999997,-0.10633900000000002,-0.292023,0.280869
343,3.43,-0.231116,-0.114725,-0.029481000000000007,-0.128708,-0.308014,0.267029
344,3.44,-0.160842,-0.07026900000000001,-0.322326,-0.18090799999999999,-0.267532,0.257431
345,3.45,-0.200966,-0.1013,-0.413127,-0.244827,-0.160995,0.258499
346,3.46,-0.263061,-0.227088,-0.25708000000000003,-0.316193,0.059509000000000006,0.259567
347,3.47,-0.28621199999999997,-0.34524099999999996,-0.043735,-0.327911,0.19053599999999998,0.252106
348,3.48,-0.285925,-0.48808100000000004,0.155975,-0.315125,0.299194,0.240387
349,3.49,-0.405967,-0.661719,0.294838,-0.27784699999999996,0.37588499999999997,0.231873
350,3.5,-0.599907,-0.9922690000000001,0.306373,-0.23204,0.401459,0.22229000000000002
351,3.51,-0.681027,-1.0980379999999998,0.274354,-0.196884,0.383347,0.21269200000000002
352,3.52,-0.7178939999999999,-1.296216,0.181358,-0.167053,0.346069,0.205246
353,3.53,-0.789488,-1.510019,0.067609,-0.128708,0.298126,0.192459
354,3.54,-0.7583989999999999,-1.6411380000000002,-0.18600999999999998,-0.081833,0.227814,0.183929
355,3.55,-0.608467,-1.678491,-0.455212,-0.027512,0.142593,0.181808
356,3.56,-0.504798,-1.6417259999999998,-0.81915,0.030014,0.063766,0.18074
357,3.57,-0.348314,-1.590797,-1.16418,0.072632,0.007308999999999999,0.188202
358,3.58,-0.09149300000000002,-1.588666,-1.372757,0.08114600000000001,0.000916,0.20629899999999998
359,3.59,0.169388,-1.330697,-1.460273,0.074753,0.029677999999999996,0.207367
360,3.6,0.21713000000000002,-1.2313040000000002,-1.379635,0.071564,0.066971,0.190323
361,3.61,0.24997199999999997,-1.2000709999999999,-1.2543799999999998,0.095001,0.08720399999999999,0.179672
362,3.62,0.338511,-1.018573,-1.118647,0.140808,0.099991,0.148773
363,3.63,0.313444,-0.878609,-1.003696,0.19833399999999998,0.127686,0.099777
364,3.64,0.06192,-0.723838,-0.927874,0.261185,0.16284200000000001,0.037994
365,3.65,-0.221942,-0.443858,-0.922133,0.315506,0.194794,-0.006744
366,3.66,-0.46149700000000005,-0.230908,-0.95926,0.360245,0.20544400000000002,-0.014206
367,3.67,-0.619771,-0.098663,-0.9835790000000001,0.378357,0.20544400000000002,0.0060420000000000005
368,3.68,-0.6635810000000001,-0.009829999999999998,-0.910168,0.3741,0.19586199999999998,0.032669
369,3.69,-0.576551,0.046758999999999995,-0.8657729999999999,0.364517,0.176682,0.057175
370,3.7,-0.505714,0.108575,-0.6976859999999999,0.355988,0.160706,0.071014
371,3.71,-0.54514,0.211869,-0.597911,0.349594,0.123428,0.07633999999999999
372,3.72,-0.470355,0.33468200000000004,-0.464362,0.342133,0.060577,0.07633999999999999
373,3.73,-0.320469,0.5614899999999999,-0.366652,0.32615700000000003,-0.015059999999999999,0.060364
374,3.74,-0.188813,0.9061809999999999,-0.175858,0.29953,-0.049149,0.035858
375,3.75,-0.15551800000000002,1.216394,0.07068300000000001,0.248398,-0.007599000000000002,0.0070950000000000015
376,3.76,-0.18964,1.436957,0.3728400000000001,0.19406099999999998,0.086136,-0.016342
377,3.77,-0.254807,1.645152,0.934623,0.13121,0.23101799999999997,-0.029113999999999998
378,3.78,-0.340388,1.8396240000000001,1.467258,0.08540299999999999,0.365234,-0.033386
379,3.79,-0.49996,1.878223,2.080458,0.096069,0.411041,-0.021667
380,3.8,-0.6149180000000001,1.7788680000000001,2.501634,0.141876,0.325821,-0.009949
381,3.81,-0.616816,1.550972,2.543536,0.22282399999999997,0.134079,-0.013138
382,3.82,-0.530043,1.372333,2.465878,0.297394,-0.135437,-0.020599
383,3.83,-0.17171100000000006,1.3402379999999998,2.1192189999999997,0.350662,-0.379379,-0.051483
384,3.84,0.148371,1.456108,1.59581,0.36557,-0.614807,-0.11114500000000001
385,3.85,0.581918,1.705338,0.951354,0.336807,-0.810806,-0.205948
386,3.86,0.77736,1.872184,0.402486,0.273956,-0.91095,-0.314606
387,3.87,0.8542690000000001,1.91326,-0.07717400000000002,0.152527,-0.873657,-0.398758
388,3.88,0.7512300000000001,1.957928,-0.231742,-0.003005999999999995,-0.682983,-0.437119
389,3.89,0.453823,1.818184,0.01988300000000001,-0.162796,-0.355942,-0.434982
390,3.9,-0.13185500000000006,1.2814290000000002,0.626292,-0.282104,0.007309000000000038,-0.408356
391,3.91,-0.465646,0.637836,1.2709549999999998,-0.308731,0.23315400000000006,-0.37001
392,3.92,-0.520068,0.33429899999999996,1.8001029999999998,-0.207535,0.308777,-0.334854
393,3.93,-0.512845,-0.10061199999999998,1.823564,-0.008331000000000005,0.24913000000000002,-0.311417
394,3.94,-0.35262,-0.48348800000000003,1.3755979999999999,0.23349,0.035004000000000014,-0.283722
395,3.95,0.038241000000000004,-0.49500299999999997,0.501487,0.446533,-0.225983,-0.252823
396,3.96,0.620134,-0.275971,-0.426828,0.540283,-0.361267,-0.22938499999999998
397,3.97,1.0714549999999998,-0.129772,-1.2295,0.499802,-0.314392,-0.21659899999999999
398,3.98,1.309968,-0.016684000000000004,-1.672736,0.366638,-0.170593,-0.204895
399,3.99,1.323992,-0.130893,-1.8645759999999998,0.19300799999999999,-0.01506000000000002,-0.18038900000000002
400,4.0,1.219142,-0.222536,-1.634148,0.010849,0.151123,-0.154816
401,4.01,0.9834629999999999,-0.37911500000000004,-1.086642,-0.150009,0.318375,-0.11753800000000002
402,4.02,0.629386,-0.588138,-0.597639,-0.246948,0.391876,-0.074921
403,4.03,0.2805810000000001,-0.8923540000000001,-0.178573,-0.29489099999999996,0.371628,-0.025925
404,4.04,0.088388,-1.1446290000000001,0.077677,-0.317261,0.287476,0.020950000000000003
405,4.05,-0.05784000000000002,-1.464321,0.228175,-0.327911,0.171356,0.071014
406,4.06,-0.10526300000000001,-1.814207,0.23736500000000002,-0.340698,0.036072000000000014,0.10403399999999999
407,4.07,-0.071886,-2.045012,0.171515,-0.346024,-0.12051400000000001,0.12107799999999999
408,4.08,0.049927,-2.2169689999999997,0.05789,-0.335373,-0.260071,0.111496
409,4.09,0.190666,-2.4233130000000003,-0.110901,-0.30128499999999997,-0.364471,0.071014
410,4.1,0.22323400000000002,-2.429188,-0.258631,-0.237366,-0.429443,0.010300000000000005
411,4.11,0.245329,-2.392371,-0.31957399999999997,-0.155334,-0.404953,-0.063202
412,4.12,0.201449,-2.168873,-0.403018,-0.048813,-0.325058,-0.12925699999999998
413,4.13,0.184398,-1.904713,-0.50093,0.08860799999999999,-0.24409499999999998,-0.184647
414,4.14,0.16556400000000002,-1.6859099999999998,-0.680656,0.228149,-0.14502,-0.21234099999999997
415,4.15,0.120117,-1.4683959999999998,-0.8959530000000001,0.349594,-0.038498000000000004,-0.21234099999999997
416,4.16,0.083596,-1.312629,-1.0916709999999998,0.42202799999999996,0.049927,-0.184647
417,4.17,0.062811,-1.213098,-1.353652,0.45078999999999997,0.073364,-0.13351400000000002
418,4.18,0.145728,-1.117076,-1.5070729999999999,0.43481400000000003,0.044601,-0.06427000000000001
419,4.19,0.214297,-1.104067,-1.568762,0.377289,0.012634,0.006042000000000002
420,4.2,0.46280600000000005,-0.969299,-1.586563,0.289948,-0.023575,0.064621
421,4.21,0.688886,-0.848248,-1.526964,0.185547,-0.08430499999999999,0.10935999999999998
422,4.22,0.899028,-0.655768,-1.3031139999999999,0.097122,-0.15141300000000002,0.130676
423,4.23,1.087966,-0.45547600000000005,-1.019292,0.028946,-0.22384600000000002,0.12854000000000002
424,4.24,1.09569,-0.24064699999999997,-0.714619,-0.005142,-0.26965300000000003,0.10723900000000001
425,4.25,1.06722,-0.081071,-0.33465100000000003,-0.013656999999999999,-0.27179000000000003,0.084869
426,4.26,1.0541770000000001,0.154476,0.117729,0.008713,-0.202545,0.064621
427,4.27,0.947191,0.477562,0.550768,0.063034,-0.08963,0.044388
428,4.28,0.907933,0.65285,0.8217409999999999,0.126953,-0.006531000000000002,0.051834000000000005
429,4.29,0.9146059999999999,0.8993459999999999,0.9055110000000001,0.19406099999999998,0.025421,0.063553
430,4.3,0.9935430000000001,1.04255,0.967873,0.220703,0.032882999999999996,0.056107000000000004
431,4.31,0.9749120000000001,1.136361,1.015967,0.186615,0.065903,0.04332
432,4.32,0.978867,1.2580799999999999,1.065632,0.130157,0.074417,0.028412
433,4.33,0.778987,1.229863,1.1666729999999998,0.069427,0.043532999999999995,0.002838
434,4.34,0.6340720000000001,1.18859,1.266947,0.0044560000000000025,-0.007598999999999998,-0.020599
435,4.35,0.48953100000000005,1.191751,1.363091,-0.046676999999999996,-0.059799,-0.033386
436,4.36,0.440564,1.2176360000000002,1.575172,-0.08609,-0.104538,-0.045105
437,4.37,0.531949,1.3764100000000001,1.474726,-0.092484,-0.20680199999999999,-0.071732
438,4.38,0.48121400000000003,1.332156,1.435792,-0.081833,-0.300552,-0.137772
439,4.39,0.304095,1.32026,1.2198870000000002,-0.095688,-0.273926,-0.18145799999999998
440,4.4,0.08646000000000001,1.481934,1.049065,-0.129776,-0.212128,-0.202759
441,4.41,-0.29604400000000003,1.4239959999999998,1.026982,-0.20541399999999999,-0.067261,-0.183578
442,4.42,-0.717463,1.348617,1.1464020000000001,-0.30661,0.151123,-0.127121
443,4.43,-1.066998,1.003934,1.5157040000000002,-0.39502,0.34179699999999996,-0.03125
444,4.44,-1.148764,0.642757,1.7756049999999999,-0.442963,0.383347,0.060364
445,4.45,-1.102425,0.313062,2.0820540000000003,-0.470657,0.276825,0.10723900000000001
446,4.46,-1.109328,-0.06750799999999997,2.341038,-0.464264,0.139404,0.114685
447,4.47,-1.026346,-0.43105200000000005,2.391443,-0.401413,-0.042755,0.094452
448,4.48,-0.932441,-0.587316,2.279116,-0.308731,-0.21958899999999998,0.053970000000000004
449,4.49,-0.815412,-0.7014090000000001,1.9840220000000002,-0.21286,-0.32611100000000004,-0.012070000000000004
450,4.5,-0.8385610000000001,-0.781796,1.597085,-0.12338299999999999,-0.327179,-0.075989
451,4.51,-0.9733780000000001,-0.831779,1.203508,-0.042419,-0.25154099999999996,-0.11221300000000001
452,4.52,-1.0938219999999998,-0.9198209999999999,0.7937029999999999,0.025757,-0.160995,-0.107956
453,4.53,-1.098307,-1.059985,0.332524,0.075821,-0.10241700000000001,-0.067474
454,4.54,-1.003433,-1.179463,-0.148299,0.09819,-0.06300399999999999,-0.013138
455,4.55,-0.828584,-1.227514,-0.5026609999999999,0.090744,-0.033173,0.028412
456,4.56,-0.7442310000000001,-1.348743,-0.8649530000000001,0.063034,-0.031036,0.0625
457,4.57,-0.696708,-1.378374,-1.132846,0.007644999999999998,-0.016128999999999998,0.085922
458,4.58,-0.709762,-1.421802,-1.18379,-0.062668,0.005188,0.12107799999999999
459,4.59,-0.816311,-1.444097,-1.222775,-0.12338299999999999,0.008376999999999999,0.16581700000000002
460,4.6,-0.846233,-1.48502,-1.113125,-0.17877200000000001,0.032882999999999996,0.22229000000000002
461,4.61,-0.8280280000000001,-1.52857,-0.8900129999999999,-0.21606399999999998,0.064835,0.29151900000000003
462,4.62,-0.786961,-1.652484,-0.64905,-0.202209,0.061646000000000006,0.351181
463,4.63,-0.6973600000000001,-1.753098,-0.44136000000000003,-0.145752,0.033936,0.399124
464,4.64,-0.6502,-1.7024549999999998,-0.362688,-0.053070000000000006,-0.00015300000000000383,0.430008
465,4.65,-0.43429799999999996,-1.7520080000000002,-0.48002,0.059845,-0.068329,0.445984
466,4.66,-0.192939,-1.6481830000000002,-0.7051069999999999,0.163177,-0.13436900000000002,0.444931
467,4.67,-0.0001900000000000027,-1.414083,-0.97909,0.231354,-0.166321,0.407639
468,4.68,-0.015769000000000002,-1.235528,-1.2764360000000001,0.262238,-0.168457,0.358643
469,4.69,-0.124048,-1.069366,-1.472204,0.238815,-0.124786,0.309631
470,4.7,-0.24997800000000006,-0.821233,-1.513932,0.168503,-0.034241,0.268097
471,4.71,-0.42344,-0.59348,-1.231639,0.072632,0.10745199999999999,0.24145500000000003
472,4.72,-0.651317,-0.47761800000000004,-0.778753,-0.009398999999999998,0.24380500000000002,0.22866799999999998
473,4.73,-0.958256,-0.457821,-0.311868,-0.045624,0.29280100000000003,0.22654699999999997
474,4.74,-1.116447,-0.510812,0.11968599999999999,-0.034957999999999996,0.252319,0.231873
475,4.75,-1.174713,-0.48556400000000005,0.44504499999999997,0.018295,0.176682,0.224411
476,4.76,-1.293066,-0.36631199999999997,0.567311,0.09819,0.063766,0.182861
477,4.77,-1.535727,-0.14489100000000002,0.5534279999999999,0.180222,-0.07470700000000001,0.12854000000000002
478,4.78,-1.7409400000000002,0.22913,0.467983,0.23986799999999997,-0.158875,0.09338400000000001
479,4.79,-1.8980540000000001,0.681296,0.26918600000000004,0.298462,-0.182312,0.089127
480,4.8,-1.9226759999999998,1.077458,0.062688,0.330429,-0.107742,0.10403399999999999
481,4.81,-1.755422,1.457794,0.027828,0.321899,0.05631999999999999,0.118958
482,4.82,-1.6119450000000002,1.7693900000000002,-0.0011620000000000033,0.295273,0.23208600000000001,0.126404
483,4.83,-1.62533,1.768444,0.22859699999999997,0.261185,0.381226,0.13172899999999998
484,4.84,-1.7014610000000001,1.797873,0.48316400000000004,0.23561100000000001,0.47921800000000003,0.129608
485,4.85,-1.735646,1.8426799999999999,0.769864,0.23349,0.49733,0.115753
486,4.86,-1.9427830000000001,1.804675,0.9397690000000001,0.23561100000000001,0.495209,0.10298199999999999
487,4.87,-2.095136,1.7762419999999999,1.005205,0.210052,0.494141,0.10935999999999998
488,4.88,-1.9616310000000001,1.8204049999999998,0.9747540000000001,0.173828,0.43022200000000005,0.145584
489,4.89,-1.779188,1.99173,0.8883700000000001,0.140808,0.334351,0.16476400000000002
490,4.9,-1.648875,2.016594,0.759257,0.088608,0.301331,0.16688499999999998
491,4.91,-1.364909,2.1318099999999998,0.57396,0.034270999999999996,0.32263200000000003,0.189255
492,4.92,-1.159519,2.083294,0.392014,-0.040283,0.40571599999999997,0.22334299999999999
493,4.93,-1.017831,1.8789200000000001,0.329723,-0.158539,0.6177060000000001,0.275543
494,4.94,-1.167643,1.333209,0.7372310000000001,-0.337494,0.971375,0.349045
495,4.95,-1.482512,0.589255,1.358654,-0.511139,1.2643280000000001,0.43426499999999996
496,4.96,-1.478102,-0.15526600000000002,2.070088,-0.596359,1.310135,0.525879
497,4.97,-1.090683,-0.657049,2.619169,-0.563339,1.179108,0.58873
498,4.98,-0.600896,-1.0146700000000002,2.74468,-0.41313199999999994,0.908524,0.598328
499,4.99,-0.043628,-1.235372,2.4496689999999997,-0.176651,0.575104,0.56424
500,5.0,0.491964,-1.1705219999999998,1.744155,0.07688900000000001,0.324753,0.498184
501,5.01,0.957411,-0.91596,1.006808,0.244141,0.285339,0.4151
502,5.02,1.135407,-0.584123,0.325933,0.317642,0.449402,0.33200100000000005
503,5.03,1.087184,-0.33922399999999997,-0.122018,0.312317,0.692276,0.27021799999999996
504,5.04,0.8415790000000001,-0.208693,-0.218763,0.26650999999999997,0.9521940000000001,0.24784899999999999
505,5.05,0.539324,-0.074882,-0.125859,0.200455,1.2227780000000001,0.264893
506,5.06,0.06437999999999999,-0.206175,0.10854100000000001,0.128021,1.417725,0.327744
507,5.07,-0.266362,-0.447883,0.367108,0.072632,1.490158,0.420425
508,5.08,-0.485888,-0.6773239999999999,0.637938,0.034270999999999996,1.479507,0.5141600000000001
509,5.09,-0.689754,-1.085826,0.793575,0.0215,1.399612,0.602585
510,5.1,-0.854722,-1.516343,0.775313,0.026825,1.241959,0.687805
511,5.11,-0.765195,-1.8408189999999998,0.587667,0.051315,1.022507,0.753845
512,5.12,-0.45451899999999995,-1.923893,0.22198800000000002,0.071564,0.781754,0.794327
513,5.13,-0.07181800000000002,-1.95983,-0.343421,0.0737,0.595337,0.807114
514,5.14,0.24791300000000002,-2.033879,-0.810002,0.050262,0.490936,0.796463
515,5.15,0.557724,-1.930827,-1.176775,0.023621,0.469635,0.764496
516,5.16,0.799513,-1.749685,-1.317755,0.009781,0.532486,0.719757
517,5.17,0.8933629999999999,-1.697976,-1.4140700000000002,0.019363,0.632614,0.686737
518,5.18,0.9957299999999999,-1.6312149999999999,-1.331641,0.054520000000000006,0.737015,0.655853
519,5.19,0.976565,-1.625932,-1.109989,0.10672000000000001,0.854202,0.622818
520,5.2,0.929542,-1.536042,-0.9110889999999999,0.179153,0.9521940000000001,0.5844729999999999
521,5.21,0.812317,-1.4024780000000001,-0.79001,0.259048,0.9990690000000001,0.545059
522,5.22,0.635937,-1.282448,-0.688265,0.329361,1.0161129999999998,0.513107
523,5.23,0.466671,-1.212159,-0.7605810000000001,0.37303200000000003,1.02037,0.50351
524,5.24,0.357338,-1.09018,-0.847928,0.391144,0.994812,0.524826
525,5.25,0.453237,-1.006251,-0.976719,0.3741,0.9521940000000001,0.554642
526,5.26,0.559787,-0.824408,-1.082087,0.33361799999999997,0.9255680000000001,0.593002
527,5.27,0.6824279999999999,-0.697671,-1.117776,0.26969899999999997,0.901062,0.6260220000000001
528,5.28,0.859318,-0.486167,-0.9346709999999999,0.17276,0.934097,0.6633
529,5.29,0.9555299999999999,-0.25169400000000003,-0.613665,0.088608,0.9990690000000001,0.704849
530,5.3,0.947184,-0.195943,-0.266302,0.030014,1.032089,0.744263
531,5.31,0.926212,-0.057919000000000005,0.062666,-0.023239,1.0289,0.787933
532,5.32,1.020265,0.08741900000000001,0.320579,-0.08929400000000001,0.970306,0.8262940000000001
533,5.33,1.091192,0.283839,0.628197,-0.14788800000000002,0.871246,0.836945
534,5.34,1.1579469999999998,0.516646,0.944009,-0.194748,0.751938,0.8380129999999999
535,5.35,1.1608120000000002,0.643638,1.218024,-0.21073899999999998,0.6177060000000001,0.834808
536,5.36,1.136492,0.8072,1.407031,-0.193695,0.48881499999999994,0.8220209999999999
537,5.37,1.212391,0.982395,1.4099979999999999,-0.168121,0.413177,0.810303
538,5.38,1.149823,1.060531,1.5166979999999999,-0.157471,0.425964,0.787933
539,5.39,1.096131,1.094423,1.612354,-0.158539,0.5367430000000001,0.778351
540,5.4,1.127783,1.34155,1.701429,-0.162796,0.682693,0.74852
541,5.41,1.015773,1.4636,1.8337869999999998,-0.156403,0.792404,0.7176359999999999
542,5.42,0.908602,1.416858,1.9860849999999999,-0.14256300000000002,0.8840180000000001,0.676086
543,5.43,0.790622,1.449187,1.9829430000000001,-0.109528,0.95752,0.643066
544,5.44,0.6725909999999999,1.412809,1.935386,-0.082901,1.012924,0.608978
545,5.45,0.20083199999999998,1.230773,1.9484869999999999,-0.070114,1.036362,0.568497
546,5.46,-0.38685,0.8347379999999999,1.867525,-0.091415,1.0161129999999998,0.550385
547,5.47,-0.964767,0.319884,1.888296,-0.135101,0.861649,0.590866
548,5.48,-0.991325,0.148813,1.740258,-0.156403,0.663513,0.6185609999999999
549,5.49,-0.9321139999999999,0.064432,1.562946,-0.15321400000000002,0.423828,0.621765
550,5.5,-0.770363,0.0021880000000000024,1.247598,-0.119125,0.197998,0.58873
551,5.51,-0.491675,0.088014,0.8774059999999999,-0.06904600000000001,0.075485,0.538666
552,5.52,-0.228944,0.215571,0.397042,-0.007262999999999999,0.071228,0.48220799999999997
553,5.53,-0.167218,0.197883,-0.07316700000000001,0.045989999999999996,0.189468,0.42575100000000005
554,5.54,-0.21439499999999997,0.156523,-0.41189799999999993,0.059845,0.40892,0.377808
555,5.55,-0.34841300000000003,0.07143200000000001,-0.699979,0.044937,0.658188,0.33520500000000003
556,5.56,-0.613901,-0.053602,-0.848327,-0.021118000000000005,0.892548,0.301117
557,5.57,-0.8637239999999999,-0.1962,-0.745575,-0.126572,1.083221,0.28833000000000003
558,5.58,-1.129817,-0.346481,-0.49902299999999994,-0.246948,1.213196,0.29151900000000003
559,5.59,-1.3616700000000002,-0.7086600000000001,-0.29286100000000004,-0.34176599999999996,1.233429,0.293655
560,5.6,-1.582394,-0.928882,-0.024053999999999992,-0.408875,1.147141,0.298981
561,5.61,-1.6883650000000001,-1.146164,0.026508999999999998,-0.450424,0.9660489999999999,0.303238
562,5.62,-1.686927,-1.292316,-0.001576000000000001,-0.464264,0.700806,0.32135
563,5.63,-1.456641,-1.3421530000000002,-0.207035,-0.439758,0.404648,0.34692399999999995
564,5.64,-1.118068,-1.3007950000000001,-0.556229,-0.39502,0.146866,0.356506
565,5.65,-0.774506,-1.2983959999999999,-1.002314,-0.34176599999999996,-0.004409999999999997,0.356506
566,5.66,-0.49040600000000006,-1.254823,-1.425181,-0.291687,-0.042755,0.343719
567,5.67,-0.143583,-1.210261,-1.665018,-0.24908400000000003,0.014771000000000001,0.33413699999999996
568,5.68,0.129723,-1.123154,-1.730217,-0.172379,0.109573,0.30856300000000003
569,5.69,0.333619,-1.166841,-1.563747,-0.073318,0.250198,0.277679
570,5.7,0.462983,-1.091301,-1.4446430000000001,0.072632,0.396133,0.22866799999999998
571,5.71,0.391194,-1.020801,-1.391526,0.23986799999999997,0.495209,0.15623499999999998
572,5.72,0.262034,-0.884022,-1.352965,0.400726,0.5655060000000001,0.100845
573,5.73,0.068412,-0.730495,-1.488491,0.534958,0.598526,0.081665
574,5.74,-0.059601999999999995,-0.6042810000000001,-1.620195,0.61911,0.588943,0.083801
575,5.75,-0.081315,-0.493393,-1.853288,0.649994,0.555923,0.113632
576,5.76,-0.009159000000000004,-0.32156599999999996,-2.090955,0.627625,0.519699,0.163696
577,5.77,0.049551,-0.172078,-2.2307360000000003,0.559448,0.47496000000000005,0.22229000000000002
578,5.78,0.17061600000000002,-0.074085,-2.21884,0.46145600000000003,0.423828,0.271286
579,5.79,0.368262,0.22523800000000002,-2.0633619999999997,0.352798,0.393997,0.30004899999999995
580,5.8,0.43391499999999994,0.516223,-1.7385549999999999,0.248398,0.383347,0.295792
581,5.81,0.48839399999999994,0.757401,-1.303555,0.164246,0.37695300000000004,0.284073
582,5.82,0.509905,1.0351139999999999,-0.794976,0.11950699999999999,0.338608,0.27021799999999996
583,5.83,0.491679,1.250838,-0.20282100000000006,0.113113,0.296005,0.25531
584,5.84,0.337548,1.510893,0.186989,0.14613299999999999,0.265106,0.24465900000000002
585,5.85,0.29304,1.637715,0.456284,0.199402,0.211838,0.24359099999999997
586,5.86,0.33913899999999997,1.665345,0.6348699999999999,0.231354,0.191605,0.24678000000000003
587,5.87,0.418519,1.8922130000000001,0.665931,0.227097,0.22143600000000002,0.231873
588,5.88,0.367424,1.8543150000000002,0.807719,0.175964,0.223557,0.197784
589,5.89,0.224438,1.7555779999999999,0.9456629999999999,0.093933,0.211838,0.17541500000000002
590,5.9,0.232711,1.737226,1.233352,0.007644999999999998,0.160706,0.15623499999999998
591,5.91,0.340482,1.855651,1.4753399999999999,-0.04774500000000001,0.061646000000000006,0.13172899999999998
592,5.92,0.553262,1.92805,1.6918009999999999,-0.076508,-0.10560599999999999,0.111496
593,5.93,0.8282,2.1053990000000002,1.6617939999999998,-0.067993,-0.32824699999999996,0.06994600000000001
594,5.94,1.0415590000000001,2.164755,1.404534,-0.034957999999999996,-0.540237,0.007094999999999997
595,5.95,1.275449,2.222795,1.019918,-0.010468,-0.613739,-0.056808000000000004
596,5.96,1.378075,2.160708,0.733862,-0.026443,-0.515732,-0.11114500000000001
597,5.97,1.015965,1.857922,0.6032850000000001,-0.093552,-0.272858,-0.167603
598,5.98,0.374871,1.312314,0.895948,-0.18623399999999998,0.043533000000000016,-0.196365
599,5.99,-0.08859299999999999,0.90354,1.524934,-0.25547800000000004,0.329025,-0.175064
600,6.0,-0.29872,0.583533,1.969589,-0.25547800000000004,0.461121,-0.11860699999999999
601,6.01,-0.293331,0.121928,2.239176,-0.20541399999999999,0.387604,-0.05361900000000001
602,6.02,-0.100698,-0.237571,2.33518,-0.12017799999999998,0.20118699999999998,-0.026993
603,6.03,0.14067600000000002,-0.448912,2.004804,-0.02218599999999999,-0.034240999999999994,-0.045105
604,6.04,0.503883,-0.578276,1.5319690000000001,0.051315,-0.25900300000000004,-0.09196499999999999
605,6.05,0.79513,-0.50565,1.0020120000000001,0.08540299999999999,-0.368729,-0.161209
606,6.06,0.787377,-0.571144,0.511465,0.069427,-0.355942,-0.220871
607,6.07,0.754598,-0.648724,0.179634,0.023621,-0.26326,-0.262405
608,6.08,0.45588199999999995,-0.7932600000000001,0.00449100000000001,-0.036026,-0.14608800000000002,-0.291168
609,6.09,0.138128,-0.9249719999999999,-0.032411,-0.095688,-0.050217000000000005,-0.29863
610,6.1,-0.168216,-1.091708,-0.005691999999999999,-0.141495,0.001984000000000003,-0.281586
611,6.11,-0.363712,-1.278808,-0.052098,-0.168121,-0.0012049999999999995,-0.240036
612,6.12,-0.388299,-1.5119200000000002,-0.12247100000000001,-0.173447,-0.067261,-0.189972
613,6.13,-0.304556,-1.718762,-0.288653,-0.169189,-0.183365,-0.151627
614,6.14,-0.053372,-1.776616,-0.5476810000000001,-0.164932,-0.30480999999999997,-0.12925699999999998
615,6.15,0.167234,-1.8402169999999998,-0.749097,-0.15426600000000001,-0.394287,-0.123932
616,6.16,0.395255,-1.8063799999999999,-1.049318,-0.118057,-0.46141099999999996,-0.151627
617,6.17,0.421653,-1.8238849999999998,-1.227524,-0.07543899999999999,-0.43797299999999995,-0.164413
618,6.18,0.412505,-1.800675,-1.373833,-0.021118,-0.364471,-0.166534
619,6.19,0.460567,-1.7868169999999999,-1.392672,0.049194,-0.250488,-0.161209
620,6.2,0.445079,-1.788735,-1.3937190000000002,0.126953,-0.10560599999999999,-0.148422
621,6.21,0.48944799999999994,-1.752889,-1.263108,0.207916,0.036072,-0.131378
622,6.22,0.5221899999999999,-1.7140689999999998,-1.103061,0.293137,0.14366099999999998,-0.110077
623,6.23,0.570813,-1.6583400000000001,-0.9933280000000001,0.369843,0.211838,-0.090897
624,6.24,0.651995,-1.6559560000000002,-0.8963770000000001,0.431625,0.233154,-0.071732
625,6.25,0.717803,-1.5594629999999998,-0.923629,0.460388,0.227814,-0.067474
626,6.26,0.71049,-1.344985,-0.948206,0.446533,0.197998,-0.08345
627,6.27,0.593808,-1.102451,-0.925228,0.412445,0.15751600000000002,-0.088776
628,6.28,0.362595,-0.8759120000000001,-0.9468469999999999,0.368774,0.109573,-0.069595
629,6.29,0.343132,-0.646054,-0.7683220000000001,0.320831,0.08401499999999999,-0.019531
630,6.3,0.327466,-0.441292,-0.5368029999999999,0.283554,0.08934,0.05396999999999999
631,6.31,0.383936,-0.336331,-0.443518,0.271835,0.090408,0.123215
632,6.32,0.448351,-0.21149099999999998,-0.240686,0.248398,0.12449600000000001,0.193527
633,6.33,0.716065,0.03406600000000001,-0.01564299999999999,0.207916,0.19586199999999998,0.251053
634,6.34,0.928494,0.222525,0.252382,0.140808,0.252319,0.2798
635,6.35,1.03031,0.401858,0.60949,0.069427,0.260849,0.281937
636,6.36,1.17391,0.6496149999999999,1.251898,0.003387,0.186279,0.256378
637,6.37,1.164066,0.758135,1.467227,-0.0008700000000000001,0.095734,0.21162399999999998
638,6.38,1.081726,0.9324469999999999,1.598166,0.003387,0.033936,0.15623499999999998
639,6.39,0.9569540000000001,1.093848,1.691041,0.000183,0.041397,0.110428
640,6.4,0.7552939999999999,1.231018,1.6729490000000002,0.0012510000000000006,0.055251999999999996,0.065689
641,6.41,0.799836,1.624096,1.5746129999999998,0.012969999999999999,0.042464999999999996,0.032669
642,6.42,0.72639,1.81368,1.393345,0.005524,0.060577,0.002838
643,6.43,0.633047,1.8195130000000002,1.0741690000000002,-0.023239,0.112778,-0.0046229999999999995
644,6.44,0.565605,1.946964,0.724909,-0.085037,0.16603099999999998,0.0017700000000000003
645,6.45,0.413083,1.902671,0.47330200000000006,-0.209671,0.258713,0.022018
646,6.46,0.16237800000000002,1.489477,0.30735,-0.389694,0.343933,0.047577
647,6.47,-0.266838,0.847706,0.432579,-0.610214,0.38867199999999996,0.06994600000000001
648,6.48,-0.622433,0.265254,0.763067,-0.829651,0.317307,0.068878
649,6.49,-0.8118569999999999,0.017558000000000004,1.25196,-0.995834,0.102127,0.045456
650,6.5,-0.8628100000000001,-0.020709,1.712861,-1.061874,-0.21000700000000003,-0.0056760000000000005
651,6.51,-0.9617829999999999,-0.075894,2.008596,-1.0288540000000002,-0.502945,-0.069595
652,6.52,-1.0020879999999999,0.06408999999999998,2.111636,-0.9106139999999999,-0.691498,-0.11328099999999999
653,6.53,-0.895998,0.21001,1.9026060000000002,-0.7146,-0.7756649999999999,-0.137772
654,6.54,-0.7853289999999999,0.36501300000000003,1.517399,-0.484512,-0.755417,-0.14949
655,6.55,-0.715843,0.445078,0.9774790000000001,-0.27784699999999996,-0.5945590000000001,-0.15802
656,6.56,-0.816936,0.446142,0.408315,-0.137222,-0.33570900000000004,-0.162277
657,6.57,-1.0626950000000002,0.343172,-0.03530700000000003,-0.080765,-0.069382,-0.14949
658,6.58,-1.270484,0.20901799999999998,-0.28079899999999997,-0.112732,0.145798,-0.121796
659,6.59,-1.5048219999999999,0.014561000000000003,-0.217819,-0.194748,0.281082,-0.068527
660,6.6,-1.640384,-0.281024,0.08746400000000001,-0.288498,0.318375,0.007094999999999997
661,6.61,-1.81352,-0.525812,0.32258000000000003,-0.355606,0.233154,0.065689
662,6.62,-1.903641,-0.806034,0.538617,-0.373718,0.03927600000000002,0.099777
663,6.63,-2.001356,-1.1318700000000002,0.6118640000000001,-0.333237,-0.17485,0.123215
664,6.64,-1.952394,-1.29388,0.417687,-0.239502,-0.37512199999999996,0.142395
665,6.65,-1.664063,-1.267474,0.073496,-0.10527,-0.50827,0.169022
666,6.66,-1.286917,-1.239394,-0.369305,0.020432,-0.488037,0.197784
667,6.67,-0.827069,-1.238872,-0.882323,0.12055999999999999,-0.380447,0.20310999999999998
668,6.68,-0.43591499999999994,-1.247076,-1.319675,0.208984,-0.272858,0.176483
669,6.69,-0.08941399999999998,-1.2311379999999998,-1.6526,0.27928200000000003,-0.171646,0.123215
670,6.7,0.141913,-1.192922,-1.9317790000000001,0.337875,-0.07791100000000001,0.059296
671,6.71,0.299097,-1.139263,-2.048596,0.38156100000000004,-0.0033419999999999978,-0.018463000000000004
672,6.72,0.331239,-1.156955,-2.039273,0.408188,0.033936,-0.090897
673,6.73,0.190746,-1.048807,-2.1093509999999998,0.42416400000000004,0.042464999999999996,-0.166534
674,6.74,0.087186,-0.940408,-2.02388,0.41137700000000005,0.040329000000000004,-0.226196
675,6.75,-0.03961499999999999,-0.793227,-2.003952,0.401794,0.032882999999999996,-0.269867
676,6.76,-0.196822,-0.696611,-1.90093,0.39326500000000003,0.035004,-0.283722
677,6.77,-0.31364200000000003,-0.501344,-1.8463720000000001,0.36557,0.064835,-0.273071
678,6.78,-0.350488,-0.382432,-1.7013880000000001,0.342133,0.093597,-0.22938499999999998
679,6.79,-0.35337199999999996,-0.350195,-1.5367790000000001,0.322968,0.093597,-0.16867100000000002
680,6.8,-0.213567,-0.307798,-1.478834,0.31657399999999997,0.047791,-0.11221300000000001
681,6.81,0.059876,-0.16381600000000002,-1.385498,0.294205,-0.007598999999999998,-0.078125
682,6.82,0.195234,-0.004268000000000008,-1.32649,0.265442,-0.05661,-0.068527
683,6.83,0.336602,0.16478399999999999,-1.107697,0.240936,-0.11199999999999999,-0.080246
684,6.84,0.339946,0.426084,-0.905723,0.23561100000000001,-0.15567,-0.104752
685,6.85,0.30135700000000004,0.741239,-0.671511,0.23349,-0.152481,-0.11433399999999999
686,6.86,0.21468299999999998,1.088992,-0.320275,0.223892,-0.08004800000000001,-0.08984400000000001
687,6.87,0.11897200000000001,1.374501,0.029925000000000007,0.227097,-0.017197,-0.045105
688,6.88,0.089136,1.5437,0.307127,0.248398,-0.009734999999999999,0.011368000000000001
689,6.89,0.108475,1.614121,0.47535600000000006,0.264374,-0.012924000000000001,0.058227999999999995
690,6.9,0.22321100000000002,1.686291,0.6635260000000001,0.259048,-0.0033419999999999995,0.098709
691,6.91,0.210499,1.58892,0.700741,0.243073,-0.023575,0.113632
692,6.92,0.188476,1.6182530000000002,0.739661,0.19300799999999999,-0.068329,0.108307
693,6.93,0.117173,1.512953,0.798851,0.100327,-0.129044,0.091263
694,6.94,0.039162,1.4917639999999999,0.931268,0.001251000000000002,-0.212128,0.063553
695,6.95,0.087241,1.569685,1.062325,-0.074371,-0.359146,0.026276
696,6.96,0.42838999999999994,1.8063810000000002,0.994554,-0.11166400000000001,-0.580719,-0.013138
697,6.97,0.777021,2.0184509999999998,0.8957309999999999,-0.1138,-0.763947,-0.0728
698,6.98,0.90969,1.990933,0.719284,-0.10527,-0.777786,-0.156952
699,6.99,0.9538719999999999,1.9091220000000002,0.595119,-0.09887699999999999,-0.6414340000000001,-0.21340900000000002
700,7.0,0.9465790000000001,1.8399029999999998,0.559719,-0.104202,-0.41346700000000003,-0.240036
701,7.01,0.64987,1.480223,0.649021,-0.140427,-0.133301,-0.264542
702,7.02,0.284981,0.925585,0.9287920000000001,-0.19902,0.12129200000000001,-0.278397
703,7.03,0.01543699999999999,0.565358,1.269067,-0.242691,0.252319,-0.27626
704,7.04,-0.17891600000000002,0.268721,1.480888,-0.253342,0.23420700000000003,-0.275192
705,7.05,-0.173394,-0.049573999999999986,1.668481,-0.225647,0.112778,-0.286911
706,7.06,-0.130351,-0.146032,1.609976,-0.150009,-0.052338,-0.313538
707,7.07,-0.010958999999999995,-0.254537,1.210109,-0.073318,-0.22705100000000003,-0.325256
708,7.08,0.156059,-0.240889,0.702494,-0.045624,-0.322922,-0.320999
709,7.09,0.340998,-0.277376,0.234698,-0.070114,-0.327179,-0.31567399999999995
710,7.1,0.344929,-0.30498200000000003,-0.027564,-0.13829,-0.24941999999999998,-0.319931
711,7.11,0.180554,-0.46014799999999995,-0.038367,-0.243759,-0.10347,-0.325256
712,7.12,-0.23482400000000006,-0.700624,0.24034499999999998,-0.346024,0.03181500000000001,-0.326324
713,7.13,-0.669421,-0.9475540000000001,0.48585200000000006,-0.404617,0.050980000000000004,-0.316742
714,7.14,-0.955859,-1.247736,0.567647,-0.415268,-0.032104,-0.289047
715,7.15,-1.152433,-1.456779,0.583584,-0.385437,-0.162064,-0.24110399999999998
716,7.16,-1.2746389999999999,-1.677655,0.44354799999999994,-0.316193,-0.325058,-0.200623
717,7.17,-1.1338030000000001,-1.781884,0.042314999999999985,-0.207535,-0.515732,-0.165466
718,7.18,-0.892689,-1.8112259999999998,-0.469491,-0.085037,-0.669128,-0.13458299999999998
719,7.19,-0.5717949999999999,-1.78135,-1.047665,0.016173999999999994,-0.692566,-0.10688800000000001
720,7.2,-0.347213,-1.8083580000000001,-1.582845,0.079025,-0.6350399999999999,-0.086639
721,7.21,-0.190396,-1.7716779999999999,-1.936432,0.104584,-0.5476989999999999,-0.070663
722,7.22,-0.02781500000000001,-1.75948,-2.094908,0.10778800000000001,-0.44755600000000006,-0.063202
723,7.23,0.093051,-1.7196759999999998,-1.910539,0.093933,-0.303741,-0.062149
724,7.24,0.12251,-1.667268,-1.609342,0.10884100000000001,-0.154602,-0.06640599999999999
725,7.25,0.17809,-1.6961220000000001,-1.3740700000000001,0.170639,-0.044891,-0.065338
726,7.26,0.23337600000000003,-1.726664,-1.1286100000000001,0.242004,0.064835,-0.067474
727,7.27,0.321907,-1.621517,-0.8771200000000001,0.315506,0.167099,-0.069595
728,7.28,0.224052,-1.623809,-0.68376,0.38049299999999997,0.24592600000000003,-0.062149
729,7.29,0.10225199999999998,-1.51389,-0.557687,0.428421,0.28428600000000004,-0.048294
730,7.3,0.069471,-1.252768,-0.550079,0.451859,0.270432,-0.033386
731,7.31,0.037755000000000004,-1.027272,-0.6040220000000001,0.44334399999999996,0.227814,-0.009949
732,7.32,-0.009003,-0.81717,-0.7699600000000001,0.402863,0.16284200000000001,0.037994
733,7.33,0.131076,-0.542231,-0.835991,0.31871,0.099991,0.11256400000000001
734,7.34,0.388119,-0.278966,-0.896142,0.204727,0.074417,0.192459
735,7.35,0.5971069999999999,-0.17137,-0.807955,0.080078,0.060577,0.24998499999999998
736,7.36,0.841759,-0.121394,-0.499432,-0.044556,0.07016,0.28833000000000003
737,7.37,1.033452,-0.005895999999999999,-0.091753,-0.135101,0.082947,0.301117
738,7.38,1.21897,0.15081,0.329048,-0.170258,0.072296,0.271286
739,7.39,1.23445,0.413372,0.7839689999999999,-0.169189,0.095734,0.220154
740,7.4,1.160507,0.652026,1.100144,-0.129776,0.137268,0.154114
741,7.41,0.912206,0.8997959999999999,1.355768,-0.054138,0.178818,0.096588
742,7.42,0.6353310000000001,1.109383,1.538594,0.011901999999999996,0.23953200000000002,0.058227999999999995
743,7.43,0.432637,1.3346120000000001,1.604198,0.058776999999999996,0.317307,0.042252
744,7.44,0.078851,1.499975,1.614296,0.08647200000000001,0.392929,0.046508999999999995
745,7.45,-0.14082999999999998,1.661036,1.75184,0.072632,0.469635,0.067825
746,7.46,0.022759,2.037804,1.7124259999999998,0.042801,0.461121,0.106171
747,7.47,0.055455,2.296421,1.693489,0.008712999999999999,0.371628,0.11682100000000001
748,7.48,-0.07203899999999999,2.334264,1.6020299999999998,-0.057326999999999996,0.33009299999999997,0.113632
749,7.49,-0.029163999999999995,2.400643,1.454436,-0.129776,0.294937,0.12854000000000002
750,7.5,-0.031380999999999985,2.427149,1.352066,-0.226715,0.297058,0.141327
751,7.51,-0.449107,2.0286049999999998,1.4547219999999998,-0.355606,0.400391,0.139191
752,7.52,-1.129084,1.325785,1.6672930000000001,-0.486633,0.489868,0.176483
753,7.53,-1.446878,0.7406510000000001,1.9213759999999998,-0.568665,0.423828,0.23933400000000002
754,7.54,-1.4070040000000001,0.424321,2.133884,-0.583572,0.211838,0.271286
755,7.55,-1.4096229999999998,0.09819299999999999,2.1163529999999997,-0.534576,-0.06726100000000003,0.258499
756,7.56,-1.294749,-0.078654,1.809134,-0.42059300000000005,-0.35168499999999997,0.21482800000000002
757,7.57,-1.0637940000000001,-0.051147000000000005,1.315091,-0.27359,-0.554077,0.167953
758,7.58,-0.631939,0.052565000000000014,0.647038,-0.120178,-0.589233,0.130676
759,7.59,-0.316961,0.137934,-0.057908000000000015,0.015106,-0.49975600000000003,0.092316
760,7.6,-0.256282,0.09025599999999999,-0.736798,0.09819,-0.29841599999999996,0.037994
761,7.61,-0.272331,0.05177999999999999,-1.1020969999999999,0.095001,0.010512999999999995,-0.014206
762,7.62,-0.419126,-0.081973,-1.214029,0.039612,0.320496,-0.052551
763,7.63,-0.693702,-0.216549,-1.1112879999999998,-0.038162,0.532486,-0.068527
764,7.64,-0.9315969999999999,-0.465131,-0.734232,-0.137222,0.63475,-0.035507
765,7.65,-1.069016,-0.705909,-0.373321,-0.23097199999999998,0.6187739999999999,0.028412
766,7.66,-1.0358129999999999,-0.988764,-0.092603,-0.29808,0.47602799999999995,0.09338400000000001
767,7.67,-0.884242,-1.240846,0.008849,-0.342819,0.24380500000000002,0.162628
768,7.68,-0.375421,-1.62558,-0.152844,-0.365189,-0.204681,0.231873
769,7.69,0.128674,-1.66038,-0.394302,-0.363068,-0.465668,0.22654699999999997
770,7.7,0.584673,-1.69712,-0.73769,-0.328979,-0.642502,0.192459
771,7.71,0.859563,-1.7954720000000002,-1.024933,-0.28743,-0.7202609999999999,0.138123
772,7.72,1.164484,-1.7791700000000001,-1.326242,-0.239502,-0.696823,0.065689
773,7.73,1.4018709999999999,-1.66936,-1.441699,-0.167053,-0.605209,-0.020599000000000003
774,7.74,1.590758,-1.536062,-1.409852,-0.066925,-0.435837,-0.110077
775,7.75,1.684771,-1.427611,-1.247301,0.057709,-0.212128,-0.19422899999999998
776,7.76,1.653658,-1.361141,-1.116272,0.201523,-0.015060000000000004,-0.274124
777,7.77,1.549044,-1.3026149999999999,-1.095281,0.337875,0.079742,-0.3423
778,7.78,1.497771,-1.222229,-1.075232,0.42523199999999994,0.091461,-0.40089400000000003
779,7.79,1.496589,-1.059768,-1.141731,0.464645,0.036072,-0.45095799999999997
780,7.8,1.448731,-0.818555,-1.2123959999999998,0.46145600000000003,-0.069382,-0.49890100000000004
781,7.81,1.267187,-0.594495,-1.23474,0.41458100000000003,-0.202545,-0.540451
782,7.82,1.1314870000000001,-0.35630100000000003,-1.278078,0.346405,-0.364471,-0.545776
783,7.83,1.0245309999999999,-0.167257,-1.313883,0.242004,-0.502945,-0.52446
784,7.84,0.9819180000000001,-0.016835000000000003,-1.207992,0.12055999999999999,-0.623322,-0.494644
785,7.85,0.988635,0.02858,-1.032958,0.0044560000000000025,-0.727722,-0.46267700000000006
786,7.86,1.022749,0.091168,-0.735593,-0.08929399999999997,-0.8172,-0.445633
787,7.87,1.105842,0.07722000000000001,-0.389881,-0.15426600000000001,-0.9024200000000001,-0.461609
788,7.88,1.142141,0.20912600000000003,0.009396999999999987,-0.17877200000000001,-0.964203,-0.5180819999999999
789,7.89,1.069567,0.465646,0.41427200000000003,-0.164932,-0.9844510000000001,-0.590515
790,7.9,0.939896,0.670112,0.755063,-0.095688,-0.997238,-0.6672060000000001
791,7.91,0.7006859999999999,0.921644,0.962327,0.009780999999999998,-1.001495,-0.742844
792,7.92,0.480779,1.223637,1.131045,0.121628,-0.9556879999999999,-0.8078310000000001
793,7.93,0.222415,1.496301,1.158046,0.22921799999999998,-0.884308,-0.846176
794,7.94,0.03880700000000002,1.749065,1.11243,0.315506,-0.828918,-0.867477
795,7.95,-0.13527899999999998,1.848812,0.9791110000000001,0.369843,-0.789505,-0.861084
796,7.96,-0.332809,1.942163,0.8953770000000001,0.376221,-0.762878,-0.8365940000000001
797,7.97,-0.414441,1.9656930000000001,0.775339,0.337875,-0.727722,-0.784393
798,7.98,-0.284529,1.998635,0.734205,0.26969899999999997,-0.726654,-0.713013
799,7.99,0.108365,2.034061,0.6518510000000001,0.19833399999999998,-0.793762,-0.658691
800,8.0,0.310328,1.934093,0.604472,0.117371,-0.8875120000000001,-0.654434
801,8.01,0.500988,1.654836,0.495943,0.015106,-0.9769899999999999,-0.664017
802,8.02,0.747417,1.450679,0.490335,-0.09780900000000001,-1.035583,-0.673599
803,8.03,0.8697459999999999,1.2656180000000001,0.532061,-0.229904,-1.0366520000000001,-0.723679
804,8.04,0.564264,0.755102,0.7519819999999999,-0.373718,-0.950363,-0.795044
805,8.05,0.096429,0.26500300000000004,1.281706,-0.509003,-0.762878,-0.85257
806,8.06,-0.408983,-0.165245,1.938664,-0.561203,-0.6286470000000001,-0.886658
807,8.07,-0.5930439999999999,-0.586821,2.31089,-0.502609,-0.617996,-0.88559
808,8.08,-0.44631899999999997,-0.8214530000000001,2.4369259999999997,-0.353485,-0.717072,-0.8653559999999999
809,8.09,-0.060516000000000014,-1.022382,2.136165,-0.14361600000000002,-0.900299,-0.85257
810,8.1,0.530044,-1.1239350000000001,1.4759520000000002,0.05665599999999999,-1.094177,-0.8536379999999999
811,8.11,1.25684,-0.9878549999999999,0.817333,0.165298,-1.179398,-0.899445
812,8.12,1.6620119999999998,-0.6435930000000001,0.15740099999999999,0.180222,-1.134659,-0.9729459999999999
813,8.13,1.745384,-0.5416270000000001,-0.27265,0.096069,-1.014282,-1.0379180000000001
814,8.14,1.620149,-0.404844,-0.378011,-0.0616,-0.842773,-1.077332
815,8.15,1.3100049999999999,-0.370417,-0.076374,-0.224579,-0.705353,-1.095444
816,8.16,0.9048799999999999,-0.48300299999999996,0.38841,-0.344955,-0.600952,-1.090118
817,8.17,0.49226099999999995,-0.626127,0.8371120000000001,-0.40567,-0.5466310000000001,-1.068817
818,8.18,0.019042000000000003,-0.913911,1.129258,-0.410995,-0.575394,-1.027267
819,8.19,-0.3420770000000001,-1.2466760000000001,1.2581209999999998,-0.36946100000000004,-0.6765899999999999,-0.967621
820,8.2,-0.548593,-1.527099,1.2089,-0.28743,-0.8204040000000001,-0.893051
821,8.21,-0.47940900000000003,-1.763642,0.924991,-0.175583,-0.978058,-0.816345
822,8.22,-0.19156099999999998,-1.8804720000000001,0.439854,-0.05520599999999999,-1.12294,-0.748169
823,8.23,0.06615599999999999,-2.0009360000000003,-0.14391700000000002,0.035338999999999995,-1.182587,-0.723679
824,8.24,0.270447,-1.99268,-0.5622119999999999,0.08114600000000001,-1.1517030000000001,-0.73645
825,8.25,0.282484,-1.991628,-0.912449,0.104584,-1.071808,-0.750305
826,8.26,0.21163600000000002,-1.910834,-1.0574860000000001,0.117371,-0.9769899999999999,-0.759888
827,8.27,0.17408099999999999,-1.8403509999999998,-1.1444860000000001,0.137604,-0.8949739999999999,-0.748169
828,8.28,0.15352000000000002,-1.788589,-1.080194,0.17276,-0.82785,-0.721542
829,8.29,0.159057,-1.690577,-0.851347,0.216446,-0.770325,-0.690643
830,8.3,0.175287,-1.596838,-0.7054699999999999,0.278229,-0.733047,-0.66188
831,8.31,0.091767,-1.492844,-0.695797,0.354919,-0.740509,-0.6416470000000001
832,8.32,-0.005002,-1.326724,-0.7527189999999999,0.41458100000000003,-0.7756649999999999,-0.62674
833,8.33,-0.021124,-1.114687,-0.9572579999999999,0.44334399999999996,-0.799088,-0.596909
834,8.34,-0.080617,-0.893674,-1.164748,0.42416400000000004,-0.8001560000000001,-0.560684
835,8.35,-0.092047,-0.6876770000000001,-1.316883,0.35173000000000004,-0.78418,-0.511688
836,8.36,0.013251000000000013,-0.46088599999999996,-1.278878,0.251587,-0.778854,-0.45735200000000004
837,8.37,0.106978,-0.2837,-1.101002,0.163177,-0.770325,-0.41686999999999996
838,8.38,0.175217,-0.18909,-0.796741,0.091797,-0.7469020000000001,-0.395569
839,8.39,0.122392,0.031376,-0.302239,0.061980999999999994,-0.697891,-0.384918
840,8.4,-0.02680900000000001,0.21980700000000003,0.063222,0.090744,-0.659546,-0.37745700000000004
841,8.41,-0.093035,0.520807,0.319468,0.142929,-0.632919,-0.373199
842,8.42,-0.07310900000000001,0.8871959999999999,0.428591,0.182343,-0.551956,-0.360413
843,8.43,-0.146255,1.121502,0.535114,0.188736,-0.476318,-0.356155
844,8.44,-0.288752,1.360479,0.624574,0.163177,-0.38151599999999997,-0.35401900000000003
845,8.45,-0.5802069999999999,1.453734,0.8549770000000001,0.10246300000000001,-0.25154099999999996,-0.328461
846,8.46,-0.8132699999999999,1.7052759999999998,1.154333,0.024689000000000003,-0.093887,-0.287979
847,8.47,-1.216819,1.730809,1.6650919999999998,-0.040283,0.03288300000000001,-0.226196
848,8.48,-1.783464,1.557042,2.244873,-0.095688,0.138336,-0.14949
849,8.49,-2.057966,1.467917,2.620115,-0.1138,0.131943,-0.061080999999999996
850,8.5,-2.0234080000000003,1.5153590000000001,2.864647,-0.088226,-0.013992000000000004,0.0017700000000000007
851,8.51,-2.1659919999999997,1.347394,2.824887,-0.043488,-0.15567,0.024138999999999997
852,8.52,-2.2520290000000003,1.170035,2.605097,-0.011536,-0.229172,0.059296
853,8.53,-2.0269939999999997,1.124473,2.2502150000000003,0.019363,-0.28244,0.126404
854,8.54,-1.7622259999999998,0.9320649999999999,1.83201,0.03215,-0.28137199999999996,0.190323
855,8.55,-1.336257,0.785538,1.336463,0.012969999999999999,-0.23449699999999998,0.240387
856,8.56,-0.980907,0.617626,0.881267,-0.026443,-0.199356,0.264893
857,8.57,-0.7308479999999999,0.397036,0.38146399999999997,-0.080765,-0.1642,0.265961
858,8.58,-0.420933,0.115756,-0.02451200000000002,-0.224579,-0.011871000000000008,0.22654699999999997
859,8.59,-0.30040100000000003,-0.099039,-0.15268800000000002,-0.338562,0.10638399999999999,0.188202
860,8.6,-0.34903,-0.349717,-0.09373,-0.44722,0.19906600000000002,0.12854000000000002
861,8.61,-0.501871,-0.61857,0.078176,-0.5761109999999999,0.336472,0.0625
862,8.62,-0.75718,-0.804235,0.46478,-0.698624,0.458984,0.0017700000000000042
863,8.63,-1.011091,-1.055358,0.812404,-0.769989,0.489868,-0.048294
864,8.64,-1.227523,-1.251411,1.1734209999999998,-0.7913060000000001,0.42063900000000004,-0.088776
865,8.65,-1.3763020000000001,-1.320207,1.336371,-0.74762,0.31304899999999997,-0.11860699999999999
866,8.66,-1.3291879999999998,-1.362278,1.253782,-0.643234,0.164963,-0.131378
867,8.67,-1.219724,-1.3677620000000001,0.903954,-0.498352,-0.009734999999999994,-0.11433399999999999
868,8.68,-0.951311,-1.35758,0.271048,-0.347092,-0.15141300000000002,-0.088776
869,8.69,-0.599101,-1.387033,-0.41538,-0.22351100000000002,-0.21426399999999998,-0.070663
870,8.7,-0.30493600000000004,-1.4218,-1.116922,-0.13829,-0.18869,-0.054688
871,8.71,-0.14252599999999999,-1.605258,-1.711407,-0.092484,-0.08004800000000001,-0.044037
872,8.72,0.07689400000000003,-1.614873,-2.143575,-0.099945,0.090408,-0.036575
873,8.73,0.14211700000000002,-1.6935080000000002,-2.2530080000000003,-0.14788800000000002,0.289612,-0.017394999999999997
874,8.74,0.163748,-1.696509,-2.1813290000000003,-0.184097,0.435547,-0.0003510000000000006
875,8.75,0.08214099999999999,-1.820968,-1.8012150000000002,-0.20114100000000001,0.495209,0.015625
876,8.76,-0.022026000000000004,-1.635937,-1.318317,-0.17877200000000001,0.5058590000000001,0.048645
877,8.77,-0.046968,-1.490234,-0.969772,-0.074371,0.407852,0.080597
878,8.78,-0.174729,-1.346164,-0.9336129999999999,0.07049600000000003,0.255524,0.11256400000000001
879,8.79,-0.21157199999999998,-1.095573,-1.150829,0.177017,0.097855,0.162628
880,8.8,-0.077361,-0.8473879999999999,-1.482704,0.236679,-0.044891,0.21696500000000002
881,8.81,0.040023,-0.635951,-1.7670439999999998,0.220703,-0.100281,0.262756
882,8.82,0.18019300000000002,-0.438362,-1.884961,0.145065,-0.07470700000000001,0.289398
883,8.83,0.12904300000000002,-0.370287,-1.7673169999999998,0.050262,-0.016128999999999998,0.295792
884,8.84,-0.014435000000000003,-0.310797,-1.3727340000000001,-0.025375,0.056320000000000016,0.285141
885,8.85,-0.15694,-0.34026300000000004,-0.800986,-0.050949,0.088272,0.25531
886,8.86,-0.262354,-0.286416,-0.18756199999999998,-0.004074,0.060577,0.22547899999999998
887,8.87,-0.368325,-0.163676,0.200003,0.135483,-0.037429999999999984,0.17541500000000002
888,8.88,-0.430957,0.021006,0.285984,0.324036,-0.160995,0.10935999999999998
889,8.89,-0.265472,0.324211,0.174968,0.5125890000000001,-0.255814,0.050781
890,8.9,-0.037217,0.67038,-0.19171,0.661713,-0.309067,-0.014206
891,8.91,-0.08224,1.126431,-0.448416,0.706467,-0.296295,-0.104752
892,8.92,-0.255749,1.6708880000000002,-0.641729,0.667038,-0.20361300000000002,-0.184647
893,8.93,-0.428333,2.016902,-0.44369,0.582886,-0.068329,-0.21980300000000003
894,8.94,-0.584611,2.3325150000000003,-0.008468000000000003,0.467834,0.156448,-0.21234099999999997
895,8.95,-0.5610149999999999,2.700501,0.566227,0.3741,0.385483,-0.186783
896,8.96,-0.687133,2.704573,1.139105,0.344269,0.509048,-0.18250999999999998
897,8.97,-0.8521200000000001,2.51693,1.6228690000000001,0.360245,0.546341,-0.184647
898,8.98,-1.045094,2.480788,1.9083990000000002,0.41458100000000003,0.50798,-0.200623
899,8.99,-1.267515,2.235452,2.007574,0.496597,0.40678400000000003,-0.197433
900,9.0,-1.199589,2.083704,1.6207719999999999,0.570099,0.252319,-0.164413
901,9.01,-0.794983,2.169722,1.02423,0.597809,0.023285,-0.131378
902,9.02,-0.347869,2.311597,0.30880799999999997,0.548798,-0.20680200000000004,-0.139908
903,9.03,0.06866,2.336547,-0.31296100000000004,0.41032399999999997,-0.338898,-0.154816
904,9.04,0.392119,2.482796,-0.835777,0.19300799999999999,-0.358078,-0.16334500000000002
905,9.05,0.39697899999999997,2.415832,-0.8763350000000001,-0.08609,-0.241959,-0.17613199999999998
906,9.06,0.005155999999999994,2.094596,-0.304698,-0.39183,0.06697100000000003,-0.178253
907,9.07,-0.5439149999999999,1.457531,0.5592729999999999,-0.636841,0.392929,-0.126053
908,9.08,-0.8898209999999999,0.781976,1.394091,-0.746567,0.500534,-0.042969
909,9.09,-0.8335950000000001,0.30467,2.16273,-0.732712,0.38867199999999996,0.06143200000000001
910,9.1,-0.7369479999999999,-0.098991,2.5778779999999997,-0.618729,0.19053599999999998,0.163696
911,9.11,-0.380738,-0.643843,2.358133,-0.43124399999999996,-0.13862599999999994,0.252106
912,9.12,0.321658,-0.7605029999999999,1.838511,-0.229904,-0.491226,0.311768
913,9.13,1.159042,-0.42333999999999994,1.100956,-0.10527,-0.687241,0.310699
914,9.14,1.517105,-0.498242,0.25309499999999996,-0.095688,-0.739441,0.265961
915,9.15,1.60781,-0.609296,-0.348004,-0.184097,-0.713867,0.21162399999999998
916,9.16,1.53233,-0.594175,-0.688925,-0.338562,-0.614807,0.16688499999999998
917,9.17,1.249867,-0.701589,-0.619826,-0.510071,-0.48484799999999995,0.144516
918,9.18,0.897277,-0.9833069999999999,-0.3519,-0.631516,-0.336777,0.155167
919,9.19,0.671545,-1.209392,-0.08665899999999999,-0.689041,-0.23449699999999998,0.184998
920,9.2,0.46757600000000005,-1.421109,0.164145,-0.6719970000000001,-0.19296300000000002,0.20629899999999998
921,9.21,0.22175300000000003,-1.733066,0.34523899999999996,-0.589966,-0.190826,0.20950300000000002
922,9.22,0.01521700000000001,-2.074767,0.310397,-0.45893900000000004,-0.21000700000000003,0.207367
923,9.23,-0.031444999999999994,-2.287369,0.033485000000000015,-0.308731,-0.264328,0.200974
924,9.24,0.14198000000000002,-2.285756,-0.383346,-0.157471,-0.35701,0.17860399999999998
925,9.25,0.225237,-2.4562049999999997,-0.9010239999999999,-0.047744999999999996,-0.39216599999999996,0.145584
926,9.26,0.480566,-2.350794,-1.354574,0.0023190000000000016,-0.37191799999999997,0.09019500000000001
927,9.27,0.6113770000000001,-2.33281,-1.633613,0.019363,-0.329315,0.013489
928,9.28,0.60729,-2.161791,-1.7903810000000002,0.023621,-0.23770100000000002,-0.057877
929,9.29,0.586774,-1.988164,-1.742749,0.043869,-0.121582,-0.11433399999999999
930,9.3,0.5001369999999999,-1.843011,-1.597224,0.099258,0.0019840000000000066,-0.14949
931,9.31,0.43832200000000004,-1.712821,-1.474502,0.185547,0.099991,-0.155884
932,9.32,0.418386,-1.6166610000000001,-1.322825,0.283554,0.15538,-0.142044
933,9.33,0.32305700000000004,-1.486925,-1.165991,0.3741,0.1884,-0.11114500000000001
934,9.34,0.333411,-1.369358,-1.125631,0.442276,0.20118699999999998,-0.074921
935,9.35,0.42401300000000003,-1.1790399999999999,-1.152775,0.469971,0.184143,-0.040833
936,9.36,0.581149,-0.8536860000000001,-1.095171,0.455063,0.160706,-0.014206
937,9.37,0.6391100000000001,-0.5601520000000001,-1.0242129999999998,0.400726,0.150055,-0.001419
938,9.38,0.581068,-0.436687,-0.9152950000000001,0.310181,0.130875,0.018813999999999997
939,9.39,0.662542,-0.177643,-0.573372,0.199402,0.112778,0.047577
940,9.4,0.5968060000000001,-0.07239,-0.24669699999999997,0.100327,0.090408,0.071014
941,9.41,0.557304,-0.036881,0.15841800000000006,0.035338999999999995,0.045654,0.099777
942,9.42,0.528746,0.044601999999999996,0.637938,0.003387,0.0051880000000000025,0.133865
943,9.43,0.564507,0.134991,1.034707,0.0001829999999999996,-0.022522,0.158371
944,9.44,0.599171,0.23525900000000002,1.255895,0.026825,-0.071518,0.16476400000000002
945,9.45,0.746675,0.34462800000000005,1.400259,0.060913,-0.113068,0.162628
946,9.46,0.8839540000000001,0.481025,1.437329,0.091797,-0.091751,0.141327
947,9.47,0.895623,0.610871,1.4222629999999998,0.11097699999999999,-0.020386,0.094452
948,9.48,0.802291,0.7435350000000001,1.435109,0.125885,0.056320000000000016,0.034789999999999995
949,9.49,0.555312,0.832269,1.624472,0.117371,0.15431199999999998,-0.020599000000000003
950,9.5,0.309811,0.8955780000000001,1.720262,0.096069,0.269363,-0.06214900000000001
951,9.51,0.214889,1.1185,1.78371,0.08647200000000001,0.320496,-0.109009
952,9.52,0.251897,1.357851,1.79162,0.092865,0.306656,-0.175064
953,9.53,0.109702,1.433309,1.743025,0.079025,0.325821,-0.24963400000000002
954,9.54,-0.085367,1.7121060000000001,1.5714489999999999,0.051315,0.329025,-0.296494
955,9.55,-0.329563,1.7159229999999999,1.213649,0.009780999999999998,0.29280100000000003,-0.305023
956,9.56,-0.69973,1.646078,0.9968739999999999,-0.091415,0.294937,-0.28584299999999996
957,9.57,-1.102922,1.430121,0.863276,-0.262924,0.353516,-0.21980300000000003
958,9.58,-1.441873,1.158175,1.03365,-0.46533199999999997,0.415314,-0.110077
959,9.59,-1.700994,0.779818,1.274838,-0.6570739999999999,0.391876,0.012421
960,9.6,-1.7725369999999998,0.448017,1.632902,-0.790237,0.255524,0.11788900000000001
961,9.61,-1.777121,0.057098999999999976,1.7782930000000001,-0.8520200000000001,0.022232,0.20310999999999998
962,9.62,-1.547656,-0.140801,1.734162,-0.8413700000000001,-0.25793499999999997,0.263824
963,9.63,-1.196491,-0.271109,1.510913,-0.769989,-0.498688,0.302185
964,9.64,-0.719932,-0.372118,1.07899,-0.661346,-0.623322,0.32560700000000004
965,9.65,-0.23826799999999998,-0.5001399999999999,0.553815,-0.563339,-0.599884,0.30856300000000003
966,9.66,-0.025906000000000002,-0.539497,0.092379,-0.486633,-0.48484799999999995,0.224411
967,9.67,-0.14046,-0.665957,-0.17590899999999998,-0.42271400000000003,-0.31866500000000003,0.11682100000000001
968,9.68,-0.365005,-0.664144,-0.283175,-0.340698,-0.106674,0.02308699999999999
969,9.69,-0.639695,-0.644109,-0.276713,-0.241623,0.142593,-0.035507
970,9.7,-0.8861049999999999,-0.6239979999999999,-0.29814,-0.12338299999999999,0.367371,-0.057877
971,9.71,-1.0695620000000001,-0.6502640000000001,-0.346623,-0.0019380000000000024,0.513306,-0.046158
972,9.72,-1.170091,-0.723123,-0.519745,0.088608,0.56871,-0.014206
973,9.73,-1.225967,-0.759282,-0.602387,0.140808,0.5761569999999999,0.040131
974,9.74,-1.331077,-0.87855,-0.770357,0.149323,0.526093,0.106171
975,9.75,-1.302506,-0.988001,-0.8763770000000001,0.099258,0.42915299999999995,0.18074
976,9.76,-1.220458,-1.035544,-0.917,0.03215,0.297058,0.248917
977,9.77,-1.046556,-1.1254030000000002,-0.907235,-0.027512,0.129822,0.295792
978,9.78,-0.8569620000000001,-1.2488620000000001,-0.939845,-0.046676999999999996,-0.060867,0.327744
979,9.79,-0.646626,-1.3145790000000002,-0.895869,-0.015793,-0.222794,0.34265100000000004
980,9.8,-0.401095,-1.305957,-1.0295219999999998,0.07156399999999999,-0.331436,0.333069
981,9.81,-0.166994,-1.214128,-1.243884,0.195129,-0.369797,0.286194
982,9.82,0.0073399999999999984,-1.012542,-1.436452,0.320831,-0.314392,0.224411
983,9.83,0.073866,-0.6640510000000001,-1.6437080000000002,0.427368,-0.186569,0.148773
984,9.84,0.024164999999999992,-0.362292,-1.8290259999999998,0.5125890000000001,-0.019318,0.106171
985,9.85,-0.10695199999999999,-0.124129,-1.90278,0.5466770000000001,0.176682,0.099777
986,9.86,-0.24900999999999998,0.033103999999999995,-1.84693,0.524307,0.336472,0.11788900000000001
987,9.87,-0.372958,-0.023743,-1.7348150000000002,0.460388,0.38867199999999996,0.140259
988,9.88,-0.411963,-0.089011,-1.414152,0.376221,0.35672,0.146652
989,9.89,-0.393344,-0.064604,-0.8910620000000001,0.29953,0.301331,0.123215
990,9.9,-0.519367,-0.088635,-0.525473,0.265442,0.193726,0.092316
991,9.91,-0.611762,-0.068662,-0.32588,0.268631,0.017960000000000004,0.06143200000000001
992,9.92,-0.527308,0.112525,-0.274947,0.29100000000000004,-0.20361300000000002,0.030533000000000005
993,9.93,-0.42471400000000004,0.39395399999999997,-0.365004,0.301666,-0.377243,-0.001419
994,9.94,-0.33057800000000004,0.702652,-0.49157,0.28674299999999997,-0.435837,-0.039764
995,9.95,-0.160959,1.048598,-0.459557,0.24733000000000002,-0.39003000000000004,-0.08345
996,9.96,-0.155943,1.34467,-0.205614,0.195129,-0.243027,-0.120728
997,9.97,-0.14036500000000002,1.561855,0.23257399999999998,0.16104100000000002,-0.082169,-0.148422
998,9.98,-0.233278,1.7396209999999999,0.8216889999999999,0.159973,0.041397,-0.179321
999,9.99,-0.277504,1.8350090000000001,1.417361,0.188736,0.092529,-0.21659899999999999
1000,10.0,-0.372541,1.9435740000000001,1.846075,0.253723,0.066971,-0.263474
1001,10.01,-0.37045300000000003,2.093236,2.236915,0.357056,0.0062410000000000035,-0.326324
1002,10.02,-0.273528,2.285068,2.0174540000000003,0.476364,-0.082169,-0.37106300000000003
1003,10.03,-0.019323999999999997,2.473164,1.57636,0.575439,-0.2164,-0.42114300000000005
1004,10.04,0.052042,2.557331,0.923228,0.595673,-0.26326,-0.482925
1005,10.05,0.1256,2.661782,0.199627,0.531754,-0.225983,-0.52446
1006,10.06,0.10898499999999998,2.72703,-0.44070299999999996,0.387939,-0.12265,-0.53299
1007,10.07,-0.08517999999999999,2.548645,-0.6773520000000001,0.121628,0.167099,-0.5042270000000001
1008,10.08,-0.644415,2.039854,-0.16520400000000002,-0.237366,0.633682,-0.42965699999999996
1009,10.09,-1.3243,1.0776569999999999,0.932717,-0.564407,1.055527,-0.301834
1010,10.1,-1.555557,0.22802900000000004,1.9646259999999998,-0.73378,1.167389,-0.153748
1011,10.11,-1.5600379999999998,-0.534832,2.877294,-0.751892,0.9426120000000001,0.0017699999999999801
1012,10.12,-1.171191,-1.3045200000000001,2.92354,-0.627258,0.473892,0.114685
1013,10.13,-0.2294660000000001,-1.7614869999999998,2.225158,-0.42804,-0.20575000000000007,0.155167
1014,10.14,0.8969660000000002,-1.640954,1.289036,-0.251205,-0.858749,0.120026
1015,10.15,1.8736959999999998,-1.280276,0.337934,-0.196884,-1.1698,-0.009949
1016,10.16,2.302523,-0.92645,-0.547555,-0.278915,-1.162354,-0.189972
1017,10.17,2.220645,-0.362396,-0.9253540000000001,-0.43124399999999996,-0.956757,-0.37106300000000003
1018,10.18,1.880668,0.11086999999999997,-0.635202,-0.552689,-0.632919,-0.5052949999999999
1019,10.19,1.217549,0.22357600000000002,0.062010999999999976,-0.5793149999999999,-0.21000700000000003,-0.545776
1020,10.2,0.5874050000000001,0.174119,0.8932389999999999,-0.49195900000000004,0.259781,-0.49783299999999997
1021,10.21,0.039493,0.08642799999999999,1.499148,-0.303406,0.614517,-0.404099
1022,10.22,-0.354037,-0.42323,1.8090580000000003,-0.06904600000000001,0.781754,-0.263474
1023,10.23,-0.389415,-0.991083,1.753745,0.16104100000000002,0.758316,-0.126053
1024,10.24,-0.315103,-1.296167,1.453107,0.354919,0.596405,-0.045105
1025,10.25,-0.185823,-1.59274,0.7779129999999999,0.48382600000000003,0.335419,-0.002487
1026,10.26,0.06338799999999999,-1.793469,0.0035879999999999797,0.526428,0.017960000000000004,0.0103
1027,10.27,0.288383,-1.801123,-0.797875,0.474228,-0.262207,-0.014206
1028,10.28,0.387376,-1.729502,-1.371491,0.354919,-0.480576,-0.041901
1029,10.29,0.36995700000000004,-1.538662,-1.6270209999999998,0.21537800000000001,-0.575394,-0.061080999999999996
1030,10.3,0.339543,-1.377314,-1.706248,0.096069,-0.548752,-0.05575599999999999
1031,10.31,0.286427,-1.2937020000000001,-1.659039,0.037476,-0.477386,-0.014205999999999996
1032,10.32,0.37001,-1.304869,-1.525701,0.039612,-0.385773,0.047577
1033,10.33,0.567717,-1.292959,-1.358306,0.077957,-0.270721,0.09764099999999999
1034,10.34,0.794652,-1.324378,-1.266943,0.148254,-0.186569,0.10723900000000001
1035,10.35,0.845217,-1.404197,-1.196407,0.23028600000000002,-0.142899,0.077408
1036,10.36,0.871658,-1.340051,-1.1107799999999999,0.300598,-0.09814500000000001,0.034789999999999995
1037,10.37,0.736596,-1.244422,-1.178237,0.355988,-0.067261,-0.001419
1038,10.38,0.559319,-1.08574,-1.246679,0.368774,-0.06405599999999999,-0.030182
1039,10.39,0.44228199999999995,-0.8571040000000001,-1.3016780000000001,0.344269,-0.069382,-0.044037
1040,10.4,0.312078,-0.552615,-1.234574,0.288879,-0.053405999999999995,-0.035507
1041,10.41,0.289835,-0.319905,-1.12609,0.23349,-0.017196999999999997,-0.016342
1042,10.42,0.236317,-0.15526099999999998,-0.8751120000000001,0.197266,0.03714,0.010299999999999998
1043,10.43,0.20307999999999998,-0.026593000000000002,-0.466388,0.175964,0.102127,0.032669
1044,10.44,0.18607100000000001,0.091934,-0.04680499999999999,0.19300799999999999,0.15431199999999998,0.06143200000000001
1045,10.45,0.182501,0.1455,0.232275,0.25053400000000003,0.14898699999999998,0.08699
1046,10.46,0.166271,0.2556,0.43545900000000004,0.327225,0.096786,0.098709
1047,10.47,0.22765,0.442634,0.44099700000000003,0.391144,0.031814999999999996,0.100845
1048,10.48,0.38424400000000003,0.593801,0.333416,0.43055699999999997,-0.007599000000000002,0.091263
1049,10.49,0.47034,0.779415,0.13634300000000002,0.44334399999999996,-0.053405999999999995,0.07208300000000001
1050,10.5,0.504688,0.986698,-0.09199699999999998,0.412445,-0.060867,0.051834000000000005
1051,10.51,0.452128,1.288239,-0.20540999999999998,0.327225,-0.025711,0.045456
1052,10.52,0.293012,1.455196,-0.07857,0.20365899999999998,0.058441,0.042252
1053,10.53,0.11333199999999999,1.710264,0.228467,0.053452,0.180954,0.050781
1054,10.54,-0.319202,1.615373,0.939441,-0.063721,0.317307,0.091263
1055,10.55,-0.6089220000000001,1.495863,1.489787,-0.129776,0.38655100000000003,0.142395
1056,10.56,-0.520545,1.51348,1.878655,-0.136169,0.31517,0.18074
1057,10.57,-0.557537,1.396311,2.149277,-0.104202,0.191605,0.182861
1058,10.58,-0.51244,1.200215,2.136693,-0.050949,0.12449600000000001,0.177536
1059,10.59,-0.314551,1.300606,1.850755,0.008713000000000002,0.057373,0.16155999999999998
1060,10.6,-0.304225,1.333966,1.546498,0.035338999999999995,0.050980000000000004,0.123215
1061,10.61,-0.485596,1.039981,1.22118,-0.0008699999999999992,0.10424800000000001,0.09764099999999999
1062,10.62,-0.811196,0.7123619999999999,1.064818,-0.074371,0.197998,0.101913
1063,10.63,-1.007826,0.466096,1.072961,-0.15321400000000002,0.24273699999999998,0.12428299999999999
1064,10.64,-1.163986,0.22993400000000003,1.154044,-0.206467,0.23101799999999997,0.14772000000000002
1065,10.65,-1.249527,-0.14691000000000004,1.188862,-0.238434,0.164963,0.16476400000000002
1066,10.66,-1.270642,-0.48771099999999995,1.2450290000000002,-0.236298,0.054184,0.17860399999999998
1067,10.67,-1.041048,-0.7100069999999999,1.057675,-0.192627,-0.069382,0.184998
1068,10.68,-0.752588,-0.8567809999999999,0.729934,-0.136169,-0.1642,0.159439
1069,10.69,-0.4826389999999999,-1.023942,0.38461100000000004,-0.10313399999999999,-0.15673800000000002,0.108307
1070,10.7,-0.30244699999999997,-1.079367,-0.0006690000000000028,-0.091415,-0.094955,0.047577
1071,10.71,-0.239211,-1.116611,-0.328901,-0.10633900000000002,-0.028915,-0.016341999999999995
1072,10.72,-0.21813200000000002,-1.211333,-0.565492,-0.13403299999999999,0.050980000000000004,-0.057877
1073,10.73,-0.224606,-1.243131,-0.740881,-0.173447,0.130875,-0.094101
1074,10.74,-0.289711,-1.295142,-0.858395,-0.211792,0.186279,-0.128189
1075,10.75,-0.358171,-1.441078,-0.9457610000000001,-0.244827,0.224625,-0.145233
1076,10.76,-0.42708100000000004,-1.5074299999999998,-0.880518,-0.266129,0.255524,-0.14949
1077,10.77,-0.560164,-1.543115,-0.758609,-0.28424099999999997,0.303452,-0.146301
1078,10.78,-0.645101,-1.5865719999999999,-0.556,-0.270386,0.325821,-0.131378
1079,10.79,-0.774068,-1.608285,-0.436816,-0.226715,0.308777,-0.104752
1080,10.8,-0.8259120000000001,-1.5497049999999999,-0.331048,-0.170258,0.277893,-0.077057
1081,10.81,-0.846391,-1.4761879999999998,-0.43704899999999997,-0.099945,0.19906600000000002,-0.042969
1082,10.82,-0.7975949999999999,-1.325939,-0.5969479999999999,-0.022186,0.088272,-0.009949
1083,10.83,-0.707539,-1.1785510000000001,-0.838203,0.041733,0.019028,0.025208
1084,10.84,-0.66283,-1.019918,-1.121159,0.089676,-0.015059999999999999,0.071014
1085,10.85,-0.6395649999999999,-0.9472079999999999,-1.386318,0.122696,-0.052338,0.129608
1086,10.86,-0.44167799999999996,-0.8259190000000001,-1.680322,0.152527,-0.097092,0.192459
1087,10.87,-0.250052,-0.753864,-1.9462080000000002,0.16104100000000002,-0.11093099999999999,0.256378
1088,10.88,-0.06928200000000001,-0.693527,-1.96225,0.135483,-0.073654,0.29686
1089,10.89,0.118583,-0.557646,-1.871507,0.099258,-0.007599000000000002,0.297913
1090,10.9,0.129669,-0.43077299999999996,-1.5261639999999999,0.084351,0.043532999999999995,0.262756
1091,10.91,-0.044579000000000014,-0.22982600000000003,-1.2485469999999999,0.096069,0.093597,0.21696500000000002
1092,10.92,-0.227971,0.07442899999999998,-0.8879290000000001,0.11523399999999999,0.160706,0.196716
1093,10.93,-0.469104,0.277143,-0.654266,0.154648,0.194794,0.21269200000000002
1094,10.94,-0.723229,0.42422200000000004,-0.43910299999999997,0.183411,0.15538,0.24465900000000002
1095,10.95,-0.775459,0.484624,-0.320292,0.20365899999999998,0.065903,0.29686
1096,10.96,-0.665552,0.509941,-0.331271,0.201523,-0.03743,0.343719
1097,10.97,-0.489814,0.537221,-0.367046,0.157852,-0.136505,0.3629
1098,10.98,-0.312317,0.5548390000000001,-0.256094,0.09819,-0.22384600000000002,0.344788
1099,10.99,-0.114997,0.594159,-0.16563,0.038544,-0.279251,0.28726199999999996
1100,11.0,0.020413000000000004,0.752505,0.0074729999999999935,0.004456,-0.300552,0.204178
1101,11.01,0.075244,0.962471,0.23381999999999997,-0.009399,-0.262207,0.10298199999999999
1102,11.02,0.08017,1.134525,0.508953,-0.010468,-0.148224,0.0017700000000000007
1103,11.03,-0.113499,1.35921,0.781436,0.008712999999999999,-0.03743,-0.08557100000000001
1104,11.04,-0.34075,1.48543,1.084301,0.040665,0.043532999999999995,-0.159088
1105,11.05,-0.615295,1.610221,1.376859,0.082214,0.081879,-0.205948
1106,11.06,-0.7919510000000001,1.5672709999999999,1.610845,0.142929,0.069092,-0.22938499999999998
1107,11.07,-0.812565,1.555269,1.673815,0.207916,-0.010803,-0.250687
1108,11.08,-0.557496,1.6862810000000001,1.434266,0.28035,-0.150345,-0.278397
1109,11.09,-0.35628000000000004,1.7496029999999998,1.0995,0.33468600000000004,-0.286697,-0.335922
1110,11.1,-0.21540900000000002,1.9184290000000002,0.550449,0.33361799999999997,-0.331436,-0.38385
1111,11.11,-0.059799999999999985,2.1250310000000003,0.053431000000000006,0.26969899999999997,-0.312271,-0.404099
1112,11.12,0.04887,2.351277,-0.290979,0.13121,-0.217453,-0.407288
1113,11.13,-0.172291,2.294939,-0.306317,-0.065857,-0.013992000000000004,-0.395569
1114,11.14,-0.8746139999999999,1.826916,0.224205,-0.29275500000000004,0.28108200000000005,-0.334854
1115,11.15,-1.429258,1.151702,0.9500219999999999,-0.475983,0.493073,-0.205948
1116,11.16,-1.446935,0.43345500000000003,1.614738,-0.550552,0.489868,-0.05043
1117,11.17,-1.132963,-0.05687,2.047643,-0.528183,0.327957,0.096588
1118,11.18,-0.692693,-0.6308199999999999,2.03438,-0.42271400000000003,-0.0022739999999999982,0.197784
1119,11.19,0.06718099999999999,-0.9964959999999999,1.470784,-0.27784699999999996,-0.395355,0.259567
1120,11.2,1.00996,-1.056115,0.76218,-0.169189,-0.689377,0.260635
1121,11.21,1.828703,-0.898164,-0.026324999999999987,-0.13084400000000002,-0.778854,0.19458
1122,11.22,2.220413,-0.8391069999999999,-0.674266,-0.165985,-0.691498,0.080597
1123,11.23,2.2934490000000003,-0.7352069999999999,-1.034044,-0.269318,-0.469925,-0.051483
1124,11.24,2.047946,-0.509204,-0.873133,-0.379044,-0.170593,-0.155884
1125,11.25,1.647284,-0.481491,-0.21128099999999994,-0.430176,0.167099,-0.209152
1126,11.26,1.268589,-0.530933,0.45204300000000003,-0.406738,0.456848,-0.21554600000000002
1127,11.27,0.947464,-0.612097,0.950242,-0.317261,0.5814819999999999,-0.20701599999999998
1128,11.28,0.7425510000000001,-0.7921189999999999,1.210864,-0.194748,0.54953,-0.198502
1129,11.29,0.567277,-1.001931,1.2244950000000001,-0.07225,0.432358,-0.18250999999999998
1130,11.3,0.5833729999999999,-1.17556,0.9395629999999999,0.028946,0.258713,-0.153748
1131,11.31,0.783508,-1.311408,0.38049,0.076889,0.027557,-0.142044
1132,11.32,0.913841,-1.393805,-0.13841300000000006,0.060913,-0.17803999999999998,-0.142044
1133,11.33,0.944615,-1.5597940000000001,-0.48977200000000004,-0.004074,-0.327179,-0.139908
1134,11.34,1.019695,-1.6572790000000002,-0.703066,-0.080765,-0.42305,-0.145233
1135,11.35,1.140156,-1.624234,-0.768568,-0.118057,-0.504013,-0.155884
1136,11.36,1.269417,-1.6452,-0.764306,-0.090363,-0.555145,-0.166534
1137,11.37,1.44664,-1.525672,-0.770494,-0.012588999999999996,-0.5476989999999999,-0.17185999999999998
1138,11.38,1.580627,-1.519176,-0.837426,0.099258,-0.49975600000000003,-0.183578
1139,11.39,1.620316,-1.4501620000000002,-0.935464,0.216446,-0.402817,-0.211273
1140,11.4,1.603256,-1.349235,-1.032475,0.322968,-0.278183,-0.24963400000000002
1141,11.41,1.53621,-1.288767,-1.096196,0.41137700000000005,-0.180176,-0.277328
1142,11.42,1.3830209999999998,-1.2092459999999998,-1.204476,0.475296,-0.13118,-0.297562
1143,11.43,1.251333,-1.052389,-1.259454,0.499802,-0.13755799999999999,-0.306091
1144,11.44,1.121168,-0.819939,-1.244261,0.482758,-0.15141300000000002,-0.307159
1145,11.45,1.052028,-0.578678,-1.1194309999999998,0.444412,-0.179108,-0.290115
1146,11.46,1.010559,-0.424908,-0.9503290000000001,0.413513,-0.250488,-0.275192
1147,11.47,1.0398040000000002,-0.206331,-0.834844,0.385818,-0.33464099999999997,-0.253891
1148,11.48,1.027427,0.013527999999999998,-0.670579,0.353851,-0.394287,-0.23791500000000002
1149,11.49,1.025817,0.186143,-0.470183,0.311249,-0.41667200000000004,-0.23152199999999998
1150,11.5,0.966967,0.319849,-0.15193399999999999,0.265442,-0.40174899999999997,-0.22938499999999998
1151,11.51,0.949925,0.5370739999999999,0.25559899999999997,0.240936,-0.362335,-0.227264
1152,11.52,0.8311209999999999,0.618095,0.656976,0.25053400000000003,-0.358078,-0.240036
1153,11.53,0.737015,0.730308,0.990044,0.27928200000000003,-0.391098,-0.246429
1154,11.54,0.778913,0.781512,1.093461,0.322968,-0.462463,-0.252823
1155,11.55,0.88946,0.9000049999999999,1.008333,0.36344899999999997,-0.557281,-0.278397
1156,11.56,0.962251,1.016728,0.860625,0.357056,-0.620132,-0.30928
1157,11.57,1.03118,1.152309,0.63751,0.31871,-0.647827,-0.340179
1158,11.58,1.0775540000000001,1.254694,0.43803500000000006,0.23349,-0.65741,-0.374268
1159,11.59,1.1627459999999998,1.421859,0.388569,0.116302,-0.6286470000000001,-0.401962
1160,11.6,1.306977,1.6924150000000002,0.48561800000000005,0.007645000000000006,-0.600952,-0.434982
1161,11.61,1.117483,1.677299,0.7580180000000001,-0.06904600000000001,-0.566864,-0.480789
1162,11.62,0.906007,1.590111,0.924969,-0.126572,-0.49762,-0.5170140000000001
1163,11.63,0.702421,1.579386,1.091415,-0.170258,-0.451813,-0.539383
1164,11.64,0.432813,1.598387,1.184616,-0.207535,-0.40174899999999997,-0.554291
1165,11.65,-0.11077800000000003,1.279342,1.345407,-0.293823,-0.332504,-0.560684
1166,11.66,-0.749254,1.037299,1.6121459999999999,-0.404617,-0.276047,-0.530853
1167,11.67,-1.265393,0.664665,2.0576689999999997,-0.500488,-0.295227,-0.459488
1168,11.68,-1.554892,0.275277,2.352344,-0.54097,-0.433716,-0.366806
1169,11.69,-1.566684,-0.098951,2.4023950000000003,-0.522858,-0.704285,-0.286911
1170,11.7,-1.326941,-0.435123,2.244536,-0.45468100000000006,-0.9865879999999999,-0.221939
1171,11.71,-0.831126,-0.59126,1.862375,-0.354538,-1.163422,-0.189972
1172,11.72,-0.39315900000000004,-0.656979,1.3080370000000001,-0.253342,-1.204956,-0.195297
1173,11.73,-0.11269400000000003,-0.744107,0.6737689999999998,-0.17131,-1.1676790000000001,-0.22405999999999998
1174,11.74,0.103051,-0.76974,0.163929,-0.14256300000000002,-1.0526280000000001,-0.26561
1175,11.75,0.19398900000000002,-0.766612,-0.229636,-0.152145,-0.876862,-0.318878
1176,11.76,0.137913,-0.9102819999999999,-0.397354,-0.17984,-0.682983,-0.365738
1177,11.77,0.005162,-0.9831209999999999,-0.33226700000000003,-0.219254,-0.474182,-0.40515100000000004
1178,11.78,-0.213479,-1.0425280000000001,-0.220691,-0.234161,-0.31652800000000003,-0.434982
1179,11.79,-0.56326,-1.201509,-0.164879,-0.225647,-0.25260900000000003,-0.45202600000000004
1180,11.8,-0.8590110000000001,-1.275879,-0.029382999999999992,-0.217117,-0.246216,-0.44137600000000005
1181,11.81,-1.057869,-1.405741,0.18093199999999998,-0.184097,-0.266464,-0.39663699999999996
1182,11.82,-1.162143,-1.506692,0.220327,-0.10313399999999999,-0.350616,-0.356155
1183,11.83,-1.156549,-1.572365,0.10781400000000001,0.0044560000000000025,-0.476318,-0.326324
1184,11.84,-1.01614,-1.577923,-0.24507600000000002,0.11523399999999999,-0.587112,-0.291168
1185,11.85,-0.81162,-1.5800290000000001,-0.746023,0.207916,-0.6659390000000001,-0.258148
1186,11.86,-0.586287,-1.600951,-1.2910110000000001,0.25798000000000004,-0.7128140000000001,-0.23259000000000002
1187,11.87,-0.381804,-1.491971,-1.654514,0.264374,-0.708542,-0.226196
1188,11.88,-0.255101,-1.434275,-2.036582,0.243073,-0.6819149999999999,-0.22405999999999998
1189,11.89,-0.20471,-1.250629,-2.143441,0.19833399999999998,-0.631851,-0.227264
1190,11.9,-0.167475,-1.184244,-2.102927,0.142929,-0.580719,-0.222992
1191,11.91,-0.17828,-1.043374,-1.9802119999999999,0.095001,-0.551956,-0.221939
1192,11.92,-0.171969,-0.966399,-1.740479,0.061980999999999994,-0.54982,-0.23152199999999998
1193,11.93,-0.249948,-0.9013200000000001,-1.55217,0.038544,-0.571121,-0.251755
1194,11.94,-0.365767,-0.810462,-1.3313620000000002,0.014038,-0.5881649999999999,-0.26879899999999995
1195,11.95,-0.45395100000000005,-0.6421399999999999,-1.109809,-0.02005,-0.604156,-0.28584299999999996
1196,11.96,-0.632337,-0.523087,-0.841319,-0.065857,-0.605209,-0.293304
1197,11.97,-0.858698,-0.39459,-0.490731,-0.108475,-0.5817869999999999,-0.283722
1198,11.98,-0.9393370000000001,-0.354046,-0.224304,-0.151077,-0.565796,-0.278397
1199,11.99,-0.925053,-0.302736,0.11319899999999998,-0.17877200000000001,-0.5594020000000001,-0.290115
1200,12.0,-0.8934790000000001,-0.099345,0.462891,-0.177704,-0.565796,-0.346573
1201,12.01,-1.019526,0.134185,0.7856479999999999,-0.136169,-0.597763,-0.438187
1202,12.02,-1.292225,0.386113,1.0360260000000001,-0.044556,-0.611603,-0.51062
1203,12.03,-1.524722,0.49929799999999996,1.161403,0.069427,-0.611603,-0.544708
1204,12.04,-1.642077,0.559513,1.0830879999999998,0.20365899999999998,-0.62439,-0.559616
1205,12.05,-1.660907,0.728398,0.9380790000000001,0.31338499999999997,-0.623322,-0.584122
1206,12.06,-1.615982,0.968482,0.7899430000000001,0.370895,-0.587112,-0.608627
1207,12.07,-1.555906,1.205647,0.65888,0.395401,-0.543427,-0.629929
1208,12.08,-1.541017,1.368205,0.533417,0.375168,-0.489105,-0.6522979999999999
1209,12.09,-1.555164,1.535428,0.455217,0.33255,-0.4646,-0.658691
1210,12.1,-1.5499479999999999,1.610107,0.488913,0.271835,-0.44541899999999995,-0.638443
1211,12.11,-1.539667,1.611099,0.580926,0.190872,-0.385773,-0.5873109999999999
1212,12.12,-1.218097,1.5421610000000001,0.916668,0.095001,-0.329315,-0.47653199999999996
1213,12.13,-0.78151,1.5427389999999999,1.023325,0.08647200000000001,-0.391098,-0.42858900000000005
1214,12.14,-0.438337,1.435667,0.916617,0.089676,-0.49017299999999997,-0.440308
1215,12.15,-0.283769,1.284974,0.659708,0.066238,-0.538101,-0.47332799999999997
1216,12.16,-0.03337599999999999,1.380154,0.464866,-0.02005,-0.455017,-0.49890100000000004
1217,12.17,0.163929,1.593923,0.581451,-0.17984,-0.221725,-0.527664
1218,12.18,-0.073903,1.441586,1.0110350000000001,-0.360931,0.063766,-0.535126
1219,12.19,-0.462455,0.801625,1.6567,-0.49089099999999997,0.253387,-0.522339
1220,12.2,-0.583179,0.381475,2.468164,-0.530319,0.31304899999999997,-0.493576
1221,12.21,-0.42064399999999996,-0.007537999999999989,2.911078,-0.417389,0.19693,-0.45095799999999997
1222,12.22,-0.165639,-0.294951,2.836223,-0.184097,-0.08642600000000003,-0.41686999999999996
1223,12.23,0.23971300000000004,-0.47921400000000003,2.043091,0.08435100000000001,-0.44223,-0.398758
1224,12.24,0.920937,-0.35279,0.984186,0.293137,-0.743698,-0.374268
1225,12.25,1.598435,0.014102000000000003,-0.14658000000000004,0.352798,-0.8193360000000001,-0.373199
1226,12.26,1.9351209999999999,0.38568600000000003,-1.163571,0.262238,-0.734116,-0.399826
1227,12.27,1.987514,0.562974,-1.6809740000000002,0.038544,-0.543427,-0.39450100000000005
1228,12.28,1.821036,0.684233,-1.6051030000000002,-0.237366,-0.272858,-0.359344
1229,12.29,1.4853809999999998,0.542529,-0.867373,-0.477051,0.009445000000000007,-0.308212
1230,12.3,0.9787389999999999,0.203252,0.14690199999999998,-0.6123350000000001,0.261902,-0.22938499999999998
1231,12.31,0.570584,-0.273894,0.981967,-0.628311,0.345001,-0.14416500000000002
1232,12.32,0.338406,-0.6544800000000001,1.540942,-0.5420229999999999,0.258713,-0.058945000000000004
1233,12.33,0.16358399999999998,-0.986067,1.7988650000000002,-0.382233,0.073364,-0.001419
1234,12.34,0.111575,-1.3484610000000001,1.596945,-0.184097,-0.168457,0.024138999999999997
1235,12.35,0.118717,-1.4842229999999998,0.9604020000000001,0.01829500000000001,-0.41667200000000004,0.042252
1236,12.36,0.331979,-1.5081200000000001,0.14802600000000005,0.16636700000000001,-0.600952,0.056107000000000004
1237,12.37,0.421567,-1.520846,-0.5744639999999999,0.251587,-0.648895,0.057175
1238,12.38,0.490983,-1.5890440000000001,-1.2188620000000001,0.27928200000000003,-0.587112,0.057175
1239,12.39,0.523076,-1.5903909999999999,-1.68288,0.276093,-0.482712,0.058227999999999995
1240,12.4,0.60778,-1.53336,-1.9165310000000002,0.260117,-0.36659200000000003,0.059296
1241,12.41,0.6515850000000001,-1.509069,-2.094822,0.24626199999999998,-0.27179000000000003,0.064621
1242,12.42,0.762939,-1.439352,-2.111934,0.23986799999999997,-0.21533200000000002,0.071014
1243,12.43,0.8596879999999999,-1.292705,-2.103845,0.240936,-0.19403099999999998,0.064621
1244,12.44,0.799571,-1.156251,-2.115738,0.232422,-0.19828800000000002,0.040131
1245,12.45,0.674219,-1.0598530000000002,-2.0647830000000003,0.207916,-0.19828800000000002,0.009231999999999999
1246,12.46,0.46662,-0.793275,-1.935002,0.185547,-0.179108,-0.03125
1247,12.47,0.111483,-0.586907,-1.741984,0.177017,-0.14182999999999998,-0.058945000000000004
1248,12.48,-0.21897199999999997,-0.327074,-1.653559,0.174896,-0.094955,-0.061080999999999996
1249,12.49,-0.43017299999999997,-0.16155,-1.470699,0.157852,-0.034241,-0.034439
1250,12.5,-0.423838,-0.014859999999999996,-1.2929389999999998,0.136551,0.022232,-0.006744
1251,12.51,-0.483817,0.204057,-1.062438,0.121628,0.033936,0.0060420000000000005
1252,12.52,-0.5335529999999999,0.321265,-0.842683,0.10884100000000001,0.021164,0.015625
1253,12.53,-0.600248,0.437871,-0.635892,0.105652,-0.00015300000000000036,0.029464999999999998
1254,12.54,-0.596507,0.554871,-0.387018,0.12055999999999999,-0.023575,0.046508999999999995
1255,12.55,-0.55917,0.71225,-0.227226,0.15145899999999998,-0.060867,0.056107000000000004
1256,12.56,-0.602344,0.89251,-0.13650299999999999,0.183411,-0.090698,0.079544
1257,12.57,-0.506774,1.050181,-0.12190999999999999,0.20259100000000002,-0.08963,0.11256400000000001
1258,12.58,-0.37858200000000003,1.237351,-0.10823599999999998,0.208984,-0.065125,0.140259
1259,12.59,-0.300216,1.270692,0.024565000000000003,0.189804,-0.028914999999999996,0.162628
1260,12.6,-0.207654,1.3005639999999998,0.126879,0.152527,0.009445,0.171158
1261,12.61,-0.188186,1.3152540000000001,0.329285,0.11523399999999999,0.019028,0.16581700000000002
1262,12.62,-0.136519,1.243973,0.567565,0.08647200000000001,0.009445,0.141327
1263,12.63,-0.055889,1.22033,0.699446,0.077957,-0.024643,0.106171
1264,12.64,0.035497,1.202809,0.8084979999999999,0.089676,-0.06405599999999999,0.051834000000000005
1265,12.65,-0.003154999999999998,1.1728610000000002,0.8300620000000001,0.095001,-0.060867,-0.004623000000000002
1266,12.66,-0.055705,1.0931030000000002,0.8812559999999999,0.101395,-0.024643,-0.051483
1267,12.67,-0.103773,1.126583,0.8721540000000001,0.122696,0.014770999999999998,-0.08238200000000001
1268,12.68,0.044229000000000004,1.306294,1.023643,0.143997,0.08934,-0.101562
1269,12.69,0.024209,1.338432,1.209734,0.197266,0.21716300000000002,-0.11965899999999999
1270,12.7,-0.137445,1.1367969999999998,1.3387120000000001,0.27928200000000003,0.349258,-0.12925699999999998
1271,12.71,-0.194357,1.218294,1.5382799999999999,0.36344899999999997,0.49839799999999995,-0.127121
1272,12.72,-0.17202,1.250887,1.5324520000000001,0.44546499999999994,0.64328,-0.101562
1273,12.73,-0.374303,1.123219,1.382803,0.517914,0.701859,-0.054688
1274,12.74,-0.44925600000000004,0.768608,1.06687,0.5445399999999999,0.700806,0.0103
1275,12.75,-0.397658,0.581807,0.7146680000000001,0.516846,0.6763,0.078476
1276,12.76,-0.359624,0.328896,0.33918400000000004,0.415649,0.639008,0.141327
1277,12.77,-0.397121,0.01195199999999999,0.21521300000000002,0.226028,0.6102449999999999,0.190323
1278,12.78,-0.479116,-0.352484,0.343359,-0.014725000000000004,0.5655060000000001,0.231873
1279,12.79,-0.553632,-0.650149,0.585238,-0.24055500000000002,0.432358,0.258499
1280,12.8,-0.545337,-0.9361729999999999,0.885659,-0.41313199999999994,0.20332300000000006,0.286194
1281,12.81,-0.39169899999999996,-1.2011180000000001,0.9773209999999999,-0.527115,-0.054474,0.32135
1282,12.82,-0.09260800000000001,-1.4128379999999998,0.846298,-0.564407,-0.313339,0.352249
1283,12.83,0.397136,-1.478927,0.427178,-0.545227,-0.523193,0.367157
1284,12.84,0.949484,-1.555524,-0.12051599999999997,-0.486633,-0.637177,0.353317
1285,12.85,1.396393,-1.604538,-0.753391,-0.426987,-0.646759,0.293655
1286,12.86,1.609609,-1.525855,-1.225103,-0.39822399999999997,-0.5168,0.192459
1287,12.87,1.637903,-1.38895,-1.3922430000000001,-0.396088,-0.255814,0.079544
1288,12.88,1.382992,-1.303988,-1.255275,-0.377975,0.05737299999999997,-0.026993
1289,12.89,1.0148139999999999,-1.2130299999999998,-0.786767,-0.334305,0.379089,-0.08238200000000001
1290,12.9,0.5302100000000001,-1.145765,-0.225293,-0.248016,0.590012,-0.104752
1291,12.91,0.036185000000000016,-1.289295,0.07729500000000003,-0.118057,0.608124,-0.099426
1292,12.92,-0.270326,-1.40539,0.26482100000000003,0.0215,0.46431000000000006,-0.057877
1293,12.93,-0.485047,-1.4860010000000001,0.243705,0.153595,0.253387,-0.011017
1294,12.94,-0.564271,-1.525147,-0.48596,0.295273,-0.148224,0.039062
1295,12.95,-0.43657700000000005,-1.297409,-0.871609,0.310181,-0.314392,0.059296
1296,12.96,-0.321877,-1.062165,-1.16664,0.28674299999999997,-0.34635900000000003,0.081665
1297,12.97,-0.34187399999999996,-0.928674,-1.330917,0.248398,-0.29097,0.09338400000000001
1298,12.98,-0.32511100000000004,-0.742002,-1.332078,0.21431,-0.20361300000000002,0.10298199999999999
1299,12.99,-0.363299,-0.557208,-1.150759,0.190872,-0.082169,0.110428
1300,13.0,-0.555066,-0.63958,-0.9726610000000001,0.195129,0.011566000000000005,0.122147
1301,13.01,-0.714543,-0.6854210000000001,-0.80865,0.223892,0.024353,0.12854000000000002
1302,13.02,-0.6883520000000001,-0.589687,-0.682913,0.25798000000000004,-0.033173,0.125351
1303,13.03,-0.7500399999999999,-0.565405,-0.87145,0.275024,-0.168457,0.115753
1304,13.04,-0.744081,-0.459764,-1.0837139999999998,0.238815,-0.322922,0.091263
1305,13.05,-0.627508,-0.169224,-1.1206969999999998,0.15571600000000002,-0.42411800000000005,0.06143200000000001
1306,13.06,-0.533694,0.082726,-0.9573309999999999,0.061980999999999994,-0.4646,0.023087000000000003
1307,13.07,-0.525039,0.384721,-0.797958,-0.016861,-0.457138,-0.013138
1308,13.08,-0.5753159999999999,0.670837,-0.5035390000000001,-0.07225,-0.387909,-0.044037
1309,13.09,-0.5713630000000001,0.8437889999999999,-0.045855000000000014,-0.09462000000000001,-0.254745,-0.058945000000000004
1310,13.1,-0.511664,1.120969,0.295527,-0.08929400000000001,-0.12265,-0.0728
1311,13.11,-0.577667,1.2353530000000001,0.6442479999999999,-0.062668,-0.052338,-0.103683
1312,13.12,-0.6606850000000001,1.35458,0.8411639999999999,-0.038162,-0.04808,-0.12286400000000001
1313,13.13,-0.55899,1.48181,0.961742,-0.017914,-0.097092,-0.13351400000000002
1314,13.14,-0.584835,1.544715,1.037417,-0.024307,-0.149277,-0.13884000000000002
1315,13.15,-0.520411,1.532319,1.049959,-0.066925,-0.201477,-0.14416500000000002
1316,13.16,-0.396485,1.531659,1.103934,-0.132965,-0.267532,-0.152695
1317,13.17,-0.09051099999999998,1.6555369999999998,1.316569,-0.21286,-0.327179,-0.162277
1318,13.18,0.232303,1.764316,1.5622639999999999,-0.271454,-0.395355,-0.189972
1319,13.19,0.34974099999999997,1.64963,1.7899479999999999,-0.288498,-0.433716,-0.247498
1320,13.2,0.44826400000000005,1.602523,1.982806,-0.309799,-0.34315500000000004,-0.313538
1321,13.21,0.551271,1.693591,2.113237,-0.332169,-0.1642,-0.37745700000000004
1322,13.22,0.43455699999999997,1.639071,2.375422,-0.347092,0.039276000000000005,-0.45095799999999997
1323,13.23,-0.004461999999999994,1.362215,2.731415,-0.343887,0.23848000000000003,-0.507416
1324,13.24,-0.44812799999999997,0.867698,2.960802,-0.285294,0.31517,-0.506363
1325,13.25,-0.5372170000000001,0.398012,3.074488,-0.151077,0.244858,-0.460556
1326,13.26,-0.231873,0.124133,2.6435470000000003,0.052383000000000006,0.06164600000000001,-0.401962
1327,13.27,0.21248899999999998,-0.062802,1.6620970000000002,0.255859,-0.170593,-0.33058200000000004
1328,13.28,0.8688049999999999,-0.125416,0.4507729999999999,0.354919,-0.325058,-0.258148
1329,13.29,1.575736,0.090687,-0.5724640000000001,0.319763,-0.342102,-0.21980300000000003
1330,13.3,1.9430830000000001,0.17714000000000002,-1.471169,0.171692,-0.292023,-0.203827
1331,13.31,2.0642970000000003,0.21001999999999998,-1.8866740000000002,-0.060532,-0.21426399999999998,-0.175064
1332,13.32,2.1173319999999998,0.39338,-1.8345759999999998,-0.330048,-0.055542000000000015,-0.12286400000000001
1333,13.33,1.9559279999999999,0.25489,-1.192692,-0.5782470000000001,0.15751600000000002,-0.054688000000000014
1334,13.34,1.6835360000000001,0.028194,-0.3808030000000001,-0.722061,0.319427,0.018813999999999997
1335,13.35,1.353184,-0.277593,0.289661,-0.746567,0.331146,0.045456
1336,13.36,0.9779959999999999,-0.743259,0.8350280000000001,-0.6911619999999999,0.276825,0.0625
1337,13.37,0.57411,-1.12317,1.1054959999999998,-0.5793149999999999,0.202255,0.078476
1338,13.38,0.32602800000000004,-1.557389,1.130317,-0.42591899999999994,0.073364,0.085922
1339,13.39,0.142872,-1.85153,0.8521709999999999,-0.250153,-0.060867,0.088058
1340,13.4,0.20504499999999998,-1.913444,0.30345300000000003,-0.082901,-0.17804,0.082733
1341,13.41,0.396206,-1.9300869999999999,-0.30971600000000005,0.034270999999999996,-0.248352,0.06675700000000001
1342,13.42,0.526293,-1.9224139999999998,-0.922875,0.10246300000000001,-0.262207,0.045456
1343,13.43,0.645714,-1.853711,-1.445525,0.134415,-0.255814,0.009231999999999999
1344,13.44,0.709342,-1.697168,-1.8263909999999999,0.145065,-0.241959,-0.029113999999999998
1345,13.45,0.813808,-1.5333729999999999,-2.030468,0.145065,-0.186569,-0.047226
1346,13.46,0.8552280000000001,-1.384196,-2.177463,0.143997,-0.14182999999999998,-0.056808000000000004
1347,13.47,0.9003030000000001,-1.265785,-2.242159,0.15571600000000002,-0.136505,-0.06427000000000001
1348,13.48,0.9920370000000001,-1.098811,-2.182608,0.168503,-0.11199999999999999,-0.078125
1349,13.49,0.936882,-0.980635,-1.9492349999999998,0.177017,-0.040619,-0.100494
1350,13.5,0.760134,-0.838342,-1.704041,0.204727,0.021164,-0.137772
1351,13.51,0.47028100000000006,-0.626997,-1.497131,0.24626199999999998,0.047791,-0.166534
1352,13.52,0.17836399999999994,-0.405624,-1.3637350000000001,0.292068,0.060577,-0.178253
1353,13.53,0.007388999999999994,-0.137658,-1.224565,0.317642,0.099991,-0.161209
1354,13.54,-0.15773399999999999,0.23147399999999999,-1.151818,0.331482,0.133011,-0.13458299999999998
1355,13.55,-0.30748000000000003,0.511681,-1.132565,0.33361799999999997,0.15538,-0.09196499999999999
1356,13.56,-0.38585,0.6959960000000001,-1.053943,0.324036,0.178818,-0.013138000000000004
1357,13.57,-0.342907,0.815095,-0.975007,0.293137,0.20439100000000002,0.075272
1358,13.58,-0.19608299999999998,0.817783,-0.7343609999999999,0.242004,0.22676100000000002,0.149841
1359,13.59,-0.089391,0.842468,-0.558476,0.19300799999999999,0.19586199999999998,0.195648
1360,13.6,-0.087404,0.8892120000000001,-0.328227,0.128021,0.120224,0.21375999999999998
1361,13.61,-0.046452999999999994,1.0258479999999999,-0.020854000000000008,0.060913,0.044601,0.23294099999999998
1362,13.62,-0.017261000000000002,1.120999,0.22632600000000003,-0.0019379999999999953,-0.013992,0.259567
1363,13.63,0.15571899999999994,1.118004,0.532629,-0.062668,-0.091751,0.281937
1364,13.64,0.421263,1.19756,0.772571,-0.11166400000000001,-0.173782,0.26915
1365,13.65,0.6674,1.238294,1.006915,-0.140427,-0.218521,0.22973600000000002
1366,13.66,0.689289,1.290907,1.1282590000000001,-0.14361600000000002,-0.22811900000000002,0.17009000000000002
1367,13.67,0.45433100000000004,1.227982,1.303588,-0.125519,-0.20575,0.100845
1368,13.68,0.07094500000000001,1.185581,1.607316,-0.092484,-0.12371800000000001,0.044388
1369,13.69,-0.265654,1.055294,1.789677,-0.018982,-0.028915,-0.003554999999999999
1370,13.7,-0.44757700000000006,1.045085,1.927798,0.099258,0.069092,-0.051483
1371,13.71,-0.47148500000000004,1.105482,1.878641,0.23028600000000002,0.178818,-0.10582000000000001
1372,13.72,-0.575731,1.196596,1.7546979999999999,0.366638,0.293869,-0.153748
1373,13.73,-0.7823640000000001,1.0867200000000001,1.537851,0.489151,0.414246,-0.170792
1374,13.74,-0.783788,1.157902,1.236869,0.5562590000000001,0.511185,-0.164413
1375,13.75,-0.7954859999999999,1.2963639999999998,1.050884,0.565842,0.5814819999999999,-0.14416500000000002
1376,13.76,-0.8525200000000001,1.303652,0.9296260000000001,0.547729,0.6219640000000001,-0.09729
1377,13.77,-0.932218,1.1509,0.789369,0.510452,0.609192,-0.01206999999999999
1378,13.78,-0.9057290000000001,1.023412,0.5526439999999999,0.45825200000000005,0.545273,0.098709
1379,13.79,-0.812305,0.7596609999999999,0.179009,0.35173000000000004,0.45259099999999997,0.22122199999999997
1380,13.8,-0.592549,0.445912,-0.18327000000000002,0.196198,0.355652,0.33520500000000003
1381,13.81,-0.314842,0.15871500000000002,-0.330636,-0.012589000000000005,0.285339,0.409775
1382,13.82,-0.143513,-0.035399,-0.319468,-0.235229,0.258713,0.42681899999999995
1383,13.83,-0.083495,-0.277046,-0.052516000000000014,-0.453613,0.296005,0.41403199999999996
1384,13.84,-0.14089300000000002,-0.46276999999999996,0.492208,-0.633636,0.380157,0.404449
1385,13.85,-0.254732,-0.690641,0.930791,-0.727386,0.44087200000000004,0.396988
1386,13.86,-0.383183,-1.0382850000000001,1.415088,-0.740173,0.463242,0.409775
1387,13.87,-0.431883,-1.374971,1.6495380000000002,-0.68158,0.44193999999999994,0.442795
1388,13.88,-0.365989,-1.7420470000000001,1.622203,-0.568665,0.33009299999999997,0.4673
1389,13.89,0.02776999999999999,-2.089791,0.96647,-0.34176599999999996,0.060576999999999985,0.453445
1390,13.9,0.41934899999999997,-2.170154,0.319373,-0.193695,-0.093887,0.407639
1391,13.91,0.7376520000000001,-2.160103,-0.29967,-0.079712,-0.148224,0.326675
1392,13.92,0.712914,-2.120644,-0.892251,0.00018300000000000258,-0.132233,0.219086
1393,13.93,0.633562,-1.9354770000000001,-1.223747,0.039612,-0.041687,0.12321500000000002
1394,13.94,0.5576909999999999,-1.5891,-1.270048,0.074753,0.136215,0.064621
1395,13.95,0.31555300000000003,-1.335475,-1.198451,0.138672,0.34819,0.046508999999999995
1396,13.96,0.04483899999999999,-1.204733,-1.093061,0.207916,0.511185,0.068878
1397,13.97,-0.123424,-1.0984399999999999,-1.030432,0.284622,0.56871,0.130676
1398,13.98,-0.100892,-1.069804,-1.062806,0.347473,0.514374,0.21269200000000002
1399,13.99,0.0181,-1.032561,-1.35969,0.375168,0.378021,0.283005
1400,14.0,0.212954,-1.000441,-1.6641549999999998,0.329361,0.191605,0.33839400000000003
1401,14.01,0.24168499999999998,-0.9750479999999999,-1.7959459999999998,0.20365899999999998,0.035003999999999987,0.356506
1402,14.02,0.150124,-0.847295,-1.728376,0.038544,-0.08856200000000003,0.350113
1403,14.03,0.039665999999999986,-0.692959,-1.4154930000000001,-0.110596,-0.19403099999999998,0.33839400000000003
1404,14.04,-0.136461,-0.60427,-0.982525,-0.219254,-0.23130799999999999,0.32988
1405,14.05,-0.292381,-0.610164,-0.574388,-0.261871,-0.2164,0.32988
1406,14.06,-0.322441,-0.609488,-0.222498,-0.242691,-0.19296300000000002,0.318161
1407,14.07,-0.325022,-0.75185,-0.02285600000000001,-0.174515,-0.172714,0.302185
