,ts,ax,ay,az,wx,wy,wz
0,0.0,-0.014593,0.06009,0.052724,0.015015,0.005005,-0.0025629999999999997
1,0.01,0.008402,0.016506,0.012632999999999998,0.017136000000000002,0.005005,-0.0047
2,0.02,0.028094,0.006085,0.006344,0.017136000000000002,0.002869,-0.0047
3,0.03,0.028076,0.002863,0.002532,0.017136000000000002,-0.000336,-0.0047
4,0.04,0.030751,0.00784,0.005788000000000001,0.015015,-0.003524999999999999,-0.003632
5,0.05,0.05583099999999999,-0.010742,-0.034329000000000005,0.01181,-0.001389,-0.001495
6,0.06,0.028976,0.023581,-0.021069,0.01181,0.006057999999999999,-0.0025629999999999997
7,0.07,-0.025844,-0.00281,-0.046464,0.008621,0.011382999999999999,-0.00042700000000000013
8,0.08,-0.020494,-0.035941,-0.020012,0.008621,0.012451,0.0006259999999999999
9,0.09,0.0021010000000000004,-0.03248,-0.007331999999999999,0.008621,0.010329999999999999,0.0006259999999999999
10,0.1,0.032865,-0.01787,0.025256999999999998,0.01181,0.008194,0.0016940000000000002
11,0.11,0.06698899999999999,-0.013465000000000001,0.031898,0.02034,-0.0024569999999999995,0.0016940000000000002
12,0.12,0.042996,0.02979,0.037773,0.024597,-0.004593,0.0038299999999999996
13,0.13,0.038482,0.014369999999999999,0.030744999999999998,0.021408,-0.005661,0.0016940000000000002
14,0.14,0.030512,0.042328,0.010267000000000002,0.02034,-0.004593,0.002762
15,0.15,0.041757999999999997,0.006624999999999999,0.032054,0.019272,-0.002457,0.0006259999999999999
16,0.16,0.025700999999999998,-0.019813000000000004,0.021387,0.018203999999999998,0.002869,-0.0025629999999999997
17,0.17,0.0068709999999999995,-0.011415,-0.018900999999999998,0.022476,0.0039369999999999995,-0.003632
18,0.18,0.014091999999999999,-0.006132,-0.021786,0.024597,0.005005,-0.003632
19,0.19,0.004667999999999999,-0.011177,-0.007859999999999999,0.024597,0.0039369999999999995,-0.0047
20,0.2,0.003357000000000001,-0.011178,0.034046,0.02034,0.001801,0.0006259999999999999
21,0.21,0.016515999999999996,-0.004525,0.01568,0.023528999999999998,0.001801,0.0016940000000000002
22,0.22,0.0037380000000000004,0.030787000000000002,0.007215999999999999,0.026733,0.000732,0.0006260000000000003
23,0.23,0.006883,0.019382,0.024377,0.03418,-0.000336,0.0038299999999999996
24,0.24,0.001641,0.021939,0.011285,0.03418,-0.005661,0.0038299999999999996
25,0.25,0.012362999999999999,-0.024169,-0.0009469999999999982,0.033127,-0.006714,0.002762
26,0.26,0.047807,-0.015653999999999998,-0.06717000000000001,0.029922000000000004,-0.010986,0.005966
27,0.27,-0.0007149999999999999,-0.033875999999999996,-0.056829,0.025664999999999997,-0.010986,0.005966
28,0.28,0.00037700000000000065,-0.006901999999999999,-0.04054,0.023528999999999998,-0.009918000000000001,0.004898
29,0.29,0.019337,-0.028763999999999998,-0.048596,0.022476,-0.007781999999999999,0.005966
30,0.3,0.0057439999999999965,-0.021153,-0.039588,0.024597,-0.00885,0.002762
31,0.31,0.013565,-0.024522,-0.004142999999999999,0.023528999999999998,-0.007781999999999999,0.0038299999999999996
32,0.32,0.040077999999999996,0.01568,-0.024853999999999998,0.023528999999999998,-0.00885,0.0038299999999999996
33,0.33,0.02489,-0.006026,-0.020336,0.018203999999999998,-0.007781999999999999,0.002762
34,0.34,-0.008981,-0.009477,0.020083000000000004,0.02034,-0.007781999999999999,0.002762
35,0.35,0.010242,-0.002529,0.005338000000000009,0.016083,-0.012054,0.004898
36,0.36,-9.700000000000332e-05,-0.012864999999999998,-0.020646,0.018203999999999998,-0.006714,0.002762
37,0.37,-0.028071,-0.002763,0.031689000000000016,0.013947,-0.006714,0.0016940000000000002
38,0.38,-0.040575,0.027833999999999998,0.041060000000000006,0.015015,-0.004593,0.0006260000000000003
39,0.39,-0.040457,0.038022,0.067944,0.017136000000000002,-0.00033599999999999993,0.0016940000000000002
40,0.4,-0.06603400000000001,0.034976,0.07761799999999999,0.024597,0.000732,0.0038299999999999996
41,0.41,-0.040859,0.044827,0.084574,0.033127,0.002869,0.0016940000000000002
42,0.42,-0.033257999999999996,0.0075949999999999985,0.05326,0.042709,0.0039369999999999995,0.002762
43,0.43,-0.022994999999999998,-0.012781,0.022968000000000002,0.043776999999999996,0.002869,0.0016940000000000002
44,0.44,0.017925,-0.017598,-0.068992,0.040573000000000005,-0.0003360000000000004,0.004898
45,0.45,0.0126,-0.025065,-0.084508,0.036316,-0.004593,0.0006259999999999997
46,0.46,-0.017534,-0.005391,-0.09992100000000001,0.030991,-0.004593,0.002762
47,0.47,-0.033517,-0.02445,-0.078167,0.032059,-0.005661,0.002762
48,0.48,-0.036211,0.007050999999999998,-0.07741100000000001,0.028854,0.0007320000000000003,0.0016940000000000002
49,0.49,-0.0499,0.026489999999999996,-0.049864,0.028854,0.001801,0.0016940000000000002
50,0.5,-0.050447000000000006,0.035332999999999996,-0.037201,0.033127,0.0039369999999999995,0.0016940000000000002
51,0.51,-0.032767000000000004,0.014407,-0.022792,0.035248,0.006058,0.0038299999999999996
52,0.52,-0.035754,0.011731,-0.011881000000000001,0.036316,0.007126,0.004898
53,0.53,-0.045857000000000016,-0.033137,-0.029832,0.037384,0.008194,0.005966
54,0.54,-0.005859999999999999,0.033453,-0.017856999999999998,0.035248,0.008194,0.002762
55,0.55,0.017429,0.007445999999999999,0.019215,0.037384,0.007126,0.002762
56,0.56,0.004910000000000001,0.067286,0.036271,0.038452,0.002869,0.004898
57,0.57,-0.0276,0.060041,0.007217999999999999,0.044846,0.010329999999999999,0.005966
58,0.58,-0.016867,0.068986,-0.01211,0.049102999999999994,0.014587000000000001,0.004898
59,0.59,-0.037347000000000005,0.030675,-0.063334,0.054428,0.017776,0.005966
60,0.6,-0.030277,0.023847,-0.055214,0.057616999999999995,0.016708,0.007019
61,0.61,0.013394,-0.035375,-0.052725,0.057616999999999995,0.008194,0.007019
62,0.62,0.0028070000000000005,-0.059489999999999994,-0.105735,0.058685,0.008194,0.011292
63,0.63,0.053929000000000005,-0.049369,-0.09546,0.052292,0.010329999999999999,0.0038299999999999996
64,0.64,0.027417,-0.028825999999999997,-0.081688,0.045898,0.015656,0.0016940000000000002
65,0.65,-0.0015539999999999998,-0.004297,-0.039447,0.036316,0.017776,0.0006259999999999999
66,0.66,-0.0036479999999999998,-0.015658000000000002,-0.011656,0.028854,0.012451,-0.00042699999999999997
67,0.67,0.013730000000000001,-0.015038999999999999,-0.0177,0.028854,0.007126,0.0006259999999999999
68,0.68,0.009610999999999998,-0.023081,-0.000797,0.025664999999999997,-0.003525000000000001,0.0006260000000000003
69,0.69,0.062769,0.013894,0.045545,0.026733,-0.014175,0.002762
70,0.7,0.052115999999999996,-0.007789,0.02519,0.030991,-0.013106999999999999,0.0038299999999999996
71,0.71,0.024449000000000002,0.037124000000000004,0.059007000000000004,0.036316,-0.018433,0.002762
72,0.72,-0.025901,-0.010427,0.017738,0.042709,-0.015244,0.0016940000000000002
73,0.73,-0.008053,-0.004575,0.037322,0.045898,-0.014175,0.0016940000000000002
74,0.74,-0.04056,-0.034714999999999996,-0.013411000000000005,0.046967,-0.009918000000000001,0.0006259999999999999
75,0.75,-0.062190999999999996,-0.032739,-0.046674,0.043776999999999996,-0.009918000000000001,-0.0025629999999999997
76,0.76,-0.063708,-0.009821999999999994,-0.041070999999999996,0.038452,-0.009918000000000001,-0.001495
77,0.77,-0.026294,-0.054749,-0.039407,0.028854,-0.009918000000000001,-0.003632
78,0.78,-0.021902,0.0063780000000000095,-0.008131999999999999,0.025664999999999997,-0.007781999999999999,-0.006820999999999999
79,0.79,-0.029798,0.074874,0.01679,0.023528999999999998,-0.005661,-0.006821
80,0.8,-0.037531,0.053443,0.04752,0.026733,-0.0003360000000000004,-0.005753
81,0.81,-0.030454000000000002,0.033538,0.053753999999999996,0.030991,0.006058,-0.006821
82,0.82,-0.026976,0.022127,0.034656,0.032059,0.011382999999999999,-0.005753
83,0.83,-0.050523,0.006156999999999999,-0.002230999999999997,0.027801999999999997,0.014587000000000001,-0.005753
84,0.84,-0.05026,-0.0036209999999999992,-0.012163,0.026733,0.012451,-0.003632
85,0.85,-0.040707000000000014,-0.032723,0.022281,0.026733,0.014587000000000001,-0.0025629999999999997
86,0.86,-0.022111000000000002,-0.025091,-0.017682000000000003,0.027801999999999997,0.016708,-0.00042700000000000013
87,0.87,-0.023171999999999998,-0.06504,-0.033483,0.024597,0.022049000000000003,-0.0025629999999999997
88,0.88,-0.075099,-0.050293,-0.038764,0.019272,0.026306,-0.0025629999999999997
89,0.89,-0.066433,-0.034222,-0.021291,0.016083,0.026306,-0.0025629999999999997
90,0.9,-0.034285,0.004199999999999999,-0.0010840000000000016,0.009689,0.020981,-0.003632
91,0.91,0.006991000000000001,-0.0053219999999999995,-0.0026149999999999997,0.007553,0.020981,-0.003632
92,0.92,0.021997,-0.011805,-0.026672,0.0011600000000000007,0.019913,-0.0025629999999999997
93,0.93,0.046131,-0.018921,0.050047000000000015,9.2e-05,0.019913,-0.003632
94,0.94,0.043454,0.0020189999999999995,0.042447000000000006,-0.0041659999999999996,0.020981,-0.0025629999999999997
95,0.95,0.034879,-0.032862999999999996,0.02645,-0.0041659999999999996,0.018844999999999997,-0.003632
96,0.96,0.029669,-0.032468000000000004,0.044284,-0.006287,0.018844999999999997,0.0006259999999999997
97,0.97,0.025162,0.006926000000000001,0.001962000000000002,-0.008423,0.017776,0.0016940000000000002
98,0.98,-0.006361000000000002,0.009997,-0.028395,-0.0073549999999999996,0.017776,-0.00042700000000000013
99,0.99,-0.009224,0.019393,-0.017184999999999995,-0.01268,0.017776,0.0006259999999999999
100,1.0,0.027681,-0.012045,-0.045404,-0.014816,0.014587000000000001,0.0006259999999999999
101,1.01,0.0057009999999999995,-0.015457000000000004,-0.038885,-0.020142,0.013519,-0.0025629999999999997
102,1.02,0.038481,-0.021574,-0.011369999999999998,-0.024399,0.011382999999999999,-0.001495
103,1.03,0.029031,-0.018641,-0.002546,-0.028671,0.011382999999999999,-0.0025629999999999997
104,1.04,-0.004804999999999999,0.00010399999999999991,-0.024559,-0.029724,0.013519,-0.001495
105,1.05,-0.011005999999999998,-0.006532999999999997,-0.020327,-0.032928,0.018844999999999997,-0.0025629999999999997
106,1.06,0.003604,-0.043072000000000006,-0.057370000000000004,-0.036118,0.019913,0.0006259999999999999
107,1.07,0.007783,-0.026309,-0.041081,-0.042511,0.016708,-0.00042700000000000013
108,1.08,-0.0011609999999999988,-0.048003,-0.077666,-0.051041,0.013519,-0.0025629999999999997
109,1.09,0.009012999999999992,-0.0030869999999999995,-0.019787,-0.056366,0.010329999999999999,-0.003632
110,1.1,0.002649,0.047035000000000014,0.020322,-0.058487,0.006058,-0.0025629999999999997
111,1.11,0.026537,0.061964,0.060232000000000015,-0.054229999999999993,0.0039369999999999995,-0.003632
112,1.12,0.035809,0.055675999999999996,0.075919,-0.043579,0.0039369999999999995,-0.0025629999999999997
113,1.13,0.014032000000000005,0.08040900000000001,0.040323000000000005,-0.033997,0.005005,-0.0014949999999999998
114,1.14,0.046599,0.031299,0.038554000000000005,-0.026535000000000003,0.007126,-0.0025629999999999997
115,1.15,0.0012749999999999984,0.014385,-0.0003289999999999999,-0.024399,0.008194,-0.003632
116,1.16,0.003915,0.00022800000000000077,-0.040575,-0.022278,0.010329999999999999,-0.003632
117,1.17,-0.012394,-0.039855,-0.063828,-0.029724,0.007126,-0.001495
118,1.18,-0.042204000000000005,-0.024935,-0.06588,-0.03186,0.008194,-0.0025629999999999997
119,1.19,0.0014879999999999993,-0.028179,-0.06927699999999999,-0.035049000000000004,0.007126,-0.00042700000000000013
120,1.2,-0.036687,0.008142000000000003,-0.06364600000000001,-0.037186000000000004,0.007126,-0.001495
121,1.21,-0.019515,-0.01693,-0.088412,-0.041443,0.010329999999999999,0.0006259999999999999
122,1.22,-0.008622,-0.00937,-0.049999,-0.046768000000000004,0.012451,0.0016940000000000002
123,1.23,-0.014247999999999999,0.013456999999999998,-0.040382999999999995,-0.049973000000000004,0.013519,-0.00042699999999999997
124,1.24,0.010914,0.003878999999999997,-0.040552,-0.055298,0.015656,-0.001495
125,1.25,0.028794999999999998,-0.009828999999999996,-0.010729,-0.057419000000000005,0.014587000000000001,-0.001495
126,1.26,0.0133,7.400000000000006e-05,-0.001739000000000001,-0.055298,0.012451,-0.001495
127,1.27,0.040891000000000004,0.037687,0.011632000000000005,-0.051041,0.012451,0.0016939999999999993
128,1.28,0.010668,0.02963,0.012816,-0.041443,0.009262000000000001,-0.00042700000000000013
129,1.29,0.027323000000000004,0.03172,0.011864,-0.033997,0.010329999999999999,0.0038299999999999996
130,1.3,0.015959,0.027922000000000002,0.022635,-0.032928,0.0039369999999999995,0.0038299999999999996
131,1.31,0.010081,0.011723,-0.001285999999999999,-0.027602999999999996,0.002869,0.0038299999999999996
132,1.32,0.006770999999999999,0.023561000000000002,0.027487,-0.025467,-0.001389,0.005966
133,1.33,-0.009545,0.021450999999999998,-0.010942,-0.023331,0.002869,0.0038299999999999996
134,1.34,-0.022611000000000003,0.04249,-0.045591,-0.02121,0.006058,0.0016940000000000002
135,1.35,-0.004675,0.013047,-0.044480999999999986,-0.025467,0.009262000000000001,0.0006259999999999999
136,1.36,-0.0013950000000000006,-0.0050250000000000026,-0.060684,-0.028671,0.011382999999999999,-0.001495
137,1.37,0.0004340000000000004,0.0077160000000000015,-0.053614,-0.033997,0.013519,0.0016940000000000002
138,1.38,0.006564,0.00044299999999999895,-0.025652,-0.038254,0.012451,-0.00042699999999999997
139,1.39,-0.018484999999999998,-0.024763999999999998,-0.009719,-0.040375,0.013519,0.0038299999999999996
140,1.4,-0.033475,0.07123600000000001,-0.005644,-0.044647000000000006,0.011382999999999999,0.005966
141,1.41,0.012592999999999998,0.043302999999999994,0.0002599999999999998,-0.041443,0.012451,0.007019
142,1.42,0.020809,0.012615,0.043542000000000004,-0.039322,0.010329999999999999,0.005966
143,1.43,-0.024021999999999998,0.006862000000000001,0.03959900000000001,-0.036118,0.008194,0.0038299999999999996
144,1.44,-0.013238,-0.035477999999999996,0.026099,-0.035049000000000004,0.011382999999999999,0.0038299999999999996
145,1.45,-0.012915000000000001,-0.0004829999999999999,0.056556,-0.036118,0.007126,0.004898
146,1.46,0.018239,-0.00657,0.05934299999999999,-0.032928,0.009262000000000001,0.0038299999999999996
147,1.47,0.005650999999999998,-0.043563,0.110391,-0.029724,0.007126,0.0006260000000000003
148,1.48,0.015760999999999997,-0.064529,0.059486000000000004,-0.024399,0.006058,0.0006259999999999999
149,1.49,0.023072,-0.053390999999999994,-0.012543,-0.026535000000000003,0.007126,0.0006259999999999999
150,1.5,-0.010695999999999995,-0.020933,-0.036918,-0.027602999999999996,0.001801,0.002762
151,1.51,0.029737,-0.042892,-0.035177999999999994,-0.03186,-0.002457,0.007018999999999999
152,1.52,0.013977000000000002,-0.011255,0.013893000000000004,-0.032928,-0.00885,0.007019
153,1.53,0.010654,-0.008612000000000002,0.007332999999999998,-0.03186,-0.010986,0.005966
154,1.54,-0.051829999999999994,0.020166,0.038807999999999995,-0.035049000000000004,-0.006714,0.007019
155,1.55,-0.020449000000000002,0.0011269999999999993,0.045298000000000005,-0.035049000000000004,-0.005661,0.005966
156,1.56,-0.061037,0.015424,0.046232,-0.035049000000000004,-0.001389,0.0006259999999999999
157,1.57,-0.073376,-0.013926,0.026003,-0.036118,-0.002457,0.004898
158,1.58,-0.030741,-0.033187999999999995,0.015739,-0.032928,-0.006714,0.005966
159,1.59,-0.027363,-0.029381,0.032158,-0.035049000000000004,-0.010986,0.004898
160,1.6,-0.035369,0.038217,0.041491,-0.033997,-0.016312,0.009155
161,1.61,-0.019241,0.019774,0.014906,-0.030792,-0.015244,0.008087
162,1.62,0.0025230000000000014,-0.016991,-0.02128,-0.028671,-0.013106999999999999,0.010223000000000001
163,1.63,-0.012845999999999995,-0.034664,-0.017575999999999998,-0.024399,-0.012054,0.008087
164,1.64,0.033052,-0.021588999999999997,-0.054161,-0.020142,-0.012054,0.0038299999999999996
165,1.65,0.035711,-0.037155,-0.054525,-0.022278,-0.009918000000000001,0.0016940000000000002
166,1.66,0.013949000000000001,0.015587,-0.060863,-0.022278,-0.005661,-0.0025629999999999997
167,1.67,-0.004186,0.068734,0.00023400000000000504,-0.02121,-0.001389,-0.003632
168,1.68,0.014330999999999997,0.052158,-0.010684,-0.022278,-0.001389,-0.007889
169,1.69,-0.017921,0.067537,0.030458999999999996,-0.02121,-0.00033599999999999993,-0.0047
170,1.7,-0.00031799999999999884,0.03159,0.093017,-0.018005,-0.003525,-0.0047
171,1.71,-0.0010459999999999998,0.029481999999999998,0.08884,-0.015884,-0.006714,-0.003632
172,1.72,0.00983,0.001359,0.084781,-0.01268,-0.012054000000000002,-0.0047
173,1.73,0.006442,-0.006248,0.047675,-0.009491,-0.013106999999999999,-0.0025629999999999997
174,1.74,-0.006689,-0.028753,0.051259000000000006,-0.005234,-0.01738,-0.0025629999999999997
175,1.75,0.006051000000000001,-0.043139,0.021194,-0.0041659999999999996,-0.024825999999999997,-0.0025629999999999997
176,1.76,0.0069130000000000025,-0.051271000000000004,-0.030772999999999995,-0.003098,-0.026962,0.0016940000000000002
177,1.77,0.012187,-0.051512999999999996,-0.035206,-0.003098,-0.029099,0.0016940000000000002
178,1.78,-0.019758,-0.039743,-0.016313,-0.010559,-0.028030000000000003,0.002762
179,1.79,0.002798,0.006915,-0.001807,-0.015884,-0.026962,-0.00042700000000000013
180,1.8,-0.025271000000000002,0.042191999999999986,0.034709,-0.013748,-0.021637,0.0016940000000000002
181,1.81,-0.044318,0.033395999999999995,0.099746,-0.008423,-0.01738,-0.00042699999999999997
182,1.82,-0.042262,0.029917000000000003,0.048889999999999996,0.0011599999999999994,-0.015244,-0.00042699999999999997
183,1.83,-0.04895,0.05463099999999999,0.061132000000000006,0.008621,-0.014175,0.0006259999999999999
184,1.84,-0.021675,0.019466999999999998,0.069954,0.009689,-0.010986,0.002762
185,1.85,-0.095012,0.027236,0.055284,0.012878,-0.007781999999999999,0.004898
186,1.86,-0.048052,-0.029945999999999997,0.068729,0.015015,-0.003525,0.0038299999999999996
187,1.87,-0.007303,-0.07491,0.056462,0.019272,0.000732,0.002762
188,1.88,-0.011378000000000001,-0.045456,0.041013,0.021408,0.005005,0.0006259999999999999
189,1.89,0.007145,-0.036627,-0.009966,0.022476,0.006058,-0.00042699999999999997
190,1.9,-0.007390999999999998,-0.008115,-0.0003800000000000001,0.023528999999999998,0.007126,-0.0047
191,1.91,0.02713,-0.0027969999999999987,-0.003282,0.024597,0.010329999999999999,-0.001495
192,1.92,-0.009014,0.050918,-0.006045999999999999,0.021408,0.012451,-0.0025629999999999997
193,1.93,-0.012031,0.007866999999999999,-0.016747,0.018203999999999998,0.014587000000000001,-0.0025629999999999997
194,1.94,-0.031624,-0.007857,-0.019844,0.021408,0.016708,-0.0025629999999999997
195,1.95,-0.009049,0.007393,-0.025424,0.021408,0.019913,-0.00042699999999999997
196,1.96,-0.006933999999999999,-0.030247000000000007,-0.014073000000000002,0.02034,0.016708,-0.003632
197,1.97,0.010084000000000001,-0.079501,-0.0241,0.015015,0.016708,-0.0014949999999999998
198,1.98,0.003867,-0.007511,0.04648999999999999,0.018203999999999998,0.016708,-0.003632
199,1.99,0.016614,0.023133,0.034876,0.02034,0.016708,-0.0025629999999999997
200,2.0,0.036791000000000004,0.035108,0.030782,0.026733,0.016708,-0.0025629999999999997
201,2.01,0.044604000000000005,0.04967,-0.002796,0.027801999999999997,0.017776,-0.006821
202,2.02,0.016196000000000002,0.031341,0.022309,0.027801999999999997,0.017776,-0.006821
203,2.03,0.002529,0.025947,0.050183,0.033127,0.019913,-0.005753
204,2.04,0.004322,0.030409,0.057616999999999995,0.035248,0.015656,-0.003632
205,2.05,-0.037203,0.002213,0.038185000000000004,0.038452,0.015656,-0.003632
206,2.06,0.012825999999999999,-0.028987,0.008712000000000001,0.03952,0.015656,-0.003632
207,2.07,0.02074,-0.011116,-0.031479,0.040573000000000005,0.015656,-0.003632
208,2.08,-0.018602,-0.015297999999999999,-0.033346,0.035248,0.011382999999999999,-0.003632
209,2.09,0.020497,-0.041963,-0.066224,0.029922000000000004,0.013519,-0.0025629999999999997
210,2.1,0.029516000000000004,-0.030438999999999997,-0.06324500000000001,0.026733,0.014587000000000001,-0.0025629999999999997
211,2.11,0.0177,-0.004683,-0.061223,0.023528999999999998,0.017776,-0.005753
212,2.12,0.030391,-0.007236999999999999,-0.068881,0.022476,0.019913,-0.007889
213,2.13,0.018796,0.019316,-0.026393,0.021408,0.020981,-0.007889
214,2.14,0.037797000000000004,0.008762,0.025766,0.023528999999999998,0.019913,-0.010025
215,2.15,0.032277,-0.007695999999999999,0.023159,0.023528999999999998,0.017776,-0.008957
216,2.16,-0.0005159999999999991,-0.007106999999999999,0.046387,0.024597,0.013519,-0.008957
217,2.17,-0.006391000000000001,0.008357,0.068357,0.027801999999999997,0.011382999999999999,-0.004699999999999999
218,2.18,0.042562,-0.01227,0.086768,0.033127,0.011382999999999999,-0.0047
219,2.19,0.013425999999999999,-0.01174,0.013124999999999998,0.036316,0.008194,-0.003632
220,2.2,0.046362,-0.030812,-0.0007860000000000002,0.03418,0.001801,-0.0004269999999999994
221,2.21,0.069863,-0.0074420000000000016,0.015592000000000009,0.030991,-0.001389,-0.001495
222,2.22,0.052333000000000005,-0.030128,0.0021240000000000013,0.026733,0.000732,-0.003632
223,2.23,0.06468600000000001,-0.002652,0.010891,0.026733,-0.001389,-0.0025629999999999997
224,2.24,0.057549,0.029686,0.07219199999999999,0.025664999999999997,-0.000336,-0.0014949999999999998
225,2.25,0.028812,0.033689,0.065491,0.029922000000000004,-0.001389,-0.0025629999999999997
226,2.26,0.013163,0.046872000000000004,0.063648,0.036316,0.001801,-0.003632
227,2.27,0.007127,0.045705,0.06929500000000001,0.040573000000000005,0.000732,-0.001495
228,2.28,0.009762,-0.006752000000000001,0.054939999999999996,0.041641000000000004,-0.002457,-0.0025629999999999997
229,2.29,0.042963,-0.044732,0.027517000000000003,0.042709,-0.000336,-0.0025629999999999997
230,2.3,0.021571,-0.031202999999999998,-0.0037749999999999967,0.041641000000000004,-0.003525,-0.001495
231,2.31,0.039,-0.017269999999999997,-0.01379,0.040573000000000005,-0.004593,-0.001495
232,2.32,0.01933,-0.0027329999999999998,-0.033013,0.042709,-0.004593,0.0006259999999999999
233,2.33,0.01605,0.010586,-0.018738,0.045898,-0.001389,-0.001495
234,2.34,0.027183,-0.017519999999999997,-0.006490999999999999,0.043776999999999996,-0.003525,-0.0004269999999999999
235,2.35,-0.014382999999999996,-0.018481,0.023985,0.044846,-0.002457,-0.003632
236,2.36,-0.030330000000000003,-0.071005,-0.029601,0.042709,-0.001389,-0.0025629999999999997
237,2.37,0.024611,-0.04528,-0.018716,0.036316,-0.002457,-0.001495
238,2.38,0.042837,-0.013456000000000001,-0.0159,0.033127,-0.003525,-0.0047
239,2.39,0.052368,0.0167,0.012804,0.032059,-0.001389,-0.0014949999999999998
240,2.4,0.018545,0.015347,0.028526999999999997,0.032059,0.002869,-0.003632
241,2.41,0.0022140000000000007,0.014269,0.037469,0.035248,0.002869,-0.0025629999999999997
242,2.42,0.002284,-0.010424,-0.007776999999999998,0.037384,0.002869,-0.00042700000000000013
243,2.43,0.037630000000000004,-0.016965,-0.006366000000000004,0.03418,-0.004593,0.0006259999999999999
244,2.44,0.058352,-0.022816,-0.032404,0.03418,-0.010986,-0.00042700000000000013
245,2.45,0.067165,-0.034535,-0.030694,0.030991,-0.016312,0.0016940000000000002
246,2.46,0.049329000000000005,-0.008134000000000002,-0.023837,0.028854,-0.012054,0.0006259999999999999
247,2.47,0.043141000000000006,-0.025159,-0.019939,0.026733,-0.012054,0.0006259999999999999
248,2.48,0.016475999999999998,0.003519000000000001,0.008988,0.025664999999999997,-0.009918000000000001,-0.00042700000000000013
249,2.49,-0.012873,0.032261,-0.004086000000000001,0.025664999999999997,-0.006714,0.0016940000000000002
250,2.5,-0.020919999999999998,0.023183000000000002,-0.01029,0.025664999999999997,-0.00885,0.0006259999999999999
251,2.51,-0.007837,-0.004467,-0.027161,0.023528999999999998,-0.012054,0.002762
252,2.52,0.03874,-0.007976,0.018147999999999997,0.021408,-0.020569,0.0016940000000000002
253,2.53,0.046672000000000005,0.012747,0.018105,0.019272,-0.023758,0.0006259999999999999
254,2.54,0.0529,0.017092,0.014399,0.019272,-0.023758,0.0016940000000000002
255,2.55,0.028553,0.060454999999999995,0.0022000000000000006,0.024597,-0.019500999999999998,0.0016940000000000002
256,2.56,0.025166,0.036922,0.013262999999999999,0.030991,-0.016312,0.0038299999999999996
257,2.57,-0.006572,0.019333,-0.051162,0.037384,-0.012054,0.0016940000000000002
258,2.58,-0.033586000000000005,0.012471,-0.048156,0.038452,-0.015244,0.002762
259,2.59,-0.025842,-0.036426,-0.057953,0.03418,-0.01738,0.0006260000000000003
260,2.6,-0.019148,-0.04198,-0.05356,0.032059,-0.016312,0.0016940000000000002
261,2.61,0.005657,-0.005235999999999998,-0.02745,0.028854,-0.015244,0.0016940000000000002
262,2.62,0.012447,0.013096000000000002,-0.017684000000000002,0.027801999999999997,-0.013106999999999999,0.0006259999999999999
263,2.63,-0.016995,0.013772999999999999,-0.011931,0.028854,-0.012054,0.0016940000000000002
264,2.64,0.018082,0.03294,-0.02271,0.026733,-0.009918000000000001,-0.00042700000000000013
265,2.65,-0.022393,0.036284,-0.0005199999999999996,0.025664999999999997,-0.005660999999999999,-0.00042699999999999997
266,2.66,-0.040165,0.054471000000000006,0.011625,0.026733,-0.001389,-0.003632
267,2.67,-0.048039,0.02738,0.027768,0.029922000000000004,0.0039369999999999995,-0.003632
268,2.68,-0.014219000000000002,0.015552000000000002,0.025513,0.030991,0.0039369999999999995,-0.0047
269,2.69,-0.037728,-0.013147999999999998,0.01326,0.032059,0.000732,-0.003632
270,2.7,-0.014349999999999996,-0.05736,-0.021578999999999997,0.030991,-0.00033599999999999993,-0.0025629999999999997
271,2.71,-0.007483,-0.033597,-0.07428799999999999,0.028854,-0.00033599999999999993,-0.003632
272,2.72,-0.02536,-0.030897000000000004,-0.078811,0.026733,-0.00033599999999999993,-0.0047
273,2.73,-0.076882,-0.014938,-0.050247,0.023528999999999998,0.000732,-0.0025629999999999997
274,2.74,-0.050041,-0.0013749999999999995,-0.031035000000000004,0.025664999999999997,0.001801,-0.001495
275,2.75,-0.028127999999999997,-0.049324,0.006979999999999997,0.025664999999999997,-0.002457,-0.0025629999999999997
276,2.76,-0.017401,-0.067014,-0.006326,0.026733,-0.00885,-0.003632
277,2.77,0.013590000000000001,-0.024664,-0.023926,0.022476,-0.00885,-0.001495
278,2.78,0.021274,0.022793,-0.022369999999999998,0.02034,-0.012054,-0.0025629999999999997
279,2.79,-0.0014300000000000007,0.032971,-0.011422,0.018203999999999998,-0.00885,-0.003632
280,2.8,-0.037749,0.024778999999999995,-0.004209999999999999,0.015015,-0.003524999999999999,-0.0025629999999999997
281,2.81,-0.051612,0.02362,-0.004328000000000002,0.013947,0.002869,-0.006820999999999999
282,2.82,-0.05134,0.025488,0.0017660000000000004,0.015015,0.002869,-0.005753
283,2.83,-0.01099,0.018036,-0.020660000000000005,0.013947,0.0039369999999999995,-0.0047
284,2.84,-0.033766000000000004,0.024604,0.036898,0.016083,0.002869,-0.003632
285,2.85,0.011431,0.016994,0.027155,0.017136000000000002,0.000732,-0.0047
286,2.86,0.036680000000000004,0.01017,0.051761,0.021408,-0.000336,-0.001495
287,2.87,0.040867,-0.020961,0.033280000000000004,0.024597,-0.001389,-0.00042700000000000013
288,2.88,0.033225,-0.031349,0.020873,0.023528999999999998,-0.001389,-0.001495
289,2.89,0.013974,-0.019793,-0.03044,0.022476,0.000732,-0.001495
290,2.9,-0.00048100000000000047,-0.021226,-0.037508,0.019272,-0.000336,-0.00042699999999999997
291,2.91,0.013948999999999998,-0.017434,-0.034533,0.016083,0.000732,-0.001495
292,2.92,0.023854,-0.021305,0.020994,0.010757,-0.00033599999999999993,-0.00042700000000000013
293,2.93,0.010523999999999999,0.003829,-0.051703,0.0064849999999999994,0.001801,-0.001495
294,2.94,0.030204,-0.021814000000000004,-0.027469999999999998,0.0022280000000000004,0.000732,-0.0047
295,2.95,0.006595,-0.01806,-0.038126,-0.0020290000000000004,0.006058,-0.0047
296,2.96,-0.006834000000000001,-0.028332999999999997,-0.007982,-0.006287,0.008194,-0.007889
297,2.97,-0.074088,-0.004848,-0.014283,-0.005234,0.010329999999999999,-0.0047
298,2.98,-0.059979,0.016781,0.014344999999999998,-0.003098,0.012451,-0.0047
299,2.99,-0.05683200000000001,0.027475,0.017206,0.00116,0.014587000000000001,-0.0014949999999999998
300,3.0,-0.026688,0.014172,0.008354,0.005432,0.015656,-0.0047
301,3.01,-0.020207,-0.026220999999999998,-0.029862,0.003296,0.016708,-0.0047
302,3.02,-0.024543000000000002,-0.03288,-0.018829,0.00116,0.010329999999999999,-0.003632
303,3.03,-0.034274,-0.035838,-0.029435000000000003,-0.003098,0.010329999999999999,-0.003632
304,3.04,-0.06360299999999999,-0.030430000000000002,-0.040608,-0.008423,0.008194,-0.0047
305,3.05,-0.077183,-0.003224000000000001,-0.041252,-0.011627,0.008194,-0.001495
306,3.06,-0.021562000000000005,0.016364,-0.00013099999999999917,-0.013748,0.003937,0.0016940000000000002
307,3.07,-0.004847000000000001,0.005291999999999997,0.004194999999999999,-0.011627,-0.002457,0.002762
308,3.08,0.032704000000000004,0.026989,0.059142999999999994,-0.014816,-0.004593,0.002762
309,3.09,0.0030510000000000003,0.026612,0.047747000000000005,-0.014816,0.0018009999999999996,0.0038299999999999996
310,3.1,-0.011528,0.022775999999999998,0.129106,-0.011627,0.011382999999999999,-0.003632
311,3.11,-0.030937,0.023918,0.091074,-0.0073549999999999996,0.019913,-0.003632
312,3.12,-0.02926,0.031577999999999995,0.103032,-0.0041659999999999996,0.019913,-0.0047
313,3.13,-0.011735,-0.022111000000000002,0.068749,-0.0009609999999999999,0.018844999999999997,-0.003632
314,3.14,0.011163,-0.021747,-0.004156,-0.0009609999999999999,0.015656,-0.0014949999999999998
315,3.15,-0.002353,0.024097,-0.043969,-0.005234,0.013519,-0.001495
316,3.16,-0.012163,0.0038769999999999994,-0.075199,-0.009491,0.011382999999999999,0.0006259999999999999
317,3.17,0.010076,0.012691,-0.094586,-0.005234,0.010329999999999999,0.004898
318,3.18,0.026944,-0.009876000000000001,-0.12298900000000001,-0.010559,0.0039369999999999995,0.0016940000000000002
319,3.19,-0.009261000000000002,0.034869999999999984,-0.117577,-0.016953,0.0039369999999999995,0.002762
320,3.2,0.015616,0.008605,-0.158724,-0.024399,0.007126,-0.001495
321,3.21,-0.035029000000000005,-0.040629000000000005,-0.10944200000000001,-0.032928,0.011382999999999999,-0.003632
322,3.22,0.005148,-0.049918000000000004,-0.07433200000000001,-0.037186000000000004,0.012451,-0.006821
323,3.23,0.008256999999999999,-0.060016,-0.068858,-0.040375,0.016708,-0.007889
324,3.24,0.064761,-0.02876,0.023863,-0.040375,0.022049000000000003,-0.011093
325,3.25,0.042545,-0.005717,0.014581,-0.040375,0.026306,-0.011093
326,3.26,-0.014054999999999998,0.032443,0.039514999999999995,-0.043579,0.029495,-0.01535
327,3.27,-0.090962,0.033768,0.033382,-0.049973000000000004,0.035889,-0.021744
328,3.28,-0.16175699999999998,-0.035282,0.009322,-0.053162,0.034821,-0.027069
329,3.29,-0.24966999999999998,-0.08260499999999997,-0.103867,-0.06488,0.039093,-0.028137
330,3.3,-0.29001,-0.10491199999999999,-0.158149,-0.078735,0.046539,-0.026001
331,3.31,-0.187634,-0.075575,-0.248615,-0.100037,0.049744,-0.032394
332,3.32,-0.35122600000000004,-0.050591000000000004,-0.28215100000000004,-0.136261,0.089157,-0.052627999999999994
333,3.33,-1.08044,-0.104682,0.035101999999999994,-0.232132,0.262787,-0.124008
334,3.34,-1.534203,-0.131191,0.234704,-0.27473400000000003,0.369324,-0.139984
335,3.35,-1.818659,-0.186655,0.417239,-0.294983,0.467316,-0.13677999999999998
336,3.36,-1.859661,-0.133684,0.451664,-0.27473400000000003,0.528046,-0.12294000000000001
337,3.37,-1.5655270000000001,0.016425999999999996,0.276965,-0.220413,0.539764,-0.10057100000000001
338,3.38,-0.8685290000000001,0.22681199999999999,-0.019717999999999986,-0.15223699999999998,0.467316,-0.07180800000000001
339,3.39,-0.107085,0.313321,-0.268514,-0.078735,0.354401,-0.034515
340,3.4,0.49555,0.16401,-0.543067,-0.027602999999999996,0.255341,-0.004699999999999999
341,3.41,0.883942,0.0018159999999999984,-0.824248,-0.01268,0.157333,0.007019
342,3.42,0.923566,-0.16886099999999998,-0.9927870000000001,-0.038254,0.069977,0.004898
343,3.43,0.52717,-0.221019,-0.9261020000000001,-0.08725,0.005004999999999999,-0.003632
344,3.44,-0.155659,-0.12038,-0.784885,-0.13731400000000002,-0.019500999999999998,-0.010025
345,3.45,-0.753456,0.136747,-0.6057100000000001,-0.165024,-0.0013889999999999994,-0.020676
346,3.46,-1.172458,0.340027,-0.515183,-0.16181900000000002,0.02417,-0.026001
347,3.47,-1.410959,0.5099060000000001,-0.45301899999999995,-0.145844,0.080627,-0.026001
348,3.48,-1.371389,0.556087,-0.449186,-0.134125,0.13708499999999998,-0.036652
349,3.49,-1.2775040000000002,0.49930699999999995,-0.337497,-0.111755,0.19461099999999998,-0.045181
350,3.5,-1.165153,0.371291,-0.24573299999999998,-0.082993,0.262787,-0.054764
351,3.51,-1.161346,0.23496799999999998,-0.24328000000000002,-0.058487,0.30433699999999997,-0.073929
352,3.52,-1.1913200000000002,0.08021,-0.265235,-0.039322,0.31605500000000003,-0.083527
353,3.53,-1.150298,-0.13286199999999998,-0.315316,-0.015884,0.31605500000000003,-0.080322
354,3.54,-0.992451,-0.226016,-0.372733,-0.006287,0.29155,-0.072876
355,3.55,-0.8616469999999999,-0.270482,-0.283886,-0.013748,0.256393,-0.065414
356,3.56,-0.674942,-0.215498,-0.109504,-0.024399,0.223373,-0.05583200000000001
357,3.57,-0.528166,-0.12176300000000001,0.006435999999999997,-0.023331,0.18928499999999998,-0.03772
358,3.58,-0.30904499999999996,-0.12207799999999999,0.123945,-0.009491,0.15094000000000002,-0.020676
359,3.59,-0.019558999999999997,-0.215002,0.266786,-0.002029,0.107269,-0.007889
360,3.6,0.127662,-0.357804,0.288179,-0.0041659999999999996,0.068909,-0.0004269999999999999
361,3.61,0.315166,-0.515231,0.235859,0.0011599999999999994,0.0327,0.0006259999999999999
362,3.62,0.358719,-0.654302,0.09328600000000001,-0.007354999999999999,-0.018433,-0.001495
363,3.63,0.389903,-0.767766,0.011615,-0.028671,-0.075958,-0.0047
364,3.64,0.6416649999999999,-0.775568,-0.094083,-0.061690999999999996,-0.146271,-0.003632
365,3.65,0.909183,-0.7639060000000001,-0.246261,-0.0979,-0.23255900000000002,0.007019
366,3.66,1.306648,-0.6700050000000001,-0.304265,-0.13305699999999998,-0.325241,0.017669999999999998
367,3.67,1.7383330000000001,-0.504269,-0.319465,-0.17247,-0.426437,0.035782
368,3.68,2.086955,-0.06728899999999999,-0.377972,-0.201233,-0.49461400000000005,0.052826
369,3.69,2.378115,0.322815,-0.405778,-0.20762600000000003,-0.5212399999999999,0.062424
370,3.7,2.311649,0.644279,-0.590075,-0.185257,-0.5201720000000001,0.061355999999999994
371,3.71,1.842109,0.851196,-0.83025,-0.155426,-0.49568199999999996,0.054962000000000004
372,3.72,1.1802780000000002,1.113383,-1.164619,-0.10856600000000001,-0.446671,0.060287
373,3.73,0.48163500000000004,1.281839,-1.609246,-0.046768000000000004,-0.379562,0.08052100000000001
374,3.74,-0.14413500000000004,1.253592,-1.9818919999999998,0.0022280000000000012,-0.314575,0.11460899999999999
375,3.75,-0.536362,1.118415,-2.137715,0.025664999999999997,-0.22935500000000003,0.159363
376,3.76,-0.652221,0.847701,-2.221542,0.005431999999999999,-0.130295,0.19664
377,3.77,-0.434475,0.500687,-2.093867,-0.055298,-0.049332,0.221146
378,3.78,-0.236448,0.175086,-1.723613,-0.12027,-0.008850000000000002,0.23819
379,3.79,0.08016600000000003,-0.008151999999999994,-1.339542,-0.156494,-0.009918000000000001,0.26055900000000004
380,3.8,0.451039,-0.09438099999999999,-1.077302,-0.16714500000000002,-0.036545,0.285065
381,3.81,0.726005,-0.27216599999999996,-1.006341,-0.15863,-0.073837,0.308487
382,3.82,0.881376,-0.493688,-0.9912770000000001,-0.135193,-0.119644,0.321274
383,3.83,0.91715,-0.7303270000000001,-1.14237,-0.110687,-0.15373199999999998,0.318085
384,3.84,0.8636530000000001,-0.9485239999999999,-1.262516,-0.10429400000000001,-0.193146,0.297836
385,3.85,0.8547610000000001,-1.013333,-1.327536,-0.10429400000000001,-0.216583,0.264816
386,3.86,0.880994,-0.9336610000000001,-1.402895,-0.111755,-0.228302,0.221146
387,3.87,0.745929,-0.7021029999999999,-1.386624,-0.11708099999999999,-0.228302,0.17533900000000002
388,3.88,0.755137,-0.5377430000000001,-1.396916,-0.11708099999999999,-0.212311,0.134857
389,3.89,0.636954,-0.38559099999999996,-1.348841,-0.103226,-0.193146,0.097565
390,3.9,0.535246,-0.289781,-1.337802,-0.08618200000000001,-0.169708,0.06987
391,3.91,0.33163000000000004,-0.253163,-1.2344469999999998,-0.07020599999999999,-0.161179,0.049637
392,3.92,0.158626,-0.17335,-1.2551299999999999,-0.051041,-0.146271,0.040054
393,3.93,-0.009084999999999996,-0.110568,-1.24567,-0.035049000000000004,-0.120697,0.042175
394,3.94,-0.104747,0.053391,-1.242217,-0.01268,-0.08128400000000001,0.038986
395,3.95,-0.23174,0.16702899999999998,-1.244083,0.01181,-0.033356,0.029388
396,3.96,-0.34439699999999995,0.329518,-1.22332,0.044846,0.033752,0.013412
397,3.97,-0.39350300000000005,0.565103,-1.241019,0.089584,0.102997,-0.0014950000000000002
398,3.98,-0.34061199999999997,0.617879,-1.308016,0.14283800000000002,0.179703,-0.007889
399,3.99,-0.19634400000000002,0.614408,-1.442806,0.201431,0.24362199999999998,-0.007889
400,4.0,0.088974,0.519713,-1.516067,0.24937399999999998,0.281967,-0.007889
401,4.01,0.339565,0.483335,-1.545605,0.29943800000000004,0.301147,-0.006821
402,4.02,0.574858,0.33811399999999997,-1.5742040000000002,0.344177,0.306473,0.005965999999999999
403,4.03,0.736872,0.171213,-1.668323,0.361221,0.295822,0.021942
404,4.04,0.8445879999999999,-0.024324000000000002,-1.674814,0.365479,0.272385,0.03685
405,4.05,0.8881379999999999,-0.050642,-1.688869,0.364426,0.25853000000000004,0.052826
406,4.06,0.675371,-0.057487,-1.770087,0.360153,0.256393,0.061355999999999994
407,4.07,0.35599400000000003,-0.07845099999999999,-1.797036,0.358032,0.254272,0.068802
408,4.08,0.139464,-0.198853,-1.787367,0.343109,0.279831,0.075195
409,4.09,0.088354,-0.331667,-1.740652,0.29518099999999997,0.31605500000000003,0.074142
410,4.1,0.08951,-0.408233,-1.789975,0.242981,0.34481799999999996,0.058151
411,4.11,0.184746,-0.185818,-1.8235119999999998,0.215286,0.355469,0.045380000000000004
412,4.12,0.518742,0.12939099999999998,-1.9430759999999998,0.201431,0.378906,0.049637
413,4.13,0.832023,0.41886899999999994,-1.992523,0.192917,0.41299399999999997,0.060287
414,4.14,1.090423,0.671926,-1.9500939999999998,0.187592,0.44175699999999996,0.068802
415,4.15,1.231667,0.899328,-1.964323,0.187592,0.45986899999999997,0.06668099999999999
416,4.16,1.287735,1.099789,-2.0703869999999998,0.207825,0.46412700000000007,0.058151
417,4.17,1.280117,1.232607,-2.188684,0.24191300000000002,0.45347600000000005,0.046432
418,4.18,1.2974459999999999,1.2590709999999998,-2.327442,0.286652,0.442825,0.033661
419,4.19,1.307333,1.231457,-2.530539,0.334595,0.43536400000000003,0.013412
420,4.2,1.3055700000000001,1.2442870000000001,-2.7044580000000003,0.38147,0.433228,-0.0014949999999999998
421,4.21,1.3431959999999998,1.4183299999999999,-2.7970200000000003,0.40916399999999997,0.43003800000000003,-0.013213999999999998
422,4.22,1.417573,1.7849540000000002,-2.631431,0.41448999999999997,0.387421,-0.012145999999999999
423,4.23,1.637564,2.178594,-2.256132,0.386795,0.311798,0.009155
424,4.24,2.182014,2.6506849999999997,-1.6745150000000002,0.33671599999999996,0.23083499999999998,0.046432
425,4.25,2.690055,3.065285,-0.848089,0.29836999999999997,0.14135699999999998,0.070938
426,4.26,2.824781,3.180286,0.08947500000000003,0.3069,0.029495,0.065613
427,4.27,2.639586,2.877316,0.8764689999999999,0.333527,-0.089813,0.061355999999999994
428,4.28,2.2676830000000003,2.167268,1.505892,0.370804,-0.171829,0.072006
429,4.29,1.485941,1.5131569999999999,1.679875,0.40489200000000003,-0.164383,0.094376
430,4.3,0.4789249999999999,0.854424,1.5480559999999999,0.427277,-0.06318700000000001,0.107162
431,4.31,-0.548215,-0.013411000000000006,1.6839810000000002,0.42939799999999995,0.041214,0.103958
432,4.32,-1.4012,-0.9888899999999999,2.134801,0.415558,0.11792000000000001,0.095444
433,4.33,-2.2147759999999996,-1.84162,2.681873,0.369751,0.19461099999999998,0.11355599999999999
434,4.34,-2.676175,-2.240047,2.988886,0.28772,0.27131700000000003,0.151901
435,4.35,-2.698021,-2.057668,2.905469,0.19931,0.334167,0.184921
436,4.36,-2.504746,-1.3217729999999999,2.471317,0.13325499999999998,0.34481799999999996,0.195572
437,4.37,-2.05852,-0.44887200000000005,1.804346,0.104492,0.293686,0.158295
438,4.38,-1.395318,0.449841,1.1294469999999999,0.07572899999999999,0.166916,0.101837
439,4.39,-0.450801,1.07728,0.705379,0.020340000000000004,0.027374,0.034714
440,4.4,0.297171,1.456617,0.611768,-0.04676799999999999,-0.085556,-0.041977
441,4.41,1.051293,1.522908,0.749243,-0.078735,-0.145203,-0.101639
442,4.42,1.525187,1.132508,0.835081,-0.058487,-0.160126,-0.16449
443,4.43,1.802821,0.676847,0.788845,0.003295999999999997,-0.171829,-0.219879
444,4.44,1.853193,0.304771,0.600498,0.057616999999999995,-0.19953900000000002,-0.28166199999999997
445,4.45,1.534648,-0.19062000000000004,0.427446,0.070404,-0.222977,-0.333862
446,4.46,1.1879819999999999,-0.817742,0.386447,0.029922000000000004,-0.235748,-0.374344
447,4.47,0.835767,-1.48906,0.293163,-0.027602999999999996,-0.269836,-0.41801499999999997
448,4.48,0.26816599999999996,-1.915873,0.148001,-0.076599,-0.312454,-0.45956400000000003
449,4.49,-0.319153,-2.209668,0.0003790000000000043,-0.11708099999999999,-0.320969,-0.47979700000000003
450,4.5,-0.793932,-2.307927,-0.229064,-0.16181900000000002,-0.299667,-0.48939499999999997
451,4.51,-1.130067,-2.4195029999999997,-0.411695,-0.212952,-0.280487,-0.498978
452,4.52,-1.441071,-2.3633610000000003,-0.49199499999999996,-0.258759,-0.27623000000000003,-0.507492
453,4.53,-1.639679,-2.173885,-0.45357600000000003,-0.286453,-0.285812,-0.5117649999999999
454,4.54,-1.687229,-1.94144,-0.325364,-0.291779,-0.31778,-0.49791
455,4.55,-1.487259,-1.646993,-0.29394899999999996,-0.286453,-0.36038200000000004,-0.468079
456,4.56,-0.998765,-1.486558,-0.212732,-0.270477,-0.41578699999999996,-0.425476
457,4.57,-0.492238,-1.47299,-0.164889,-0.240646,-0.465851,-0.37541199999999997
458,4.58,-0.23423000000000002,-1.407605,-0.23679699999999998,-0.20550500000000002,-0.502075,-0.323212
459,4.59,-0.16279100000000002,-1.349217,-0.37437,-0.17247,-0.526566,-0.267807
460,4.6,-0.190391,-1.4107180000000001,-0.47394200000000003,-0.143707,-0.541489,-0.212418
461,4.61,-0.42629399999999995,-1.489671,-0.5540430000000001,-0.12454200000000001,-0.532959,-0.159164
462,4.62,-0.85534,-1.4792040000000002,-0.7006020000000001,-0.12454200000000001,-0.5084529999999999,-0.116547
463,4.63,-1.231658,-1.421949,-0.803711,-0.119217,-0.465851,-0.07713300000000001
464,4.64,-1.546894,-1.145389,-0.9575790000000001,-0.103226,-0.41365100000000005,-0.040909
465,4.65,-1.664795,-0.73149,-0.951677,-0.058487,-0.36998000000000003,-0.010025
466,4.66,-1.55277,-0.144125,-0.843824,0.023528999999999998,-0.345474,0.026199
467,4.67,-1.333847,0.238064,-0.79619,0.13325499999999998,-0.342285,0.05921900000000001
468,4.68,-1.000925,0.405957,-0.893172,0.255768,-0.344406,0.075195
469,4.69,-0.640984,0.354856,-1.0536290000000001,0.370804,-0.36145,0.081589
470,4.7,-0.470674,0.111029,-1.136305,0.445374,-0.36145,0.073074
471,4.71,-0.517416,-0.168454,-1.2223389999999998,0.46348599999999995,-0.359329,0.049637
472,4.72,-0.7175819999999999,-0.31636,-1.369349,0.436859,-0.3508,0.030456999999999998
473,4.73,-0.811606,-0.357476,-1.4334129999999998,0.365479,-0.33056599999999997,0.02301
474,4.74,-1.217733,-0.34528200000000003,-1.230599,0.239777,-0.29541,0.033661
475,4.75,-1.799382,-0.348089,-0.7878689999999999,0.08638000000000001,-0.16864,0.064545
476,4.76,-2.5360150000000004,0.20343099999999995,-0.639971,-0.040375,0.019913,0.07733200000000001
477,4.77,-3.006038,1.164277,-0.9317219999999999,-0.09364299999999999,0.115784,0.045380000000000004
478,4.78,-2.515157,2.108238,-1.50783,-0.038254,0.054001,0.009155
479,4.79,-1.205473,2.475701,-2.000866,0.06401099999999997,-0.07809400000000001,-0.0047
480,4.8,0.06469199999999986,2.512135,-2.368895,0.15776099999999998,-0.171829,-0.022797
481,4.81,1.255601,2.780355,-2.48489,0.214218,-0.277298,-0.07499700000000001
482,4.82,2.371238,3.437185,-2.4733419999999997,0.2547,-0.431763,-0.16661099999999998
483,4.83,2.621229,4.000813,-1.7205759999999999,0.321808,-0.62883,-0.24971
484,4.84,2.332157,4.499849,-0.981406,0.385727,-0.759857,-0.325333
485,4.85,0.5903420000000001,4.17842,0.19856400000000013,0.377197,-0.839752,-0.39564499999999997
486,4.86,-1.481131,2.822751,1.9524540000000001,0.380402,-0.715118,-0.37541199999999997
487,4.87,-2.7333369999999997,1.395051,3.096864,0.49118,-0.489288,-0.316818
488,4.88,-2.8755990000000002,0.8392709999999999,3.4461269999999997,0.580673,-0.298599,-0.29870599999999997
489,4.89,-2.422768,0.27924299999999996,3.319812,0.559357,-0.198471,-0.300842
490,4.9,-1.305874,-0.26865700000000003,3.148586,0.48159799999999997,-0.197403,-0.309357
491,4.91,0.154683,-0.637877,3.006368,0.420883,-0.259186,-0.322144
492,4.92,1.790459,-0.702652,2.811728,0.387848,-0.325241,-0.34132399999999996
493,4.93,3.057265,-0.741106,2.528396,0.348434,-0.374237,-0.372208
494,4.94,3.577835,-0.6034189999999999,2.036274,0.26535,-0.36145,-0.411621
495,4.95,3.201373,0.045798000000000005,1.420402,0.116211,-0.30499299999999996,-0.45423900000000006
496,4.96,1.721168,1.0752899999999999,0.928687,-0.05636600000000001,-0.236816,-0.44677700000000004
497,4.97,-0.038024000000000065,2.018713,1.117138,-0.17993199999999998,-0.120697,-0.350906
498,4.98,-1.237062,2.3660740000000002,1.443139,-0.22254899999999997,0.036957,-0.201767
499,4.99,-1.8877970000000002,2.178328,1.591114,-0.217209,0.188217,-0.03878799999999999
500,5.0,-2.073934,1.727566,1.493854,-0.192719,0.292618,0.114609
501,5.01,-1.7567959999999998,1.08446,1.4789709999999998,-0.155426,0.32991,0.246704
502,5.02,-1.154776,0.257497,1.423834,-0.088318,0.328842,0.352173
503,5.03,-0.374129,-0.536552,1.22759,-0.039322,0.321381,0.42781099999999994
504,5.04,0.4644079999999999,-1.3826829999999999,1.043344,-0.026535000000000003,0.290482,0.465088
505,5.05,0.97403,-2.1207540000000003,0.76955,-0.030792,0.265991,0.48106400000000005
506,5.06,1.264977,-2.867537,0.522279,-0.051041,0.25746199999999997,0.478943
507,5.07,1.250502,-3.3208949999999997,0.302616,-0.0979,0.245743,0.456558
508,5.08,1.0609389999999999,-3.656194,0.145756,-0.16714500000000002,0.215927,0.439514
509,5.09,0.826557,-3.641921,-0.12463100000000002,-0.239594,0.18395999999999998,0.436325
510,5.1,0.586956,-3.341615,-0.21333600000000003,-0.31842,0.163727,0.43739300000000003
511,5.11,0.402821,-2.752996,-0.21815700000000002,-0.396179,0.173309,0.432068
512,5.12,0.319983,-1.9364709999999998,-0.089143,-0.452637,0.212723,0.40969799999999995
513,5.13,0.27579899999999996,-1.238423,0.13001500000000002,-0.477142,0.27876300000000004,0.370285
514,5.14,0.22966799999999998,-0.669268,0.331462,-0.46221899999999994,0.357605,0.309555
515,5.15,0.08858400000000001,-0.37198400000000004,0.47631,-0.411087,0.434296,0.254166
516,5.16,0.14541500000000002,-0.26998099999999997,0.45603999999999995,-0.333328,0.493958,0.211548
517,5.17,0.24768099999999998,-0.412973,0.39003699999999997,-0.23745700000000003,0.5184479999999999,0.17640699999999998
518,5.18,0.434539,-0.738317,0.111348,-0.154358,0.50354,0.148697
519,5.19,0.7436119999999999,-1.098616,-0.285535,-0.095779,0.43855299999999997,0.124207
520,5.2,1.087666,-1.319392,-0.536203,-0.061690999999999996,0.338425,0.10609400000000001
521,5.21,1.491775,-1.461982,-0.704563,-0.033997,0.223373,0.087982
522,5.22,1.7441810000000002,-1.337279,-0.809342,-0.004166,0.116852,0.058151
523,5.23,1.67838,-1.1347770000000001,-0.8233860000000001,0.030991,0.036957,0.016617
524,5.24,1.417734,-0.790762,-0.82581,0.068268,0.007126000000000001,-0.019608
525,5.25,0.9161379999999999,-0.546966,-0.8531780000000001,0.107697,0.020981,-0.060089
526,5.26,0.37890100000000004,-0.371433,-0.840744,0.14816300000000002,0.060394,-0.10057100000000001
527,5.27,-0.10898499999999998,-0.216712,-0.897393,0.182251,0.10939000000000002,-0.129333
528,5.28,-0.354338,-0.106623,-0.810652,0.196106,0.167984,-0.153824
529,5.29,-0.41970799999999997,-0.014774999999999996,-0.735274,0.182251,0.21698,-0.167679
530,5.3,-0.229859,0.058863,-0.7172970000000001,0.16095,0.273438,-0.18046600000000002
531,5.31,0.188872,0.120926,-0.7674449999999999,0.14711,0.32563800000000004,-0.186859
532,5.32,0.637839,0.099812,-0.857088,0.135391,0.334167,-0.190048
533,5.33,0.965097,0.250258,-0.9904299999999999,0.116211,0.339493,-0.178329
534,5.34,1.125899,0.7260300000000001,-1.232275,0.106628,0.360794,-0.16128499999999998
535,5.35,1.075861,1.295716,-1.445606,0.117279,0.378906,-0.143173
536,5.36,0.832966,1.737373,-1.74596,0.139648,0.353333,-0.12187200000000001
537,5.37,0.717498,1.731941,-1.9362580000000003,0.16841099999999998,0.273438,-0.088852
538,5.38,0.659974,1.473049,-2.119248,0.198242,0.195679,-0.035583
539,5.39,0.552279,1.371774,-2.505933,0.237656,0.17012,0.005965999999999999
540,5.4,0.49689300000000003,1.456317,-2.9306490000000003,0.274933,0.182892,0.047501
541,5.41,0.344012,1.7788400000000002,-3.170096,0.289856,0.24894699999999997,0.081589
542,5.42,0.20389100000000002,2.433505,-3.0892169999999997,0.26109299999999996,0.33628800000000003,0.12207
543,5.43,0.402789,3.2239560000000003,-2.558306,0.205688,0.392746,0.17745999999999998
544,5.44,0.995866,3.643053,-1.616095,0.11514300000000001,0.423645,0.23819
545,5.45,2.070949,3.37264,-0.3472859999999999,0.040573000000000005,0.350143,0.263748
546,5.46,3.221524,2.5801580000000004,1.045884,0.037384,0.153076,0.249908
547,5.47,3.6314660000000005,1.1648370000000001,2.861613,0.12260399999999999,-0.10153199999999997,0.221146
548,5.48,3.364729,0.331394,3.6666260000000004,0.12579300000000002,-0.208054,0.244583
549,5.49,2.8509700000000002,-0.4050099999999999,4.076848,0.052292,-0.292206,0.278671
550,5.5,1.569346,-0.8595790000000001,4.042937,-0.022278,-0.28476,0.301041
551,5.51,0.09717900000000003,-1.161217,3.745232,-0.010559,-0.22723400000000002,0.311691
552,5.52,-1.124923,-1.546339,3.345303,0.095978,-0.211258,0.299973
553,5.53,-2.144367,-1.8372,2.7250520000000003,0.22380100000000003,-0.23788499999999999,0.28186
554,5.54,-3.065705,-1.560484,1.928854,0.283463,-0.27623000000000003,0.26055900000000004
555,5.55,-3.260559,-0.687304,1.117381,0.23445100000000002,-0.332687,0.24244699999999997
556,5.56,-2.24811,0.41412299999999996,0.5741109999999999,0.11941500000000001,-0.41685500000000003,0.222214
557,5.57,-0.657461,1.3282,0.23969200000000002,-0.014816000000000003,-0.48715200000000003,0.17640699999999998
558,5.58,0.9019590000000001,1.8784419999999997,0.225144,-0.130936,-0.542542,0.11035199999999999
559,5.59,2.198066,1.9056389999999999,0.48527299999999995,-0.231064,-0.583023,0.024063
560,5.6,2.850004,1.455294,0.8310059999999999,-0.325867,-0.587296,-0.069672
561,5.61,2.893415,0.746326,1.1391879999999999,-0.380203,-0.586227,-0.16449
562,5.62,2.505141,0.166977,1.336999,-0.36741599999999996,-0.608597,-0.24971
563,5.63,1.7478650000000002,-0.28505199999999997,1.563919,-0.314148,-0.635223,-0.32428
564,5.64,0.728182,-0.914891,1.548326,-0.27473400000000003,-0.699142,-0.38818400000000003
565,5.65,0.43272200000000005,-1.3105149999999999,1.309653,-0.27368200000000004,-0.758804,-0.420151
566,5.66,0.186548,-1.609591,1.011483,-0.286453,-0.8078,-0.457428
567,5.67,0.120104,-1.992176,0.884915,-0.314148,-0.836563,-0.48832700000000007
568,5.68,-0.141724,-2.23464,0.773461,-0.35037199999999996,-0.8450780000000001,-0.533066
569,5.69,-0.603617,-2.289929,0.59528,-0.381271,-0.8472139999999999,-0.562897
570,5.7,-0.998207,-2.1099509999999997,0.41870799999999997,-0.396179,-0.848282,-0.557571
571,5.71,-1.316499,-1.77575,0.29099200000000003,-0.39831500000000003,-0.860001,-0.523483
572,5.72,-1.480064,-1.518875,0.190551,-0.39299,-0.871719,-0.47553999999999996
573,5.73,-1.517617,-1.3904809999999999,0.10379100000000001,-0.370621,-0.880234,-0.41801499999999997
574,5.74,-1.460302,-1.444094,0.079622,-0.335464,-0.889832,-0.354095
575,5.75,-1.2685739999999999,-1.607035,0.117398,-0.291779,-0.8962100000000001,-0.284851
576,5.76,-1.17116,-1.808084,-0.030362000000000014,-0.248108,-0.889832,-0.214554
577,5.77,-1.102566,-1.992794,-0.21532300000000001,-0.220413,-0.857864,-0.146378
578,5.78,-1.133098,-2.0747009999999997,-0.393808,-0.218277,-0.793945,-0.084595
579,5.79,-1.1923469999999998,-2.009362,-0.6110909999999999,-0.235321,-0.724716,-0.034515
580,5.8,-1.278758,-1.684712,-0.793966,-0.25663800000000003,-0.657593,0.002762000000000001
581,5.81,-1.3085879999999999,-1.020311,-0.8544149999999999,-0.270477,-0.603271,0.032593000000000004
582,5.82,-1.273622,-0.235015,-0.9012700000000001,-0.249176,-0.561722,0.051758000000000005
583,5.83,-1.067399,0.42528,-0.8785350000000001,-0.190582,-0.519119,0.052826
584,5.84,-0.715599,0.790499,-0.935759,-0.11708099999999999,-0.48289499999999996,0.032593000000000004
585,5.85,-0.475438,0.617063,-0.8554709999999999,-0.013747999999999995,-0.44773900000000005,0.005965999999999999
586,5.86,-0.185879,0.443399,-0.8416600000000001,0.079987,-0.39447,-0.054764
587,5.87,0.106768,0.354862,-0.8831829999999999,0.124741,-0.387024,-0.129333
588,5.88,0.209056,0.150522,-0.951033,0.143906,-0.45094300000000004,-0.17086800000000002
589,5.89,0.33005100000000004,-0.359031,-0.74553,0.18012999999999998,-0.5681149999999999,-0.126129
590,5.9,0.692473,-0.717199,-0.552403,0.214218,-0.6586609999999999,-0.03772
591,5.91,0.676887,-0.627398,-0.581561,0.188644,-0.656525,0.046432
592,5.92,0.08684999999999997,-0.019208999999999976,-0.732997,0.087448,-0.5681149999999999,0.076263
593,5.93,-0.7391730000000001,1.067626,-1.048824,-0.049973,-0.48396300000000003,0.02301
594,5.94,-1.713079,1.937662,-1.3658540000000001,-0.145844,-0.490356,-0.067551
595,5.95,-2.238785,2.523438,-1.580597,-0.135193,-0.52977,-0.141052
596,5.96,-2.086519,2.749963,-1.7289459999999999,-0.019072999999999996,-0.560654,-0.177261
597,5.97,-1.223523,2.801612,-1.838875,0.137512,-0.599014,-0.191116
598,5.98,0.34979200000000005,3.0337709999999998,-1.8406759999999998,0.273865,-0.724716,-0.182587
599,5.99,1.802257,3.632401,-1.518014,0.374008,-0.965454,-0.178329
600,6.0,2.991572,4.200367,-0.7688229999999999,0.415558,-1.175308,-0.223068
601,6.01,2.74859,3.882215,0.544557,0.387848,-1.259476,-0.247574
602,6.02,1.5354079999999999,2.813542,1.751627,0.361221,-1.086899,-0.228394
603,6.03,0.43593,1.956334,2.5558680000000003,0.360153,-0.879166,-0.235855
604,6.04,-0.31811799999999996,1.422092,3.330369,0.35482800000000003,-0.779037,-0.257156
605,6.05,-0.246658,0.6185729999999999,4.195999,0.281326,-0.73642,-0.253967
606,6.06,0.293624,-0.11261600000000001,4.511243,0.164154,-0.726837,-0.277405
607,6.07,0.734657,-0.641292,4.382708,0.10981800000000001,-0.775848,-0.332794
608,6.08,1.490122,-0.7519170000000001,3.8313040000000003,0.17266800000000002,-0.790756,-0.374344
609,6.09,2.27818,-0.5929989999999999,2.737631,0.25044299999999997,-0.79715,-0.38179
610,6.1,2.883938,-0.256266,1.722906,0.23445100000000002,-0.818451,-0.350906
611,6.11,3.0853080000000004,0.428738,1.097415,0.13858,-0.8109890000000001,-0.28166199999999997
612,6.12,2.304718,1.0582209999999999,0.666984,0.027801999999999997,-0.732162,-0.185791
613,6.13,1.156203,1.289193,0.389681,-0.07341,-0.588348,-0.062225
614,6.14,0.05122300000000002,1.056483,0.388547,-0.192719,-0.43708800000000003,0.06347699999999999
615,6.15,-1.134113,0.8201200000000001,0.596083,-0.314148,-0.281555,0.167877
616,6.16,-1.7856459999999998,0.500154,0.8350870000000001,-0.39299,-0.179291,0.261627
617,6.17,-1.763341,-0.10466099999999998,1.17926,-0.400436,-0.160126,0.33619699999999997
618,6.18,-1.2674379999999998,-0.7806489999999999,1.411129,-0.35463,-0.175034,0.39370700000000003
619,6.19,-0.48709399999999997,-1.429568,1.408962,-0.28433200000000003,-0.19953900000000002,0.438461
620,6.2,0.408036,-2.10695,1.2060110000000002,-0.210831,-0.236816,0.449112
621,6.21,1.259342,-2.604916,0.799549,-0.155426,-0.279434,0.443787
622,6.22,1.861111,-3.018309,0.3076760000000001,-0.12454200000000001,-0.318848,0.421417
623,6.23,2.2480599999999997,-3.193897,-0.21436100000000002,-0.134125,-0.320969,0.390518
624,6.24,2.27047,-3.151376,-0.671545,-0.18418900000000002,-0.302872,0.357498
625,6.25,1.991139,-2.9032869999999997,-1.0245790000000001,-0.26408400000000004,-0.263443,0.328735
626,6.26,1.574474,-2.406015,-1.106044,-0.35676599999999997,-0.22935500000000003,0.305298
627,6.27,1.106001,-1.857171,-0.897667,-0.43985,-0.198471,0.275467
628,6.28,0.681361,-1.290989,-0.551049,-0.486725,-0.151596,0.247772
629,6.29,0.44013199999999997,-0.8788809999999999,-0.13461099999999998,-0.479263,-0.1026,0.216888
630,6.3,0.373119,-0.483836,0.10751400000000001,-0.422806,-0.055725,0.18066400000000002
631,6.31,0.474946,-0.284556,0.162935,-0.33226,-0.029099,0.13378900000000002
632,6.32,0.826625,-0.260436,0.200034,-0.232132,-0.045074,0.085846
633,6.33,1.077498,-0.474371,0.033324999999999994,-0.138382,-0.071701,0.032593000000000004
634,6.34,1.7040560000000002,-0.6678069999999999,-0.29179099999999997,-0.048904,-0.14094500000000001,-0.017471
635,6.35,2.140416,-1.006896,-0.588603,0.040573000000000005,-0.22403,-0.07180800000000001
636,6.36,2.466872,-1.380004,-0.897917,0.111954,-0.32310500000000003,-0.13359100000000002
637,6.37,2.738273,-1.478141,-1.18764,0.154556,-0.443481,-0.173004
638,6.38,2.931675,-1.282767,-1.414145,0.175873,-0.511658,-0.191116
639,6.39,2.940914,-0.678045,-1.655454,0.179062,-0.5233760000000001,-0.190048
640,6.4,2.544715,-0.098678,-1.8630689999999999,0.166275,-0.507401,-0.18365499999999998
641,6.41,2.023615,0.261865,-1.836818,0.135391,-0.486084,-0.16981500000000002
642,6.42,1.614449,0.314544,-1.475366,0.09277300000000001,-0.475433,-0.15809600000000001
643,6.43,1.252782,0.177281,-1.0637290000000001,0.056563999999999996,-0.462646,-0.152771
644,6.44,1.0288959999999998,0.085195,-0.6551899999999999,0.035248,-0.42218,-0.162354
645,6.45,0.972716,0.104518,-0.5221819999999999,0.033127,-0.341217,-0.190048
646,6.46,0.726329,0.6722,-0.676558,0.055496000000000004,-0.225098,-0.22201500000000002
647,6.47,0.44217700000000004,1.629146,-1.103667,0.09703099999999999,-0.082352,-0.244385
648,6.48,0.16767200000000002,2.497023,-1.535364,0.152435,0.020981000000000003,-0.23799099999999998
649,6.49,0.294435,2.690023,-1.6903669999999997,0.188644,0.007125999999999997,-0.207092
650,6.5,0.6324930000000001,2.324102,-1.521275,0.202499,-0.08342000000000001,-0.138916
651,6.51,1.374192,1.790789,-1.502235,0.230194,-0.16864,-0.043045
652,6.52,2.253767,1.662177,-1.58638,0.291977,-0.254929,0.054962000000000004
653,6.53,3.012012,2.104021,-1.6933310000000001,0.361221,-0.327362,0.148697
654,6.54,3.3065260000000003,2.833575,-1.5148540000000001,0.394241,-0.397675,0.241379
655,6.55,3.563714,3.661264,-0.818058,0.363358,-0.44560200000000005,0.35324099999999997
656,6.56,4.023267,3.8656870000000003,0.232555,0.255768,-0.44455,0.419281
657,6.57,3.9857400000000003,2.921468,1.503482,0.18012999999999998,-0.480759,0.405426
658,6.58,3.5966080000000002,1.253266,2.7764599999999997,0.21315,-0.557465,0.343643
659,6.59,3.1274759999999997,-0.535989,4.022224,0.26535,-0.659729,0.26055900000000004
660,6.6,1.9536380000000002,-1.6736830000000003,4.716461,0.244049,-0.753464,0.214752
661,6.61,0.689002,-1.8289009999999999,4.43498,0.165207,-0.77478,0.22326700000000002
662,6.62,-0.33502199999999993,-1.542295,3.7019620000000004,0.13325499999999998,-0.792892,0.256302
663,6.63,-0.832343,-1.140226,2.988846,0.190781,-0.885559,0.312759
664,6.64,-0.8936440000000001,-0.69313,2.38227,0.26109299999999996,-1.0059360000000002,0.368149
665,6.65,-1.054259,-0.209119,1.749552,0.283463,-1.0762479999999999,0.384125
666,6.66,-0.860857,0.40936,1.277749,0.24937399999999998,-1.1305690000000002,0.36601300000000003
667,6.67,-0.165676,1.111436,0.953785,0.166275,-1.1987459999999999,0.313828
668,6.68,0.741967,1.607934,0.9282309999999999,0.064011,-1.247757,0.23712199999999997
669,6.69,1.651115,1.8221580000000002,1.209219,-0.054229999999999993,-1.273315,0.147644
670,6.7,2.217789,1.485218,1.5426389999999999,-0.169281,-1.2924959999999999,0.047501
671,6.71,2.360544,1.030041,1.758188,-0.240646,-1.315933,-0.05688500000000001
672,6.72,2.247096,0.685974,1.849289,-0.229996,-1.340439,-0.168747
673,6.73,1.8573419999999998,0.30714400000000003,1.839439,-0.18100000000000002,-1.348953,-0.268875
674,6.74,1.395047,-0.245939,1.7725090000000001,-0.138382,-1.362808,-0.34876999999999997
675,6.75,0.956583,-0.837701,1.6211010000000001,-0.11389200000000001,-1.399017,-0.393509
676,6.76,0.8490059999999999,-1.37586,1.412801,-0.10536199999999998,-1.456543,-0.415894
677,6.77,0.697229,-1.775184,1.25129,-0.100037,-1.516205,-0.44251999999999997
678,6.78,0.45067700000000005,-2.163206,1.071692,-0.094711,-1.564133,-0.45530699999999996
679,6.79,0.263389,-2.3725970000000003,0.875851,-0.10536199999999998,-1.633377,-0.47021499999999994
680,6.8,0.10476400000000001,-2.382332,0.6355529999999999,-0.134125,-1.698364,-0.48193400000000003
681,6.81,-0.09103899999999998,-2.172647,0.48396300000000003,-0.17460599999999998,-1.76973,-0.471283
682,6.82,-0.261881,-1.764441,0.42231599999999997,-0.216156,-1.810211,-0.44145200000000007
683,6.83,-0.40995600000000004,-1.3880709999999998,0.439308,-0.24171399999999998,-1.811279,-0.398834
684,6.84,-0.639279,-1.182726,0.41821499999999995,-0.244919,-1.796371,-0.356232
685,6.85,-0.813896,-1.15269,0.337256,-0.227875,-1.7654720000000002,-0.310425
686,6.86,-1.053641,-1.3388200000000001,0.254079,-0.195908,-1.694107,-0.259293
687,6.87,-1.234682,-1.55303,0.10578699999999999,-0.155426,-1.595032,-0.207092
688,6.88,-1.46129,-1.675157,-0.035292000000000004,-0.111755,-1.476791,-0.163422
689,6.89,-1.749596,-1.511343,-0.220914,-0.06275900000000001,-1.347885,-0.124008
690,6.9,-1.980878,-1.1489770000000001,-0.472587,-0.026535000000000003,-1.213669,-0.084595
691,6.91,-1.978765,-0.7087600000000001,-0.672614,-0.0009610000000000018,-1.079437,-0.048369999999999996
692,6.92,-1.777813,-0.358649,-0.7537689999999999,0.022476,-0.9452209999999999,-0.014282
693,6.93,-1.26506,-0.130104,-0.92775,0.03952,-0.8450780000000001,-0.008957
694,6.94,-0.606422,-0.01199,-0.956787,0.066147,-0.787552,-0.030257999999999997
695,6.95,0.051331000000000016,0.068887,-1.023369,0.106628,-0.7524109999999999,-0.07074
696,6.96,0.590018,0.07262,-1.03057,0.140717,-0.726837,-0.10908499999999999
697,6.97,0.951033,0.009528999999999996,-1.017552,0.16734300000000002,-0.7183229999999999,-0.125076
698,6.98,1.179475,-0.11963499999999999,-1.024469,0.184387,-0.724716,-0.11441
699,6.99,1.198115,-0.388179,-1.014022,0.188644,-0.748138,-0.082458
700,7.0,1.197232,-0.39628,-1.005357,0.169479,-0.795013,-0.054764
701,7.01,0.884289,-0.124227,-1.109459,0.12579300000000002,-0.8472139999999999,-0.051559
702,7.02,0.189325,0.442179,-1.130887,0.067215,-0.8706510000000001,-0.068604
703,7.03,-0.618448,0.948522,-1.085457,0.018203999999999998,-0.834427,-0.09524500000000001
704,7.04,-1.228844,1.41117,-1.107919,0.004364,-0.763062,-0.119736
705,7.05,-1.7289700000000001,1.5937569999999999,-1.153029,0.018203999999999998,-0.684235,-0.127197
706,7.06,-1.9929240000000001,1.481472,-1.339038,0.068268,-0.621384,-0.11228900000000001
707,7.07,-1.6999799999999998,1.3056450000000002,-1.56914,0.143906,-0.612854,-0.067551
708,7.08,-1.0180850000000001,1.201453,-1.885818,0.24191300000000002,-0.668243,0.0038299999999999996
709,7.09,0.14343799999999995,1.4311180000000001,-2.180022,0.334595,-0.784363,0.06987
710,7.1,1.519124,2.312201,-2.2669200000000003,0.377197,-0.9601290000000001,0.08052100000000001
711,7.11,2.825157,3.3160309999999997,-1.8312959999999998,0.352707,-1.145493,0.033661
712,7.12,2.9846619999999997,3.5453669999999997,-0.451712,0.281326,-1.2924959999999999,0.0016939999999999993
713,7.13,2.134144,3.105586,1.667528,0.237656,-1.180649,-0.008957
714,7.14,1.697898,2.8446599999999997,3.1307,0.266418,-0.9036709999999999,-0.07499700000000001
715,7.15,0.902623,2.6525060000000003,3.8743809999999996,0.342041,-0.7428130000000001,-0.23053
716,7.16,-0.0028290000000000264,1.691287,4.24296,0.45069899999999996,-0.622437,-0.373276
717,7.17,0.280567,0.45823,3.63003,0.533798,-0.547882,-0.467026
718,7.18,0.44683100000000003,-0.9250520000000001,2.936061,0.53273,-0.621384,-0.48939499999999997
719,7.19,0.7688550000000001,-1.940781,2.705391,0.512497,-0.710861,-0.44251999999999997
720,7.2,1.776152,-2.191894,2.297234,0.46668999999999994,-0.832306,-0.359421
721,7.21,2.827147,-1.604283,1.6806709999999998,0.36228899999999997,-1.0027469999999998,-0.29444899999999996
722,7.22,3.127031,-0.517461,1.022556,0.23658800000000002,-1.157211,-0.212418
723,7.23,2.597092,0.643372,0.446622,0.104492,-1.159332,-0.10057100000000001
724,7.24,1.478026,1.558051,0.17105399999999998,-0.053162,-1.011261,0.03152499999999999
725,7.25,0.458775,1.830473,0.166481,-0.203369,-0.803543,0.18066400000000002
726,7.26,-0.520733,1.816425,0.41836599999999996,-0.30456500000000003,-0.583023,0.301041
727,7.27,-1.325112,1.54956,0.6728109999999999,-0.346115,-0.420044,0.404373
728,7.28,-1.532357,1.047142,0.8790600000000001,-0.324814,-0.31778,0.495987
729,7.29,-1.16982,0.1376739999999999,1.0910360000000001,-0.25450100000000003,-0.23895300000000003,0.566284
730,7.3,-0.4203370000000001,-0.7390460000000001,1.161253,-0.177795,-0.21444699999999997,0.603577
731,7.31,0.375789,-1.539441,1.044614,-0.11708099999999999,-0.26239,0.613159
732,7.32,0.973043,-2.246883,0.688495,-0.051041,-0.33482399999999995,0.603577
733,7.33,1.528781,-2.7858680000000002,0.181002,-0.010559,-0.40618899999999997,0.5897220000000001
734,7.34,2.040021,-3.225131,-0.22083699999999998,-0.022278,-0.442413,0.571609
735,7.35,2.1892970000000003,-3.414012,-0.579724,-0.084061,-0.431763,0.5471189999999999
736,7.36,1.999607,-3.3659209999999997,-0.777379,-0.182068,-0.392349,0.526871
737,7.37,1.431539,-2.681748,-0.8501340000000001,-0.342911,-0.315643,0.487457
738,7.38,1.124398,-1.976293,-0.722641,-0.419617,-0.271973,0.45336899999999997
739,7.39,0.8236899999999999,-1.325541,-0.391133,-0.444122,-0.22403,0.417145
740,7.4,0.443788,-0.7512479999999999,-0.01869699999999999,-0.412155,-0.15266400000000002,0.373474
741,7.41,0.202353,-0.423051,0.256641,-0.33226,-0.075958,0.334061
742,7.42,0.168009,-0.373705,0.290165,-0.227875,-0.029099,0.283997
743,7.43,0.28481,-0.616352,0.10248299999999999,-0.12773099999999998,-0.018433,0.23819
744,7.44,0.681349,-0.99077,-0.18068,-0.046768000000000004,-0.038681,0.20729099999999998
745,7.45,1.237075,-1.383263,-0.526521,0.005431999999999999,-0.079163,0.183853
746,7.46,1.800645,-1.602042,-0.857252,0.032059,-0.134552,0.157227
747,7.47,2.469073,-1.490067,-1.264181,0.03952,-0.21977199999999997,0.11781300000000001
748,7.48,2.585352,-1.129785,-1.440105,0.051224,-0.252792,0.091187
749,7.49,2.501245,-0.5595640000000001,-1.5390629999999998,0.07254,-0.280487,0.061355999999999994
750,7.5,2.377198,0.07432300000000003,-1.472357,0.102371,-0.30925,0.041107
751,7.51,2.259318,0.552531,-1.523555,0.135391,-0.342285,0.035782
752,7.52,2.038678,0.5827060000000001,-1.519733,0.154556,-0.349731,0.024063
753,7.53,1.645874,0.189763,-1.514399,0.13325499999999998,-0.301804,-0.003632
754,7.54,1.3523020000000001,-0.304636,-1.468541,0.064011,-0.22190900000000002,-0.06008899999999999
755,7.55,1.0794979999999998,-0.40519299999999997,-1.4293129999999998,-0.025467,-0.13562000000000002,-0.13359100000000002
756,7.56,0.8964840000000001,0.638824,-1.609394,-0.10643,-0.030151,-0.194305
757,7.57,0.860798,1.6846709999999998,-1.7384080000000002,-0.122406,-0.0013889999999999994,-0.18365499999999998
758,7.58,1.077426,2.509944,-1.7379830000000003,-0.10856600000000001,-0.030151,-0.130402
759,7.59,1.522147,2.70202,-1.510995,-0.063812,-0.11644000000000002,-0.065414
760,7.6,1.9785279999999998,2.6390599999999997,-1.424088,0.026733,-0.21019000000000002,0.0038299999999999996
761,7.61,2.150123,2.504637,-1.583912,0.15776099999999998,-0.28476,0.070938
762,7.62,2.044623,2.665884,-1.9272080000000003,0.284531,-0.315643,0.149765
763,7.63,1.91555,3.078398,-1.9904689999999998,0.368683,-0.31778,0.22859200000000002
764,7.64,1.839375,3.7312769999999995,-1.367683,0.391052,-0.28369099999999997,0.305298
765,7.65,2.353081,4.028593,-0.2352140000000001,0.340988,-0.22935500000000003,0.368149
766,7.66,3.01602,3.0853200000000003,1.466631,0.26853899999999997,-0.21337899999999999,0.36496
767,7.67,3.067358,1.3270899999999999,2.965065,0.25044299999999997,-0.25386,0.28932199999999997
768,7.68,2.325234,-0.16940800000000011,3.97339,0.258957,-0.301804,0.222214
769,7.69,1.2917459999999998,-1.055202,4.759822,0.22168000000000002,-0.339081,0.232864
770,7.7,0.12635200000000002,-1.048711,4.745335,0.12260399999999999,-0.315643,0.292511
771,7.71,-0.7877649999999999,-0.537028,4.221858999999999,0.052292,-0.28369099999999997,0.346848
772,7.72,-1.422035,-0.452798,3.5347699999999995,0.093842,-0.314575,0.386261
773,7.73,-1.914411,-0.514067,2.6876860000000002,0.21101399999999998,-0.367844,0.42674300000000004
774,7.74,-2.276309,-0.6298090000000001,1.803996,0.289856,-0.371048,0.439514
775,7.75,-2.529579,-0.507482,1.145417,0.237656,-0.367844,0.407562
776,7.76,-2.300675,0.20919800000000005,0.729611,0.083191,-0.38382,0.374542
777,7.77,-1.193971,0.9627680000000001,0.590345,-0.096848,-0.405136,0.352173
778,7.78,0.3710510000000001,1.547061,0.730085,-0.25450100000000003,-0.44455,0.302109
779,7.79,1.72725,1.62553,0.902718,-0.375946,-0.5201720000000001,0.216888
780,7.8,2.755707,1.498795,1.0330709999999999,-0.46221899999999994,-0.625641,0.10609400000000001
781,7.81,3.436878,1.2619340000000001,1.173785,-0.49205,-0.706604,-0.018539
782,7.82,3.453964,0.877742,1.3051,-0.47821,-0.744949,-0.146378
783,7.83,3.121045,0.258511,1.454687,-0.44091800000000003,-0.754532,-0.252899
784,7.84,2.442515,-0.46048100000000003,1.508909,-0.39724699999999996,-0.772644,-0.34558099999999997
785,7.85,1.736318,-0.937715,1.287307,-0.343979,-0.8205870000000001,-0.415894
786,7.86,1.033631,-1.419765,1.052438,-0.28965799999999997,-0.867447,-0.467026
787,7.87,0.325875,-1.739681,0.646878,-0.24171399999999998,-0.9036709999999999,-0.49577299999999996
788,7.88,-0.270565,-2.046574,0.310429,-0.231064,-0.9366909999999999,-0.5064390000000001
789,7.89,-0.578529,-2.249182,0.029492999999999988,-0.249176,-0.9718479999999999,-0.516022
790,7.9,-0.920085,-2.394888,-0.147243,-0.286453,-1.004868,-0.521347
791,7.91,-1.268786,-2.428832,-0.226192,-0.315216,-1.030441,-0.512833
792,7.92,-1.666139,-2.341561,-0.285598,-0.326935,-1.0240479999999998,-0.48300200000000004
793,7.93,-1.946025,-2.136291,-0.275255,-0.326935,-1.00914,-0.429733
794,7.94,-1.9805970000000002,-2.01228,-0.30748400000000004,-0.32054099999999996,-0.9857030000000001,-0.356232
795,7.95,-1.760886,-1.9806689999999998,-0.358614,-0.300308,-0.951614,-0.28273000000000004
796,7.96,-1.55472,-1.967777,-0.467628,-0.277939,-0.9036709999999999,-0.212418
797,7.97,-1.4183620000000001,-1.9044009999999998,-0.568742,-0.258759,-0.850403,-0.143173
798,7.98,-1.280613,-1.736948,-0.659619,-0.23745700000000003,-0.793945,-0.07074
799,7.99,-1.21001,-1.5505520000000002,-0.74469,-0.206558,-0.737488,-0.012145999999999999
800,8.0,-1.11618,-1.222304,-0.8835639999999999,-0.170349,-0.667191,0.031525
801,8.01,-1.007205,-0.967032,-1.011351,-0.123474,-0.592621,0.058151
802,8.02,-0.9100309999999999,-0.614985,-1.146626,-0.071274,-0.518051,0.065613
803,8.03,-0.810247,-0.261992,-1.302327,-0.02121,-0.47757,0.067749
804,8.04,-0.643487,0.010026999999999994,-1.356309,0.023528999999999998,-0.44773900000000005,0.06347699999999999
805,8.05,-0.47744899999999996,0.044202,-1.313542,0.048035,-0.41685500000000003,0.05921900000000001
806,8.06,-0.34655199999999997,0.025141999999999998,-1.113168,0.048035,-0.393417,0.045380000000000004
807,8.07,-0.23240999999999998,0.110024,-0.9268489999999999,0.027801999999999997,-0.40299999999999997,0.02301
808,8.08,-0.09604800000000001,0.23948200000000003,-0.823441,0.016083,-0.44773900000000005,0.011292
809,8.09,-0.034489,0.5974119999999999,-0.731513,0.015015,-0.474365,0.018738
810,8.1,-0.041066000000000005,1.029124,-0.721598,0.022476,-0.451996,0.030456999999999998
811,8.11,-0.358527,1.341487,-0.809439,0.033127,-0.36998000000000003,0.035782
812,8.12,-0.9120739999999999,1.626241,-0.945875,0.036316,-0.23788499999999999,0.029388
813,8.13,-1.7100529999999998,1.76015,-1.108614,0.037384,-0.079163,-0.005753000000000001
814,8.14,-2.381895,1.6553470000000001,-1.327969,0.066147,0.061462,-0.039841
815,8.15,-2.537074,1.705559,-1.631729,0.111954,0.15626500000000002,-0.07180800000000001
816,8.16,-1.993616,2.15055,-2.141498,0.16095,0.169052,-0.125076
817,8.17,-0.347314,3.3896330000000003,-2.300295,0.219543,0.033752,-0.207092
818,8.18,1.147923,4.229385,-1.865692,0.233398,-0.151596,-0.255035
819,8.19,2.016587,4.427058000000001,-0.6391140000000001,0.185455,-0.299667,-0.293381
820,8.2,1.178835,3.444149,1.2893219999999999,0.088516,-0.202728,-0.310425
821,8.21,-0.22127000000000008,1.8796119999999998,2.9336860000000002,0.068268,0.031631000000000006,-0.310425
822,8.22,-1.065475,0.8288559999999999,3.910074,0.132187,0.15945399999999998,-0.321075
823,8.23,-1.094918,0.120334,4.427212,0.222733,0.23083499999999998,-0.340256
824,8.24,-0.444553,-0.521655,4.427148000000001,0.277069,0.198883,-0.363693
825,8.25,0.07585599999999999,-1.044059,4.090256,0.305832,0.088089,-0.399902
826,8.26,0.913975,-1.248805,3.842112,0.32074,0.0028690000000000035,-0.40522800000000003
827,8.27,1.6753689999999999,-1.043009,3.3465089999999997,0.31541399999999997,-0.06211900000000001,-0.43187
828,8.28,2.1295330000000003,-0.643926,2.678244,0.27813699999999997,-0.139877,-0.457428
829,8.29,2.409404,0.11859200000000004,2.1413450000000003,0.203568,-0.202728,-0.452103
830,8.3,1.978723,1.126315,1.789323,0.111954,-0.192078,-0.40522800000000003
831,8.31,1.0703770000000001,1.9004619999999999,1.690865,0.021408,-0.10153200000000001,-0.31256100000000003
832,8.32,0.27441999999999994,2.2467650000000003,1.609083,-0.043579000000000014,0.062515,-0.178329
833,8.33,-0.4517570000000001,1.962003,1.552433,-0.079803,0.260666,-0.03558299999999999
834,8.34,-1.127363,1.323964,1.465386,-0.085129,0.47798199999999996,0.10076900000000001
835,8.35,-1.7434900000000002,0.8491540000000001,1.2225030000000001,-0.084061,0.639893,0.213684
836,8.36,-2.249102,0.403306,1.15155,-0.08938600000000001,0.7389680000000001,0.332993
837,8.37,-2.212698,-0.284155,1.173265,-0.095779,0.786896,0.439514
838,8.38,-1.8669349999999998,-1.05229,1.179983,-0.114944,0.793289,0.523682
839,8.39,-1.303726,-1.741872,1.066563,-0.13198900000000002,0.784775,0.584396
840,8.4,-0.708394,-2.43181,0.866891,-0.129868,0.776245,0.6238100000000001
841,8.41,-0.172325,-2.92309,0.528775,-0.129868,0.764526,0.648315
842,8.42,0.3923860000000001,-3.151675,0.18826500000000002,-0.159698,0.741089,0.665359
843,8.43,0.866251,-3.230527,-0.08330799999999998,-0.20869400000000002,0.703812,0.662155
844,8.44,1.282558,-3.144485,-0.22297899999999998,-0.269409,0.670792,0.652573
845,8.45,1.539194,-2.799628,-0.326837,-0.32800300000000004,0.665466,0.630203
846,8.46,1.741127,-2.2952169999999996,-0.323139,-0.379135,0.681442,0.600372
847,8.47,1.9011,-1.8861459999999999,-0.137736,-0.40683,0.6931609999999999,0.540726
848,8.48,1.734798,-1.4409100000000001,-0.086612,-0.402573,0.720856,0.475739
849,8.49,1.558216,-1.055308,0.050517,-0.359955,0.7389680000000001,0.402237
850,8.5,1.354465,-0.8834790000000001,0.037665,-0.288589,0.7357640000000001,0.335129
851,8.51,1.189107,-0.981038,-0.11632100000000001,-0.202301,0.7027439999999999,0.270142
852,8.52,1.1684,-1.168878,-0.274298,-0.12133800000000002,0.634567,0.214752
853,8.53,1.278291,-1.27647,-0.49284300000000003,-0.051041,0.535492,0.165741
854,8.54,1.4314930000000001,-1.2484540000000002,-0.740417,0.0022280000000000012,0.41618299999999997,0.12313800000000001
855,8.55,1.564301,-1.11684,-0.947109,0.052292,0.28836100000000003,0.092239
856,8.56,1.635274,-0.949873,-1.138119,0.09277300000000001,0.169052,0.07733200000000001
857,8.57,1.4356280000000001,-0.831792,-1.2034719999999999,0.132187,0.089157,0.074142
858,8.58,1.1641620000000001,-0.740885,-1.330983,0.177994,0.050797,0.075195
859,8.59,0.7564489999999999,-0.795375,-1.336432,0.21315,0.031631,0.068802
860,8.6,0.31272,-0.960277,-1.290197,0.23658800000000002,0.029495,0.054962000000000004
861,8.61,-0.04966099999999997,-1.142788,-1.078492,0.231262,0.045471,0.031525
862,8.62,-0.48381,-1.162549,-0.877059,0.185455,0.101944,-0.013213999999999998
863,8.63,-0.838938,-0.90422,-0.842799,0.123672,0.210587,-0.066483
864,8.64,-0.9217069999999999,-0.45155500000000004,-0.8361879999999999,0.068268,0.345886,-0.115479
865,8.65,-0.631963,0.132349,-0.8782540000000001,0.02034,0.46519499999999997,-0.143173
866,8.66,-0.013165999999999956,0.59645,-0.797868,-0.015884,0.5184479999999999,-0.141052
867,8.67,0.691241,1.323704,-0.6083649999999999,-0.029724,0.513123,-0.10057100000000001
868,8.68,1.42745,2.175569,-0.590471,-0.02121,0.47798199999999996,-0.028136999999999995
869,8.69,2.028432,2.797014,-0.787401,0.033127,0.410858,0.047501
870,8.7,2.329452,3.041677,-1.246026,0.131119,0.339493,0.125275
871,8.71,2.086449,3.007391,-1.854483,0.237656,0.273438,0.197708
872,8.72,1.456274,2.829329,-2.350148,0.327133,0.223373,0.27121
873,8.73,0.744554,2.569449,-2.65352,0.38359099999999996,0.21911599999999998,0.328735
874,8.74,0.261071,2.561198,-2.607702,0.396378,0.24894699999999997,0.355362
875,8.75,-0.20411500000000002,3.123954,-2.05994,0.365479,0.321381,0.382004
876,8.76,0.47839,3.979825,-0.557042,0.23233,0.42790200000000006,0.47148100000000004
877,8.77,1.685774,2.878519,1.706191,0.21740700000000002,0.317123,0.440582
878,8.78,1.905632,1.552749,2.977156,0.33778400000000003,0.267059,0.341522
879,8.79,1.308423,0.607211,3.860457,0.427277,0.25746199999999997,0.30743400000000004
880,8.8,0.185113,-0.06903599999999999,4.451175,0.40063499999999996,0.31073,0.344711
881,8.81,-1.13868,-0.606271,4.456715,0.29518099999999997,0.39595,0.41181899999999994
882,8.82,-2.28042,-1.176246,4.248391000000001,0.23445100000000002,0.500351,0.47467
883,8.83,-3.210645,-1.620296,3.727496,0.310089,0.591965,0.49278299999999997
884,8.84,-3.9300620000000004,-1.9238950000000001,2.9306229999999998,0.47734099999999996,0.571716,0.472549
885,8.85,-4.364329,-1.630425,1.6786869999999998,0.59877,0.471588,0.439514
886,8.86,-4.156023,-0.639379,0.4553080000000001,0.572144,0.392746,0.394775
887,8.87,-2.9878549999999997,0.629948,-0.34271500000000005,0.41448999999999997,0.365051,0.328735
888,8.88,-1.364572,1.540141,-0.500735,0.214218,0.37464899999999995,0.22007800000000002
889,8.89,0.3036889999999999,1.797304,-0.11307,0.003295999999999993,0.37464899999999995,0.06987
890,8.9,1.593789,1.564238,0.55671,-0.19165,0.35972600000000005,-0.084595
891,8.91,2.355323,1.287841,1.033208,-0.30777,0.311798,-0.227341
892,8.92,2.597359,1.16816,1.263112,-0.324814,0.26918000000000003,-0.343445
893,8.93,2.359667,0.895966,1.410849,-0.277939,0.23722800000000002,-0.438263
894,8.94,1.567267,0.32532700000000003,1.344311,-0.217209,0.195679,-0.502167
895,8.95,0.6771590000000001,-0.19053299999999998,1.162033,-0.17247,0.160522,-0.528809
896,8.96,-0.247505,-0.675094,0.972698,-0.130936,0.13176,-0.5447850000000001
897,8.97,-1.149316,-1.117214,0.750167,-0.07020599999999999,0.134964,-0.5352020000000001
898,8.98,-1.899028,-1.456016,0.554768,-0.018005,0.165848,-0.519211
899,8.99,-2.293565,-1.839948,0.390498,0.008621,0.188217,-0.49791
900,9.0,-2.457968,-2.237918,0.240835,0.0064849999999999994,0.210587,-0.47979700000000003
901,9.01,-2.452391,-2.3956169999999997,-0.016848000000000002,-0.016953,0.23829699999999998,-0.45956400000000003
902,9.02,-2.349723,-2.4223529999999998,-0.224532,-0.05209400000000001,0.247879,-0.438263
903,9.03,-2.1689130000000003,-2.386059,-0.388935,-0.094711,0.22869899999999999,-0.414825
904,9.04,-1.922059,-2.21753,-0.419034,-0.141586,0.174377,-0.374344
905,9.05,-1.565134,-2.028088,-0.347224,-0.168213,0.12324500000000001,-0.323212
906,9.06,-1.093186,-1.8582599999999998,-0.304349,-0.17247,0.09767200000000001,-0.257156
907,9.07,-0.8419409999999999,-1.855568,-0.348599,-0.165024,0.090225,-0.187912
908,9.08,-0.779805,-1.9342830000000002,-0.399107,-0.162888,0.107269,-0.132523
909,9.09,-1.063555,-2.048259,-0.506077,-0.15756199999999998,0.14240999999999998,-0.090973
910,9.1,-1.5411350000000001,-2.1030279999999997,-0.515346,-0.156494,0.19781500000000002,-0.051559
911,9.11,-1.8017400000000001,-1.79293,-0.692075,-0.155426,0.25746199999999997,-0.008957
912,9.12,-1.864902,-1.236057,-0.74144,-0.145844,0.293686,0.019806
913,9.13,-1.704494,-0.579425,-0.756933,-0.111755,0.294754,0.044312
914,9.14,-1.451573,-0.100999,-0.5992810000000001,-0.053162,0.273438,0.065613
915,9.15,-1.0556290000000002,0.15068800000000002,-0.5000319999999999,0.022476,0.265991,0.086914
916,9.16,-0.808338,0.23778600000000003,-0.493908,0.098099,0.28089899999999995,0.105026
917,9.17,-0.696522,0.17384000000000002,-0.490662,0.14816300000000002,0.28836100000000003,0.136993
918,9.18,-0.5660229999999999,0.158169,-0.692986,0.1716,0.262787,0.168945
919,9.19,-0.552593,0.255748,-1.148021,0.174805,0.169052,0.197708
920,9.2,-0.400725,0.383233,-1.4848940000000002,0.164154,0.050797,0.23393200000000003
921,9.21,-0.196602,0.732251,-1.7312830000000001,0.131119,-0.021637,0.254166
922,9.22,-0.195303,1.247592,-1.718304,0.069336,-0.029099,0.246704
923,9.23,-0.539632,1.8143770000000001,-1.4087129999999999,9.199999999999832e-05,0.07637000000000001,0.213684
924,9.24,-1.037925,2.207211,-1.035199,-0.016953,0.246811,0.146576
925,9.25,-1.4462709999999999,2.395408,-1.1291010000000001,0.045898,0.358658,0.067749
926,9.26,-1.515521,2.698322,-1.541168,0.1716,0.400208,0.0006260000000000017
927,9.27,-1.148224,3.063604,-2.100685,0.282394,0.377838,-0.079269
928,9.28,-0.581145,3.72039,-2.446528,0.35375999999999996,0.270248,-0.17193599999999998
929,9.29,0.086588,4.547757,-2.1174020000000002,0.395309,0.12004100000000001,-0.271011
930,9.3,0.074848,4.57572,-0.809163,0.41661099999999995,-0.016312,-0.332794
931,9.31,-1.1146909999999999,3.311578,1.188656,0.402771,0.012451000000000005,-0.32428
932,9.32,-2.221511,1.4679860000000002,2.884541,0.374008,0.204208,-0.29444899999999996
933,9.33,-2.987995,-0.015403000000000056,3.8461190000000003,0.348434,0.378906,-0.30296300000000004
934,9.34,-3.268724,-1.063911,4.259866000000001,0.305832,0.497147,-0.335999
935,9.35,-2.856802,-1.7697040000000002,4.410744,0.245102,0.528046,-0.373276
936,9.36,-2.0768150000000003,-1.793716,4.208214,0.24937399999999998,0.5110020000000001,-0.365814
937,9.37,-0.789484,-1.133834,3.401905,0.304764,0.571716,-0.374344
938,9.38,0.446341,-0.198176,2.137448,0.327133,0.643097,-0.411621
939,9.39,1.458784,0.697351,1.331518,0.266418,0.6462859999999999,-0.43399
940,9.4,1.90953,1.431229,1.077609,0.14816300000000002,0.634567,-0.389252
941,9.41,1.812266,1.971134,1.276851,0.033127,0.683563,-0.29870599999999997
942,9.42,1.0106700000000002,2.376747,1.525021,-0.056366,0.764526,-0.219879
943,9.43,-0.216529,2.532696,1.7768380000000001,-0.09364299999999999,0.8497469999999999,-0.147446
944,9.44,-1.673834,2.152695,1.6525590000000001,-0.080856,0.979721,-0.054764
945,9.45,-2.782163,1.521462,1.3931069999999999,-0.057419000000000005,1.12352,0.058151
946,9.46,-3.425954,0.851771,1.203892,-0.040375,1.2385709999999999,0.179596
947,9.47,-3.556771,-0.0021479999999999837,1.235659,-0.026535000000000003,1.330185,0.296783
948,9.48,-3.036404,-0.8944770000000001,1.23965,-0.0073549999999999996,1.41008,0.39798
949,9.49,-2.257318,-1.62038,1.078282,-0.002029,1.494232,0.465088
950,9.5,-1.451946,-2.293262,0.8885559999999999,-0.01268,1.573059,0.504501
951,9.51,-0.808457,-2.813037,0.6471819999999999,-0.038254,1.607162,0.523682
952,9.52,-0.067689,-3.146187,0.42201099999999997,-0.085129,1.617813,0.527939
953,9.53,0.515208,-3.246148,0.147768,-0.141586,1.607162,0.510895
954,9.54,0.9545809999999999,-3.161316,-0.02353,-0.198044,1.576263,0.48426800000000003
955,9.55,1.174427,-2.8642369999999997,-0.23249099999999998,-0.249176,1.548569,0.443787
956,9.56,1.345172,-2.345333,-0.393242,-0.29072600000000004,1.519806,0.403305
957,9.57,1.474118,-1.9294630000000002,-0.43265699999999996,-0.30989099999999997,1.483582,0.34896900000000003
958,9.58,1.5644,-1.456431,-0.406988,-0.314148,1.4473719999999999,0.28932199999999997
959,9.59,1.666653,-1.1205319999999999,-0.412588,-0.29924,1.407944,0.227539
960,9.6,1.606554,-0.9303600000000001,-0.47536000000000006,-0.269409,1.360016,0.17213399999999998
961,9.61,1.417585,-0.791662,-0.641888,-0.23425300000000002,1.2939610000000001,0.11460899999999999
962,9.62,1.255778,-0.907098,-0.758599,-0.210831,1.209808,0.06347699999999999
963,9.63,1.2026219999999999,-1.088851,-0.772822,-0.187393,1.100082,0.018738
964,9.64,1.042031,-1.021212,-0.872266,-0.149033,0.998886,-0.013213999999999998
965,9.65,0.824034,-0.584088,-0.953131,-0.11389200000000001,0.9062040000000001,-0.021744
966,9.66,0.5326069999999999,-0.087725,-0.94665,-0.079803,0.819931,-0.028137
967,9.67,0.306564,0.272975,-0.912666,-0.036118,0.759201,-0.031326
968,9.68,0.075318,0.38776900000000003,-0.870252,0.026733,0.712326,-0.043045
969,9.69,-0.118423,0.432449,-0.782543,0.102371,0.666519,-0.041977
970,9.7,-0.223759,0.28718499999999997,-0.698479,0.1716,0.626053,-0.028137
971,9.71,-0.16259500000000002,0.04524900000000001,-0.537309,0.235519,0.590897,-0.003632
972,9.72,0.128128,-0.22799,-0.407562,0.289856,0.594086,0.013412
973,9.73,0.331971,-0.305061,-0.596054,0.332458,0.6558689999999999,0.007019
974,9.74,0.5158659999999999,-0.149648,-0.905193,0.35482800000000003,0.733643,-0.024933
975,9.75,0.6750649999999999,0.132438,-1.249508,0.348434,0.758133,-0.049438
976,9.76,0.80875,0.53497,-1.4697850000000001,0.302628,0.721924,-0.050506999999999996
977,9.77,0.9713579999999999,0.9743569999999999,-1.584708,0.233398,0.668655,-0.018539
978,9.78,1.393184,1.332817,-1.7023720000000002,0.179062,0.5994109999999999,0.031525
979,9.79,1.727226,1.4052870000000002,-1.893416,0.16841099999999998,0.533371,0.073074
980,9.8,1.80053,1.336384,-2.108349,0.19931,0.49821499999999996,0.091187
981,9.81,1.37766,1.278093,-2.309562,0.244049,0.497147,0.093307
982,9.82,0.68675,1.374709,-2.484661,0.264282,0.534439,0.07733200000000001
983,9.83,-0.025851000000000013,1.816925,-2.43693,0.26853899999999997,0.602615,0.047501
984,9.84,-0.8078649999999999,2.826367,-2.119323,0.238724,0.701675,0.024063
985,9.85,-1.161849,3.8971419999999997,-1.467618,0.169479,0.859344,0.058151
986,9.86,-0.777637,4.112963,-0.01427999999999996,0.10981800000000001,0.8817139999999999,0.12846400000000002
987,9.87,-0.15084200000000006,3.2308950000000003,2.0123159999999998,0.158829,0.752808,0.159363
988,9.88,0.033479,2.249248,3.7501849999999997,0.288788,0.661194,0.194504
989,9.89,-0.258973,1.476415,5.044103,0.407028,0.627106,0.275467
990,9.9,-1.307452,0.627841,5.4352339999999995,0.41448999999999997,0.666519,0.403305
991,9.91,-2.405971,-0.228211,4.631926999999999,0.347382,0.767731,0.5588380000000001
992,9.92,-3.0078549999999997,-1.140838,3.639532,0.350571,0.8966219999999999,0.632339
993,9.93,-3.636458,-1.8348689999999999,2.829648,0.467743,0.954147,0.591858
994,9.94,-4.326188,-2.071324,1.4219700000000002,0.572144,0.903015,0.498108
995,9.95,-4.291492,-1.219079,-0.32808200000000004,0.516754,0.820984,0.404373
996,9.96,-3.307642,0.06643100000000003,-1.299026,0.281326,0.798615,0.297836
997,9.97,-1.6604390000000002,1.072079,-1.260217,-0.024399000000000004,0.820984,0.170013
998,9.98,0.049373,1.5699,-0.601578,-0.317352,0.8337709999999999,0.019806000000000004
999,9.99,1.6780580000000003,1.5754629999999998,0.195849,-0.5740810000000001,0.813538,-0.121872
1000,10.0,2.727024,1.44638,0.786858,-0.740265,0.760269,-0.256104
1001,10.01,3.079257,1.316529,1.133779,-0.776474,0.6899569999999999,-0.397781
1002,10.02,2.753883,0.8969860000000001,1.431275,-0.7093659999999999,0.616455,-0.505371
1003,10.03,1.814893,0.2376559999999999,1.5291219999999999,-0.588989,0.5525359999999999,-0.579941
1004,10.04,0.4145410000000001,-0.37549499999999997,1.341178,-0.479263,0.500351,-0.612961
1005,10.05,-0.6413470000000001,-1.151793,1.070645,-0.389786,0.46198999999999996,-0.594849
1006,10.06,-1.3730440000000002,-1.789695,0.597188,-0.315216,0.439621,-0.574615
1007,10.07,-1.9591009999999998,-2.296749,0.06405599999999999,-0.267288,0.421509,-0.553299
1008,10.08,-2.321886,-2.585738,-0.405645,-0.249176,0.38955700000000004,-0.5426479999999999
1009,10.09,-2.474428,-2.716899,-0.7186739999999999,-0.261963,0.346954,-0.524536
1010,10.1,-2.28481,-2.69542,-0.929958,-0.28965799999999997,0.307526,-0.504303
1011,10.11,-1.9622130000000002,-2.53076,-0.9846010000000001,-0.325867,0.270248,-0.5011140000000001
1012,10.12,-1.7368290000000002,-2.329026,-0.974259,-0.347183,0.23190300000000003,-0.49365200000000004
1013,10.13,-1.434566,-2.05444,-0.9102549999999999,-0.353577,0.196747,-0.476608
1014,10.14,-1.1370559999999998,-1.6999099999999998,-0.7925409999999999,-0.34079,0.149872,-0.447845
1015,10.15,-1.0032,-1.33979,-0.717793,-0.312027,0.116852,-0.408432
1016,10.16,-1.141989,-1.144852,-0.6090899999999999,-0.276871,0.09767200000000001,-0.353043
1017,10.17,-1.381106,-1.0281790000000002,-0.584598,-0.244919,0.100876,-0.284851
1018,10.18,-1.704318,-1.0247110000000001,-0.707274,-0.215088,0.116852,-0.212418
1019,10.19,-2.02006,-1.216208,-0.926718,-0.169281,0.154129,-0.146378
1020,10.2,-2.2172330000000002,-1.252213,-1.178075,-0.12133800000000002,0.182892,-0.086716
1021,10.21,-2.2738720000000003,-1.115816,-1.48195,-0.079803,0.196747,-0.035583
1022,10.22,-2.134075,-0.747812,-1.706812,-0.05209400000000001,0.19461099999999998,0.009155
1023,10.23,-1.836257,-0.30949699999999997,-1.8045490000000002,-0.022278,0.190353,0.047501
1024,10.24,-1.54216,0.054252000000000015,-1.862391,0.018203999999999998,0.175446,0.075195
1025,10.25,-1.177135,0.177558,-1.743923,0.049102999999999994,0.173309,0.09011799999999999
1026,10.26,-0.9446129999999999,0.078814,-1.420068,0.058685,0.179703,0.07733200000000001
1027,10.27,-0.8974790000000001,-0.048961000000000005,-0.999317,0.045898,0.196747,0.06347699999999999
1028,10.28,-1.0455299999999998,-0.096357,-0.684643,0.004364000000000003,0.20739699999999997,0.049637
1029,10.29,-1.170351,0.180911,-0.70244,-0.040375,0.153076,0.051758000000000005
1030,10.3,-1.158866,0.663934,-0.625993,-0.082993,0.09767200000000001,0.083725
1031,10.31,-1.4914129999999999,1.166831,-0.47254799999999997,-0.126663,0.235092,0.099701
1032,10.32,-1.920109,1.563236,-0.702525,-0.14798,0.40660100000000005,0.044312
1033,10.33,-1.668509,1.9300419999999998,-1.169736,-0.103226,0.411926,-0.035583
1034,10.34,-0.7428520000000001,2.495288,-1.6001239999999999,0.027801999999999997,0.37251300000000004,-0.12187200000000001
1035,10.35,0.4588709999999999,3.6941269999999995,-2.039356,0.158829,0.250015,-0.272079
1036,10.36,0.8110310000000001,4.5081940000000005,-1.791073,0.26853899999999997,0.07104500000000001,-0.403107
1037,10.37,1.330771,4.796673,-0.834205,0.356964,-0.056792999999999996,-0.437195
1038,10.38,1.4943170000000001,5.074915,0.321367,0.358032,-0.15266400000000002,-0.476608
1039,10.39,0.07289999999999996,4.734111,1.142261,0.349503,-0.15373199999999998,-0.539459
1040,10.4,-2.188332,3.252034,2.048927,0.448578,-0.085556,-0.537323
1041,10.41,-3.669118,1.217031,2.956495,0.5732119999999999,0.031631,-0.43187
1042,10.42,-3.5263269999999998,-0.43612700000000004,3.471675,0.559357,0.175446,-0.29551700000000003
1043,10.43,-2.71342,-1.256529,3.242833,0.44004799999999994,0.169052,-0.20815999999999998
1044,10.44,-1.2216049999999998,-1.548225,3.092519,0.35482800000000003,0.068909,-0.146378
1045,10.45,0.35474300000000003,-1.3610440000000001,2.778579,0.33139,0.04335,-0.130402
1046,10.46,1.519403,-0.882817,2.2627669999999998,0.303696,-0.016312,-0.186859
1047,10.47,2.470934,-0.28583600000000003,1.844455,0.262146,-0.07489,-0.266754
1048,10.48,2.876356,0.176991,1.535469,0.21315,-0.06211900000000001,-0.32853699999999997
1049,10.49,2.570785,0.763583,1.255127,0.146042,0.04974399999999999,-0.369019
1050,10.5,1.61459,1.346871,0.9364790000000001,0.065079,0.210587,-0.389252
1051,10.51,0.3466400000000001,1.455503,0.667515,-0.032928,0.375702,-0.36688200000000004
1052,10.52,-0.794794,1.0758530000000002,0.616054,-0.154358,0.5173949999999999,-0.307236
1053,10.53,-1.647511,0.664311,0.631447,-0.275803,0.631378,-0.217743
1054,10.54,-2.19245,0.31302800000000003,0.835268,-0.358902,0.6920930000000001,-0.10908499999999999
1055,10.55,-2.3643009999999998,0.045729999999999986,1.093679,-0.394043,0.695282,0.019806000000000004
1056,10.56,-2.091723,-0.21959800000000002,1.281418,-0.40470900000000004,0.668655,0.15509
1057,10.57,-1.389493,-0.49489700000000003,1.309164,-0.390854,0.6356350000000001,0.275467
1058,10.58,-0.721209,-0.938984,1.133934,-0.358902,0.6047359999999999,0.368149
1059,10.59,-0.15725799999999998,-1.378727,0.877877,-0.30989099999999997,0.605804,0.43418900000000005
1060,10.6,0.188592,-1.866123,0.5069060000000001,-0.255569,0.639893,0.477875
1061,10.61,0.412583,-2.222459,0.148673,-0.217209,0.6825100000000001,0.498108
1062,10.62,0.5456270000000001,-2.455145,-0.126442,-0.210831,0.714462,0.503433
1063,10.63,0.540825,-2.5423150000000003,-0.35146700000000003,-0.226807,0.7389680000000001,0.490646
1064,10.64,0.574592,-2.4145630000000002,-0.573946,-0.252365,0.75708,0.46934499999999996
1065,10.65,0.592557,-2.292287,-0.691426,-0.27261399999999997,0.7517550000000001,0.42781099999999994
1066,10.66,0.7825840000000001,-2.053036,-0.707078,-0.277939,0.7261810000000001,0.387329
1067,10.67,0.924334,-1.7295939999999999,-0.796999,-0.26408400000000004,0.7027439999999999,0.338318
1068,10.68,1.062837,-1.513971,-0.803902,-0.242783,0.6899569999999999,0.28932199999999997
1069,10.69,1.2124219999999999,-1.323018,-0.9130719999999999,-0.210831,0.6590729999999999,0.241379
1070,10.7,1.3333549999999998,-1.261815,-0.999444,-0.169281,0.614334,0.201965
1071,10.71,1.436911,-1.3606129999999999,-1.1857520000000001,-0.11708099999999999,0.5525359999999999,0.17108199999999998
1072,10.72,1.6625590000000001,-1.444539,-1.343634,-0.060623,0.45454399999999995,0.145508
1073,10.73,1.864259,-1.560247,-1.473588,-0.01268,0.341614,0.124207
1074,10.74,1.898553,-1.637094,-1.658737,0.02034,0.229767,0.093307
1075,10.75,1.726131,-1.549102,-1.720838,0.036316,0.12324500000000001,0.062424
1076,10.76,1.2985719999999998,-1.328322,-1.575423,0.052292,0.052933,0.037918
1077,10.77,0.8061520000000001,-1.025879,-1.411721,0.082123,0.045471,0.019806
1078,10.78,0.046488,-0.386849,-1.238024,0.13325499999999998,0.069977,-0.011093
1079,10.79,-0.24539499999999997,0.027350000000000013,-1.169042,0.159882,0.07423400000000001,-0.046234
1080,10.8,-0.293327,0.370341,-1.0372299999999999,0.196106,0.060394,-0.076065
1081,10.81,-0.165242,0.716368,-1.054168,0.260025,0.050797,-0.094177
1082,10.82,0.178111,0.781744,-1.162788,0.33139,0.072113,-0.09524500000000001
1083,10.83,0.681802,0.626548,-1.2962,0.380402,0.11045799999999999,-0.092041
1084,10.84,1.225651,0.388152,-1.481341,0.398514,0.158401,-0.086716
1085,10.85,1.55144,0.37946399999999997,-1.661093,0.389984,0.20846599999999998,-0.07499700000000001
1086,10.86,1.771773,0.660262,-1.862798,0.347382,0.21379099999999998,-0.052627999999999994
1087,10.87,1.891807,1.19763,-2.180962,0.26535,0.158401,-0.004699999999999999
1088,10.88,1.9846869999999999,1.667216,-2.379339,0.170547,0.088089,0.047501
1089,10.89,1.83969,2.148458,-2.6200099999999997,0.11514300000000001,0.031631,0.073074
1090,10.9,1.2777889999999998,2.654282,-2.628555,0.11941500000000001,0.0018010000000000003,0.07733200000000001
1091,10.91,0.503111,3.356028,-2.5729990000000003,0.173737,0.017776,0.084793
1092,10.92,0.1089,4.262288,-2.293859,0.231262,0.048676,0.11035199999999999
1093,10.93,-0.020187,5.127146,-1.671355,0.281326,0.033752,0.159363
1094,10.94,0.770564,5.478909,-0.713914,0.263214,0.044418,0.256302
1095,10.95,2.254187,4.990479,0.6296619999999999,0.225937,0.002868999999999997,0.331924
1096,10.96,3.708365,3.7156800000000003,2.183433,0.29090900000000003,-0.14201399999999995,0.342575
1097,10.97,4.664469,1.952582,3.465447,0.410233,-0.294342,0.30636599999999997
1098,10.98,4.257845,0.289598,4.216456,0.457092,-0.408325,0.261627
1099,10.99,2.844216,-1.043619,4.3736559999999995,0.40170300000000003,-0.408325,0.239258
1100,11.0,0.5889660000000001,-1.9058549999999999,3.984801,0.334595,-0.265579,0.219009
1101,11.01,-1.7079509999999998,-2.587946,3.442329,0.343109,-0.139877,0.201965
1102,11.02,-3.3482529999999997,-2.9812529999999997,2.871095,0.410233,-0.129227,0.21581999999999998
1103,11.03,-4.234338,-2.686317,2.162805,0.45816,-0.167572,0.26268
1104,11.04,-4.48263,-1.491359,1.159408,0.412354,-0.194214,0.295715
1105,11.05,-3.89431,0.271582,0.347314,0.272812,-0.22403,0.310623
1106,11.06,-2.388051,1.7772400000000002,-0.10254500000000004,0.100235,-0.251724,0.297836
1107,11.07,-0.3732519999999999,2.357478,0.172998,-0.047836,-0.33482399999999995,0.243515
1108,11.08,1.267444,2.054461,0.732823,-0.166077,-0.428558,0.152969
1109,11.09,2.434959,1.31839,1.131904,-0.282196,-0.506332,0.051758000000000005
1110,11.1,3.13364,0.556631,1.308209,-0.361023,-0.552139,-0.052627999999999994
1111,11.11,3.5337410000000005,0.118467,1.39458,-0.352509,-0.588348,-0.167679
1112,11.12,3.4041120000000005,-0.195219,1.48176,-0.28433200000000003,-0.6117859999999999,-0.28273000000000004
1113,11.13,2.700266,-0.421519,1.587848,-0.195908,-0.645874,-0.382858
1114,11.14,1.564035,-0.55309,1.471868,-0.10856600000000001,-0.691681,-0.44358800000000004
1115,11.15,0.663567,-0.812716,1.170153,-0.024399000000000004,-0.754532,-0.473404
1116,11.16,-0.06258599999999997,-1.2124700000000002,0.778233,0.038451999999999986,-0.808868,-0.49577299999999996
1117,11.17,-0.562913,-1.785463,0.539274,0.069336,-0.8621219999999999,-0.5170899999999999
1118,11.18,-0.876188,-2.29467,0.325932,0.067215,-0.927109,-0.538391
1119,11.19,-1.047073,-2.5886169999999997,0.12333599999999999,0.037384,-0.998489,-0.549042
1120,11.2,-1.101361,-2.790779,-0.01658900000000001,-0.01268,-1.079437,-0.5447850000000001
1121,11.21,-1.195558,-2.798019,-0.191892,-0.07234199999999999,-1.135895,-0.513885
1122,11.22,-1.221831,-2.737474,-0.332617,-0.149033,-1.154007,-0.458496
1123,11.23,-1.2053770000000001,-2.604507,-0.471607,-0.227875,-1.1508180000000001,-0.38818400000000003
1124,11.24,-1.116969,-2.368823,-0.407142,-0.296051,-1.129517,-0.322144
1125,11.25,-1.041577,-2.223061,-0.506681,-0.334396,-1.102875,-0.26568600000000003
1126,11.26,-0.938717,-2.194548,-0.5976100000000001,-0.338654,-1.069855,-0.218811
1127,11.27,-0.8879459999999999,-2.2057450000000003,-0.6737810000000001,-0.305634,-1.040024,-0.18365499999999998
1128,11.28,-0.871245,-1.924404,-0.701214,-0.239594,-1.0293729999999999,-0.152771
1129,11.29,-0.89238,-1.0664120000000001,-0.795924,-0.168213,-1.0101930000000001,-0.131454
1130,11.3,-0.7550020000000001,-0.01271599999999995,-0.896883,-0.09045399999999999,-0.982498,-0.116547
1131,11.31,-0.7142930000000001,0.690767,-0.902862,0.005432000000000006,-0.939896,-0.099503
1132,11.32,-0.66971,1.003751,-1.0012969999999999,0.114075,-0.886627,-0.10057100000000001
1133,11.33,-0.582414,0.725904,-1.0542559999999999,0.225937,-0.84935,-0.10375999999999999
1134,11.34,-0.23529800000000006,0.23933400000000002,-1.033197,0.322876,-0.808868,-0.120804
1135,11.35,-0.0030189999999999943,-0.30488000000000004,-1.043182,0.393173,-0.793945,-0.152771
1136,11.36,0.141492,-0.9071899999999999,-1.074086,0.423004,-0.8078,-0.16449
1137,11.37,0.30895,-1.3207870000000002,-1.209822,0.403839,-0.839752,-0.141052
1138,11.38,0.45892299999999997,-1.296549,-1.3419889999999999,0.322876,-0.839752,-0.092041
1139,11.39,0.03232999999999997,-0.9190440000000001,-1.461319,0.184387,-0.779037,-0.059021000000000004
1140,11.4,-0.745165,-0.160128,-1.445892,0.017136000000000002,-0.620316,-0.051559
1141,11.41,-1.670305,0.939082,-1.5612409999999999,-0.13945,-0.44773900000000005,-0.082458
1142,11.42,-2.391325,1.976516,-1.688547,-0.21402,-0.352936,-0.132523
1143,11.43,-2.75477,2.718652,-1.905288,-0.17886400000000002,-0.352936,-0.165543
1144,11.44,-2.319253,3.246221,-2.067591,-0.038254,-0.43601999999999996,-0.165543
1145,11.45,-1.0158909999999999,3.563422,-2.164039,0.13325499999999998,-0.556396,-0.150635
1146,11.46,0.632105,3.9732269999999996,-2.062481,0.285583,-0.717255,-0.134659
1147,11.47,2.260988,4.685428,-1.285228,0.371872,-0.9036709999999999,-0.153824
1148,11.48,2.970662,5.1546400000000006,0.07055200000000006,0.36654699999999996,-0.961197,-0.228394
1149,11.49,1.999575,4.641723000000001,1.906321,0.344177,-0.800339,-0.300842
1150,11.5,0.9567700000000001,3.740046,2.711322,0.41448999999999997,-0.5776979999999999,-0.372208
1151,11.51,-0.01938099999999998,2.743408,2.851614,0.47734099999999996,-0.51059,-0.43505900000000003
1152,11.52,-0.098359,1.4269999999999998,3.3692660000000005,0.446442,-0.49247700000000005,-0.425476
1153,11.53,0.9230699999999998,0.27979499999999996,3.90829,0.368683,-0.542542,-0.39671300000000004
1154,11.54,1.3947379999999998,-0.919004,4.335618,0.340988,-0.684235,-0.356232
1155,11.55,1.957238,-1.635881,4.216152,0.40170300000000003,-0.772644,-0.31575
1156,11.56,2.582188,-1.836685,3.2911449999999998,0.45069899999999996,-0.848282,-0.277405
1157,11.57,3.096971,-1.553775,2.064618,0.389984,-0.922852,-0.257156
1158,11.58,2.878204,-0.936168,1.181239,0.24937399999999998,-0.9899600000000001,-0.231598
1159,11.59,1.8154099999999997,-0.160646,0.5221279999999999,0.104492,-0.9814299999999999,-0.168747
1160,11.6,0.599642,0.22479699999999997,0.273875,-0.027603000000000003,-0.8376309999999999,-0.052628
1161,11.61,-0.4968870000000001,0.257042,0.301462,-0.16181900000000002,-0.612854,0.07946800000000001
1162,11.62,-1.509919,0.22915500000000003,0.46031000000000005,-0.308823,-0.396606,0.188126
1163,11.63,-2.274193,0.254484,0.671325,-0.423874,-0.24639899999999998,0.283997
1164,11.64,-2.541686,0.192699,1.018014,-0.44838,-0.176102,0.371338
1165,11.65,-2.052478,-0.024721999999999997,1.188009,-0.39724699999999996,-0.147339,0.46083100000000005
1166,11.66,-0.8751700000000001,-0.540888,1.147626,-0.316284,-0.143082,0.515152
1167,11.67,0.118514,-1.11047,0.9860959999999999,-0.223602,-0.176102,0.529007
1168,11.68,0.98815,-1.583456,0.698275,-0.12773099999999998,-0.23255900000000002,0.5343319999999999
1169,11.69,1.8092849999999998,-2.136949,0.336609,-0.054229999999999993,-0.292206,0.538589
1170,11.7,2.49721,-2.61865,-0.036049000000000025,-0.024399,-0.345474,0.530075
1171,11.71,2.702666,-3.073166,-0.333543,-0.042511,-0.39447,0.51622
1172,11.72,2.595577,-3.285135,-0.5246310000000001,-0.096848,-0.431763,0.498108
1173,11.73,2.344154,-3.214093,-0.70891,-0.17886400000000002,-0.432831,0.467224
1174,11.74,1.701107,-3.050206,-0.815697,-0.268341,-0.417908,0.417145
1175,11.75,1.05321,-2.663627,-0.848261,-0.355698,-0.385956,0.370285
1176,11.76,0.397899,-2.188527,-0.813146,-0.421753,-0.324173,0.321274
1177,11.77,-0.039045,-1.687195,-0.837499,-0.468613,-0.236816,0.280792
1178,11.78,-0.38207800000000003,-1.378219,-0.820801,-0.49311800000000006,-0.150528,0.243515
1179,11.79,-0.379157,-1.280149,-0.814134,-0.505905,-0.091934,0.21581999999999998
1180,11.8,0.015665999999999985,-1.27649,-0.8293219999999999,-0.508026,-0.07489,0.195572
1181,11.81,0.729634,-1.2086940000000002,-0.907116,-0.497375,-0.09088099999999999,0.170013
1182,11.82,1.5394370000000002,-1.032135,-0.951211,-0.476074,-0.119644,0.11781300000000001
1183,11.83,2.174196,-0.614635,-1.237572,-0.444122,-0.15478499999999998,0.052826
1184,11.84,2.565412,-0.17432999999999998,-1.222242,-0.40683,-0.192078,-0.004699999999999999
1185,11.85,2.719169,0.376062,-1.121642,-0.333328,-0.202728,-0.036652
1186,11.86,2.458935,0.767937,-1.180503,-0.238525,-0.170776,-0.048369999999999996
1187,11.87,1.8572330000000001,0.769972,-1.33493,-0.15863,-0.123901,-0.032394
1188,11.88,1.203589,0.341461,-1.382247,-0.10643,-0.133484,0.007019000000000001
1189,11.89,0.7613800000000001,-0.17901299999999998,-1.320192,-0.071274,-0.181427,0.054962000000000004
1190,11.9,0.487573,-0.469203,-1.240299,-0.049973000000000004,-0.19953900000000002,0.070938
1191,11.91,0.41698999999999997,-0.480887,-1.251767,-0.038254,-0.161179,0.047501
1192,11.92,0.519729,0.0007679999999999909,-1.3541040000000002,-0.030792,-0.097275,-0.008957
1193,11.93,0.719195,0.643975,-1.552999,-0.038254,-0.013106999999999999,-0.07820099999999999
1194,11.94,1.0603870000000002,1.27159,-1.65399,-0.063812,0.02417,-0.14212
1195,11.95,1.272259,1.8730490000000002,-1.61772,-0.10429400000000001,0.0018009999999999988,-0.167679
1196,11.96,1.583097,2.391212,-1.5131729999999999,-0.140518,-0.01738,-0.141052
1197,11.97,1.893829,2.789417,-1.516412,-0.116013,-0.019500999999999998,-0.079269
1198,11.98,1.9547759999999998,3.0225,-1.653095,-0.014815999999999998,-0.007781999999999999,-0.014282000000000003
1199,11.99,1.660854,3.332327,-1.925348,0.12153599999999999,-0.014175,0.059219000000000015
1200,12.0,1.045555,4.017473000000001,-2.0471369999999998,0.238724,-0.040802,0.145508
1201,12.01,0.651708,5.017421,-1.576916,0.321808,-0.071701,0.270142
1202,12.02,0.8406450000000001,5.460412,-0.466604,0.344177,0.0018009999999999968,0.401169
1203,12.03,1.647516,4.697254,1.3874799999999998,0.332458,0.016708,0.473602
1204,12.04,2.87467,2.6078490000000003,3.354993,0.368683,-0.12709000000000004,0.46934499999999996
1205,12.05,3.2828839999999997,0.439308,4.437126999999999,0.41874700000000004,-0.25386,0.43313599999999997
1206,12.06,2.9700029999999997,-0.918791,4.711974,0.36654699999999996,-0.28369099999999997,0.436325
1207,12.07,2.218686,-1.7769580000000003,4.406741,0.24084499999999998,-0.250671,0.429932
1208,12.08,1.059142,-2.2114990000000003,3.6484650000000003,0.158829,-0.198471,0.38945
1209,12.09,0.05934299999999997,-2.594411,2.6918860000000002,0.159882,-0.21444699999999997,0.327667
1210,12.1,-0.7372770000000001,-2.634345,1.8533099999999998,0.182251,-0.268768,0.266953
1211,12.11,-1.347707,-1.952641,1.215843,0.149231,-0.298599,0.22966
1212,12.12,-1.430811,0.34296,0.8968520000000001,-0.030792,-0.33696,0.18917799999999999
1213,12.13,-0.922977,1.7900509999999998,0.950305,-0.130936,-0.397675,0.15403699999999998
1214,12.14,0.10880999999999996,2.461173,1.148034,-0.192719,-0.49140900000000004,0.124207
1215,12.15,1.206772,2.3642990000000004,1.270041,-0.25663800000000003,-0.626709,0.07733200000000001
1216,12.16,2.169173,1.7019509999999998,1.338127,-0.352509,-0.779037,0.0070189999999999975
1217,12.17,2.742824,0.9187629999999999,1.247364,-0.424942,-0.910065,-0.073929
1218,12.18,3.085744,0.282125,1.206995,-0.432404,-0.9974209999999999,-0.157028
1219,12.19,3.014237,-0.191573,1.1159629999999998,-0.40364099999999997,-1.047485,-0.24543800000000002
1220,12.2,2.526389,-0.644269,1.0832,-0.381271,-1.091156,-0.32853699999999997
1221,12.21,1.8342209999999999,-1.0328760000000001,1.101604,-0.36741599999999996,-1.1209870000000002,-0.393509
1222,12.22,1.10446,-1.406385,0.972146,-0.348236,-1.131638,-0.461685
1223,12.23,0.462292,-1.755257,0.8810180000000001,-0.325867,-1.1177979999999998,-0.52774
1224,12.24,-0.261142,-1.944419,0.603251,-0.30777,-1.09436,-0.593781
1225,12.25,-0.956789,-2.147327,0.42642299999999994,-0.302444,-1.085831,-0.630005
1226,12.26,-1.490597,-2.309989,0.19256500000000001,-0.29924,-1.098618,-0.64386
1227,12.27,-1.8673279999999999,-2.3688700000000003,-0.08300600000000001,-0.298172,-1.134842,-0.627869
1228,12.28,-1.936043,-2.299741,-0.23871599999999998,-0.296051,-1.173187,-0.5756680000000001
1229,12.29,-1.7831810000000001,-2.289888,-0.354207,-0.291779,-1.217926,-0.505371
1230,12.3,-1.2263709999999999,-2.187961,-0.580893,-0.28326399999999996,-1.2711940000000002,-0.361557
1231,12.31,-0.8365090000000001,-2.261406,-0.76237,-0.282196,-1.279709,-0.256104
1232,12.32,-0.594816,-2.411984,-0.911377,-0.279007,-1.2402950000000001,-0.15596
1233,12.33,-0.584079,-2.525408,-1.0178399999999999,-0.27261399999999997,-1.166794,-0.07074
1234,12.34,-0.777486,-2.379169,-1.203023,-0.258759,-1.079437,-0.022797
1235,12.35,-1.0235370000000001,-1.945857,-1.23606,-0.242783,-0.988892,0.002762
1236,12.36,-1.302306,-1.2626819999999999,-1.2408540000000001,-0.21402,-0.9089969999999999,0.011292
1237,12.37,-1.493937,-0.386573,-1.235848,-0.17886400000000002,-0.8216549999999999,0.014481
1238,12.38,-1.5411860000000002,0.325827,-1.2194559999999999,-0.118149,-0.7034,0.017669999999999998
1239,12.39,-1.273603,0.744583,-1.264125,-0.032928,-0.586227,0.005965999999999999
1240,12.4,-0.9726540000000001,0.7615569999999999,-1.37768,0.066147,-0.51059,-0.023865
1241,12.41,-0.591942,0.552395,-1.243398,0.156693,-0.467987,-0.057953
1242,12.42,0.029073000000000012,0.39003000000000004,-1.036476,0.208893,-0.462646,-0.115479
1243,12.43,0.5149130000000001,0.12107799999999999,-0.915607,0.231262,-0.532959,-0.145309
1244,12.44,0.957068,-0.055179,-0.765621,0.23445100000000002,-0.609665,-0.145309
1245,12.45,1.018704,0.052322000000000014,-0.695979,0.22380100000000003,-0.657593,-0.130402
1246,12.46,0.567068,0.426129,-0.572735,0.191849,-0.619247,-0.118683
1247,12.47,-1.0025030000000001,1.1218270000000001,-0.800593,0.154556,-0.46159399999999995,-0.11761500000000001
1248,12.48,-1.949232,1.75184,-1.267556,0.164154,-0.38063,-0.11761500000000001
1249,12.49,-2.596527,2.135319,-1.7673,0.214218,-0.341217,-0.10803199999999999
1250,12.5,-2.758205,2.424029,-2.241443,0.30795300000000003,-0.32629400000000003,-0.093109
1251,12.51,-1.834271,2.9845490000000003,-2.642128,0.408096,-0.38169899999999995,-0.085648
1252,12.52,-0.219831,3.716471,-2.630363,0.47734099999999996,-0.532959,-0.120804
1253,12.53,1.538058,4.648031,-1.949193,0.515686,-0.7801060000000001,-0.181534
1254,12.54,2.520339,5.129386,-0.29037099999999993,0.49971000000000004,-0.9601290000000001,-0.23053
1255,12.55,1.7236099999999999,4.580952,1.996702,0.46241800000000005,-0.783295,-0.283798
1256,12.56,0.4274469999999999,3.5002470000000003,3.579932,0.493317,-0.43495200000000006,-0.33812
1257,12.57,-0.46228400000000003,2.58281,4.147794,0.549774,-0.215515,-0.44251999999999997
1258,12.58,-0.74264,1.567251,4.348336,0.571075,-0.097275,-0.55011
1259,12.59,-0.03165600000000002,0.455121,3.973612,0.548706,-0.049332,-0.6225430000000001
1260,12.6,0.64231,-0.914659,3.672974,0.547638,-0.169708,-0.639587
1261,12.61,1.576643,-1.847761,3.183266,0.597717,-0.271973,-0.555435
1262,12.62,2.652551,-2.220789,2.3847240000000003,0.611557,-0.39447,-0.44891400000000004
1263,12.63,3.707857,-1.744162,1.5105520000000001,0.490112,-0.561722,-0.333862
1264,12.64,3.913938,-0.559002,0.735798,0.237656,-0.698074,-0.26355
1265,12.65,2.787488,0.8533469999999999,0.44578100000000004,-0.03399699999999998,-0.7332310000000001,-0.199631
1266,12.66,1.264627,1.6577099999999998,0.438213,-0.251297,-0.63736,-0.10908499999999999
1267,12.67,-0.250797,1.749828,0.655752,-0.391922,-0.417908,0.014481
1268,12.68,-1.477359,1.378053,0.964198,-0.476074,-0.131363,0.143372
1269,12.69,-2.484627,1.11131,1.013577,-0.521881,0.11792,0.265884
1270,12.7,-2.996125,0.74343,0.993268,-0.5272060000000001,0.27876300000000004,0.38305700000000004
1271,12.71,-2.841483,0.0025519999999999987,1.124858,-0.46756000000000003,0.36186199999999996,0.5002439999999999
1272,12.72,-2.043533,-0.932056,1.265698,-0.385529,0.38955700000000004,0.593979
1273,12.73,-1.0136020000000001,-1.7700799999999999,1.3147799999999998,-0.298172,0.379974,0.663223
1274,12.74,0.12212099999999998,-2.533144,1.225904,-0.209763,0.341614,0.69838
1275,12.75,1.123897,-3.203417,0.9334870000000001,-0.13198900000000002,0.290482,0.700516
1276,12.76,1.8342580000000002,-3.548285,0.552182,-0.082993,0.232971,0.6706850000000001
1277,12.77,2.295642,-3.824238,0.010902000000000023,-0.068085,0.18395999999999998,0.625946
1278,12.78,2.428229,-3.7950410000000003,-0.449488,-0.08725,0.140289,0.573746
1279,12.79,2.325559,-3.509348,-0.79676,-0.12454200000000001,0.113647,0.522614
1280,12.8,2.032035,-2.885537,-1.141849,-0.175674,0.091278,0.47148100000000004
1281,12.81,1.8186,-2.230286,-1.237954,-0.22466999999999998,0.07637000000000001,0.436325
1282,12.82,1.5340120000000002,-1.6930880000000001,-1.216099,-0.25769000000000003,0.07743799999999999,0.385193
1283,12.83,1.262238,-1.2420440000000001,-1.075549,-0.261963,0.088089,0.338318
1284,12.84,1.102472,-0.9976790000000001,-0.871107,-0.240646,0.09980800000000001,0.294647
1285,12.85,1.0986639999999999,-0.9976959999999999,-0.7288060000000001,-0.18418900000000002,0.092346,0.24031100000000002
1286,12.86,1.106572,-1.285284,-0.709072,-0.112823,0.068909,0.181732
1287,12.87,1.142599,-1.782103,-0.7767310000000001,-0.043579,0.013519000000000005,0.119949
1288,12.88,1.0900809999999999,-2.2558,-0.9506979999999999,0.015015,-0.06211900000000001,0.065613
1289,12.89,1.1092540000000002,-2.44651,-1.164464,0.059753,-0.12709,0.02301
1290,12.9,0.9523229999999999,-2.063963,-1.4034799999999998,0.067215,-0.15266400000000002,-0.01535
1291,12.91,0.832657,-1.163457,-1.5618459999999998,0.064011,-0.131363,-0.057953
1292,12.92,0.584651,-0.16865200000000002,-1.6605459999999999,0.048035,-0.08128400000000001,-0.09843400000000001
1293,12.93,0.36428499999999997,0.556992,-1.5947719999999999,0.032059,-0.023758,-0.134659
1294,12.94,0.172236,0.76989,-1.37174,0.01181,0.0327,-0.157028
1295,12.95,0.049579000000000005,0.582573,-1.137285,-0.0009609999999999999,0.090225,-0.162354
1296,12.96,0.167042,0.269818,-1.033666,9.200000000000008e-05,0.175446,-0.157028
1297,12.97,0.42166000000000003,0.179552,-1.097416,0.024597,0.289429,-0.16981500000000002
1298,12.98,0.60004,0.584702,-1.31989,0.07254,0.39595,-0.18365499999999998
1299,12.99,0.681113,1.38435,-1.652512,0.124741,0.45133999999999996,-0.185791
1300,13.0,1.0677860000000001,2.055429,-1.792427,0.12579300000000002,0.355469,-0.150635
1301,13.01,1.743166,2.40132,-1.6749009999999998,0.088516,0.128571,-0.060089
1302,13.02,2.409797,2.6261419999999998,-1.567399,0.078934,-0.068512,0.062424000000000014
1303,13.03,2.857866,2.9148169999999998,-1.923296,0.149231,-0.160126,0.179596
1304,13.04,2.487592,3.22126,-2.530703,0.25149499999999997,-0.18782000000000001,0.270142
1305,13.05,1.434568,3.5221699999999996,-3.130384,0.309021,-0.15373199999999998,0.352173
1306,13.06,0.7657930000000001,3.879744,-3.152192,0.29836999999999997,-0.097275,0.429932
1307,13.07,0.549826,4.273441,-2.324061,0.24084499999999998,-0.048264,0.5119630000000001
1308,13.08,1.1970809999999998,4.423407,-0.870813,0.16095,0.032700000000000014,0.573746
1309,13.09,2.398031,3.714672,0.9582229999999999,0.14711,0.064651,0.538589
1310,13.1,2.9694580000000004,2.324794,2.716646,0.257889,0.062515,0.420349
1311,13.11,3.091848,0.6938340000000001,3.8268370000000003,0.370804,0.036957,0.301041
1312,13.12,2.5537419999999997,-0.905853,4.557698,0.397446,-0.018433,0.216888
1313,13.13,1.4566290000000002,-1.8786009999999997,4.91075,0.333527,-0.06423999999999999,0.206223
1314,13.14,-0.435983,-2.005286,4.442475,0.247238,-0.047195,0.252029
1315,13.15,-1.6687049999999999,-1.899272,3.6941629999999996,0.244049,-0.093002,0.346848
1316,13.16,-2.196309,-1.532251,2.667661,0.33992,-0.252792,0.45018
1317,13.17,-2.645368,-0.872088,1.4960579999999999,0.427277,-0.405136,0.501312
1318,13.18,-2.884627,-0.16949000000000006,0.507918,0.411285,-0.475433,0.490646
1319,13.19,-2.540694,0.9465290000000001,0.099939,0.274933,-0.515915,0.442719
1320,13.2,-0.717932,2.16205,0.569909,0.023528999999999998,-0.503128,0.350037
1321,13.21,0.853941,2.388716,1.017868,-0.100037,-0.456268,0.27121
1322,13.22,2.014161,2.107103,1.213682,-0.186325,-0.47010799999999997,0.145508
1323,13.23,2.576095,1.670877,1.0937430000000001,-0.243851,-0.526566,0.004898
1324,13.24,2.935027,1.005999,1.103029,-0.25769000000000003,-0.5670470000000001,-0.119736
1325,13.25,2.836579,0.23947,1.080519,-0.235321,-0.589417,-0.24224899999999996
1326,13.26,2.249579,-0.573909,0.987187,-0.229996,-0.632034,-0.346649
1327,13.27,1.313468,-1.2450649999999999,0.8600959999999999,-0.242783,-0.688492,-0.419083
1328,13.28,0.441863,-1.836065,0.830707,-0.261963,-0.72258,-0.46914700000000004
1329,13.29,-0.336067,-2.2249779999999997,0.684241,-0.279007,-0.730042,-0.503235
1330,13.3,-0.90623,-2.7014560000000003,0.497623,-0.31842,-0.746017,-0.53093
1331,13.31,-1.334028,-3.026026,0.404843,-0.371674,-0.769455,-0.538391
1332,13.32,-1.392608,-3.094442,0.40941500000000003,-0.42601000000000006,-0.793945,-0.533066
1333,13.33,-1.2762120000000001,-3.0046150000000003,0.41314799999999996,-0.471817,-0.813126,-0.534134
1334,13.34,-1.2928979999999999,-2.684018,0.359633,-0.495255,-0.8205870000000001,-0.525604
1335,13.35,-1.326538,-2.279275,0.319258,-0.49205,-0.813126,-0.48193400000000003
1336,13.36,-1.338,-2.027055,0.207465,-0.470749,-0.796082,-0.416946
1337,13.37,-1.35355,-1.8654689999999998,0.097575,-0.43879700000000005,-0.779037,-0.344513
1338,13.38,-1.416368,-1.841639,-0.062163,-0.380203,-0.7524109999999999,-0.25822399999999995
1339,13.39,-1.410121,-1.9898310000000001,-0.272629,-0.302444,-0.7055359999999999,-0.16661099999999998
1340,13.4,-1.506357,-2.251842,-0.568156,-0.22148099999999998,-0.641617,-0.08992
1341,13.41,-1.6389529999999999,-2.249968,-0.768416,-0.153305,-0.56279,-0.031326000000000014
1342,13.42,-1.8184790000000002,-1.915684,-1.040358,-0.08938600000000001,-0.48822,0.0038299999999999996
1343,13.43,-1.920826,-1.241076,-1.291031,-0.035049000000000004,-0.426437,0.031525
1344,13.44,-1.685502,-0.519721,-1.434631,0.025664999999999997,-0.365707,0.046432
1345,13.45,-1.325359,-0.07194400000000001,-1.468509,0.106628,-0.300735,0.058151
1346,13.46,-0.883732,0.065825,-1.462317,0.186523,-0.26664699999999997,0.040054
1347,13.47,-0.5098729999999999,0.056852,-1.299759,0.264282,-0.24960300000000002,0.000626000000000005
1348,13.48,-0.326872,-0.038767,-1.219892,0.313293,-0.22084,-0.047302
1349,13.49,-0.08955700000000001,-0.074434,-1.1343940000000001,0.312225,-0.212311,-0.083527
1350,13.5,0.25563600000000003,-0.119529,-1.052989,0.29090900000000003,-0.269836,-0.088852
1351,13.51,0.406599,0.03279399999999999,-0.910148,0.273865,-0.349731,-0.056885000000000005
1352,13.52,0.100061,0.23934299999999997,-0.674823,0.23658800000000002,-0.32843,-0.0014949999999999998
1353,13.53,-0.8700300000000001,0.47709399999999996,-0.36854499999999996,0.151367,-0.14201399999999995,0.047501
1354,13.54,-1.8644880000000001,1.00816,-0.452255,0.078934,0.006058000000000001,0.056029999999999996
1355,13.55,-2.4037740000000003,1.758692,-1.076724,0.09703099999999999,0.012451,0.025131
1356,13.56,-2.205127,2.333086,-2.089251,0.214218,-0.088745,-0.0004270000000000003
1357,13.57,-1.183446,2.8395580000000002,-3.047266,0.332458,-0.205933,-0.021744
1358,13.58,0.5400579999999999,3.58572,-3.6569809999999996,0.376129,-0.344406,-0.08139
1359,13.59,2.245222,4.755098,-3.307181,0.348434,-0.509521,-0.227341
1360,13.6,3.250633,5.837201,-2.0234400000000003,0.3069,-0.704468,-0.404175
1361,13.61,2.670271,6.050584,0.18864799999999995,0.29943800000000004,-0.78862,-0.48300200000000004
1362,13.62,1.139802,5.103286,2.728726,0.37294,-0.633102,-0.47979700000000003
1363,13.63,-0.48968900000000004,3.591371,4.173193,0.514618,-0.329498,-0.510696
1364,13.64,-1.486376,2.653461,3.79406,0.589188,-0.12709,-0.607635
1365,13.65,-1.777439,1.3992200000000001,3.084188,0.5359189999999999,-0.072769,-0.6566310000000001
1366,13.66,-1.1074190000000002,-0.07212200000000002,3.008484,0.45816,-0.176102,-0.615097
1367,13.67,-0.33655100000000004,-1.528629,3.67843,0.444321,-0.289017,-0.47767600000000005
1368,13.68,1.2337889999999998,-2.1063650000000003,3.778255,0.47306800000000004,-0.31778,-0.33705100000000005
1369,13.69,2.803745,-2.0003849999999996,3.221643,0.45069899999999996,-0.40725700000000004,-0.259293
1370,13.7,3.6506089999999998,-0.9361219999999999,1.591885,0.209961,-0.41578699999999996,-0.246506
1371,13.71,2.6629240000000003,0.47421499999999994,0.4101170000000001,-0.07127399999999999,-0.28369099999999997,-0.28166199999999997
1372,13.72,0.804949,1.617127,0.076397,-0.33972199999999997,-0.10578900000000001,-0.28166199999999997
1373,13.73,-1.0829850000000003,1.9257119999999999,0.570334,-0.528275,0.172241,-0.212418
1374,13.74,-2.468394,1.7566680000000001,1.182591,-0.619888,0.48436,-0.08139
1375,13.75,-3.337008,1.611734,1.2243879999999998,-0.648651,0.718719,0.07733200000000001
1376,13.76,-3.6876949999999997,1.258095,1.229168,-0.642258,0.839096,0.239258
1377,13.77,-3.463807,0.614016,1.345024,-0.595383,0.84549,0.406494
1378,13.78,-2.325396,-0.3563560000000001,1.372266,-0.506973,0.778381,0.5428470000000001
1379,13.79,-1.021151,-1.334789,1.1916120000000001,-0.41322299999999995,0.668655,0.635529
1380,13.8,0.3490880000000001,-2.11455,0.7733939999999999,-0.324814,0.524841,0.685593
1381,13.81,1.531656,-2.764318,0.395036,-0.26301599999999997,0.407669,0.693054
1382,13.82,2.3869290000000003,-3.2957949999999996,-0.002268999999999993,-0.238525,0.32991,0.677078
1383,13.83,2.634218,-3.716228,-0.220973,-0.26301599999999997,0.299011,0.645111
1384,13.84,2.556759,-4.013975,-0.35738600000000004,-0.30456500000000003,0.294754,0.605698
1385,13.85,2.142827,-3.962391,-0.48832600000000004,-0.35144000000000003,0.272385,0.571609
1386,13.86,1.7371439999999998,-3.782838,-0.5570579999999999,-0.395111,0.256393,0.537521
1387,13.87,1.3076780000000001,-3.240759,-0.675674,-0.42601000000000006,0.23615999999999998,0.501312
1388,13.88,1.031023,-2.696944,-0.817662,-0.43879700000000005,0.23402399999999998,0.466156
1389,13.89,0.8368049999999999,-2.2170900000000002,-0.916482,-0.435593,0.232971,0.406494
1390,13.9,0.535533,-1.950461,-0.986915,-0.408966,0.21485900000000002,0.347916
1391,13.91,0.326764,-1.855389,-1.107221,-0.362091,0.19781500000000002,0.299973
1392,13.92,0.354312,-1.954843,-1.301544,-0.329071,0.185028,0.247772
1393,13.93,0.46551899999999996,-2.299141,-1.43761,-0.30989099999999997,0.161591,0.199844
1394,13.94,0.564894,-2.541741,-1.497166,-0.308823,0.130692,0.160416
1395,13.95,0.77884,-2.489287,-1.494537,-0.324814,0.090225,0.12207
1396,13.96,1.012586,-1.914298,-1.393006,-0.335464,0.047607,0.076263
1397,13.97,1.187409,-0.72701,-1.330268,-0.31309499999999996,0.009262000000000001,0.004898
1398,13.98,1.224918,0.654291,-1.189546,-0.23425300000000002,-0.00885,-0.079269
1399,13.99,1.204461,1.706392,-1.058482,-0.102173,0.000732,-0.141052
