,ts,ax,ay,az,wx,wy,wz
0,0.0,-0.07930630664893752,0.09993397192815304,6.5581733878065425,-0.0003178163856689437,-0.00506259731420264,-0.00506259731420264
1,0.01,-0.010414212929454325,0.007640551453823696,1.3234083549722424,-0.004382090588075253,-0.004318469532890879,-0.004318469532890879
2,0.02,0.010711001876664072,-0.0251000143565836,-1.8269011627322502,-0.004785033648518733,-0.0025064444354375424,-0.0025064444354375424
3,0.03,0.03367034035380109,-0.007762995727287308,-3.4863139020749063,-0.003601877123621537,-0.00035030594629854064,-0.00035030594629854064
4,0.04,0.039930102086620664,-0.0376643973354696,-3.957544369592041,0.00010159655125764827,-0.0007030143797375737,-0.0007030143797375737
5,0.05,0.06307068285770784,-0.08450499352493068,-3.6174671091382016,0.000756804591465656,-0.00238213049889732,-0.00238213049889732
6,0.06,0.051060403409630056,-0.1041427117524178,-2.8439057519471707,-0.0028555042208769587,-0.0011561419230066412,-0.0011561419230066412
7,0.07,0.019381743698919325,-0.042822125066464586,-1.9259798246897133,-0.00544288450575922,-0.002685060336141733,-0.002685060336141733
8,0.08,0.005929136553729845,0.03380252503210469,-0.9485722085285353,-0.004928043412251738,-0.0006504920022072973,-0.0006504920022072973
9,0.09,0.00453946435892502,0.0175467767139651,0.05965313384653381,-0.0023212704428844386,-0.0006827641756184383,-0.0006827641756184383
10,0.1,-0.001174561587555755,-0.016333182601354676,1.027140703403322,0.002235068490315145,-0.003077767265316385,-0.003077767265316385
11,0.11,-0.024201996041168013,-0.03585021945804061,1.790024518752571,-0.001031158966301174,-0.0039927033550591785,-0.0039927033550591785
12,0.12,-0.035732748384745716,0.0379854424614061,2.261107005853464,-0.004562525516238785,-0.0023940613871183737,-0.0023940613871183737
13,0.13,-0.030627049149776316,0.08274707070830732,2.53018917343505,-0.006658594205666014,-0.00022238640467282645,-0.00022238640467282645
14,0.14,-0.039672596975953975,0.0912861468291103,2.685468444708471,-0.002012259616648553,-0.004678375827098349,-0.004678375827098349
15,0.15,-0.04087491120948897,0.025548374520110207,2.744722296745719,-0.0015096606295902266,-0.003323866100368728,-0.003323866100368728
16,0.16,-0.024787970385249568,0.0035858670560468854,2.6058554088224506,-0.0018399360133676261,-0.0013109396264623413,-0.0013109396264623413
17,0.17,-0.03753242368184477,0.05188270625133194,2.260192972537336,-0.0032037391188504275,-0.001867047745754826,-0.001867047745754826
18,0.18,-0.032329438823405,0.06860695567250581,1.7947971790011805,-0.007854750038799926,-0.0020278996567417483,-0.0020278996567417483
19,0.19,-0.019878982653493842,0.05100637363017939,1.3445017333270262,-0.0034795544845974804,-0.0030566334119223877,-0.0030566334119223877
20,0.2,0.00045225014482384515,-0.008445099734373327,0.9603477973629493,-0.002236384573222676,-0.00408839908897899,-0.00408839908897899
21,0.21,0.009825297374743415,-0.025079839746215027,0.4815931517086356,-0.0008558222247211923,-0.0020772558345380225,-0.0020772558345380225
22,0.22,-0.003131951148250352,0.0059931651491006745,-0.04973608061179424,-0.001883362889164022,-0.0014485805658031267,-0.0014485805658031267
23,0.23,-0.006211941385253335,0.031119616654819767,-0.6185826524158584,-0.0015727608240422835,0.0007913526890312612,0.0007913526890312612
24,0.24,0.006268419079595735,0.0025774988490201746,-1.0301271085335366,-0.0035103920516466732,-0.000255817936191207,-0.000255817936191207
25,0.25,0.02874671809035446,-0.042025817449736796,-1.3035930256464958,-0.0013150693541528243,-0.002237111636526824,-0.002237111636526824
26,0.26,0.023726735645366048,-0.05289243429156429,-1.5565593671941769,-0.0017050513853681991,0.0006020723235656772,0.0006020723235656772
27,0.27,0.02048345750560983,-0.04926956715161229,-1.8154762729995308,-0.002994472067120802,-0.0011283586299234475,-0.0011283586299234475
28,0.28,0.007269535426814945,-0.022154309821379777,-2.072019279795052,-0.0040918094724138755,0.0006455513964945693,0.0006455513964945693
29,0.29,0.027861912573892863,-0.031341374758608674,-2.1516485103484015,-0.002169231954961753,-0.002491463097565084,-0.002491463097565084
30,0.3,0.05024102203036176,-0.042424606867524986,-2.0606339034727488,-0.0015811930044634446,-0.0029053162437713397,-0.0029053162437713397
31,0.31,0.04018581542661336,-0.0794991808731878,-1.9320682343538649,-0.0013618125716628481,-0.0025919695840819373,-0.0025919695840819373
32,0.32,0.010662621500125839,-0.0335986983399969,-1.8603965065874073,-0.0020200034852359936,0.0003644045736552583,0.0003644045736552583
33,0.33,0.00898601671983341,0.007796662180215519,-1.7760751132656443,-0.002142466667017089,0.0015094348618463445,0.0015094348618463445
34,0.34,0.01870790175172802,0.012355740904358918,-1.5777970850234557,-0.0010135395849762503,-0.0028780225415647328,-0.0028780225415647328
35,0.35,0.02923059818137726,-0.03725990546141986,-1.2314531073836865,-0.0023994539319401225,-0.0024398379138215747,-0.0024398379138215747
36,0.36,0.018007542879132504,-0.06027348164626998,-0.9076907052875313,-0.0021006915241350674,-0.003244295296033123,-0.003244295296033123
37,0.37,-0.0023274924878731156,-0.0031739049287857965,-0.6359334138646635,-0.004324091882521015,0.0009189042324324976,0.0009189042324324976
38,0.38,-0.004463598852074194,0.03774360002372623,-0.4359456044779926,-0.001932480145879031,-0.00010908827341197276,-0.00010908827341197276
39,0.39,-0.006689813368534612,0.036131340454944656,-0.14589740966240305,0.00026268807714650296,-0.00239565336051397,-0.00239565336051397
40,0.4,-0.0014650411876154347,-0.02656305406693211,0.22622194599196416,-0.0012118895840357749,-0.00031868176227600785,-0.00031868176227600785
41,0.41,-0.0036306811693845404,-0.02083816637075729,0.5451067763200483,-0.0009045192875690699,-0.002547313682670745,-0.002547313682670745
42,0.42,-0.004096161120701676,0.009064392571877616,0.787545755719052,-0.007591669516164717,-0.0015862161032571046,-0.0015862161032571046
43,0.43,-0.01136960165355631,0.062141219878272105,0.9206924042338687,-0.004573566663471415,-0.001081858185132298,-0.001081858185132298
44,0.44,-0.02666878909462721,0.046742584997733434,1.1182908553491522,-0.0008433529053781751,-0.00042835696326644037,-0.00042835696326644037
45,0.45,-0.004587285277133235,-0.011986988536378668,1.3388640912851033,-0.002562035073922056,-0.0026978547302221696,-0.0026978547302221696
46,0.46,-0.015480830996637548,-0.01774541460101049,1.5221427505661027,-0.002410523136765587,-0.0023671438426460033,-0.0023671438426460033
47,0.47,-0.023151000042671087,0.024221406315626807,1.5722750973411597,-0.006477423480600359,-0.0002555464863089373,-0.0002555464863089373
48,0.48,-0.020451084564942143,0.07823028393337866,1.5324473654403237,-0.005363652032811164,0.00027673680066432805,0.00027673680066432805
49,0.49,-0.018815319689038153,0.04668455967834461,1.543123646744049,-0.0007369546430767322,-0.002983668984687704,-0.002983668984687704
50,0.5,-0.011265333179620366,-0.01641071432670762,1.5678382140802472,0.0011712814607560565,-0.0019789839033703856,-0.0019789839033703856
51,0.51,-0.017219848368538918,-0.050153044986606554,1.5622566272481009,-0.0023177201558561623,-0.0019411210137948785,-0.0019411210137948785
52,0.52,-0.018529048933934818,0.01763669774770514,1.4220568407288012,-0.006313734386652396,-0.0006893312441084871,-0.0006893312441084871
53,0.53,-0.009192240681785554,0.05544492709064882,1.221891861429713,-0.004468222341679445,0.00028791097155481723,0.00028791097155481723
54,0.54,-0.010012285145497377,0.039423097271801724,1.0860425220352392,-0.002892041799621649,-0.002062279515072955,-0.002062279515072955
55,0.55,-0.0052197051853760165,-0.015208820301005708,1.0132223995285867,-0.003811213994663491,-0.0014076792567811044,-0.0014076792567811044
56,0.56,-0.0032541880074128636,-0.037987729188644036,0.8584087716288322,-0.003514565121121396,-0.0026737883588757684,-0.0026737883588757684
57,0.57,-0.017508343079328057,0.02172636865336998,0.6250285610818542,-0.005611210401567358,-0.004203952106855608,-0.004203952106855608
58,0.58,-0.016020666668320336,0.04619791424788213,0.3395447399686033,-0.00466654656655531,-0.002458377195171836,-0.002458377195171836
59,0.59,-0.012923792628147735,0.058662054942511914,0.15008655270218496,-0.005221193842788004,-0.0004892568758486351,-0.0004892568758486351
60,0.6,0.01808234831025691,-0.01809467001566458,0.03586928284951085,-9.826261210037471e-05,-0.0015972215320159858,-0.0015972215320159858
61,0.61,0.012870269208012626,-0.021680940121636218,-0.11731817497145791,0.0006299076482802723,-0.0013240246662711936,-0.0013240246662711936
62,0.62,-0.0163747129301541,0.008593285382848061,-0.3310120162169222,-0.0016595334518744991,-0.002095143674738182,-0.002095143674738182
63,0.63,-0.010829650197565741,0.03602933190298359,-0.6031132360443188,-0.004203636927185593,-0.0005808028940082482,-0.0005808028940082482
64,0.64,0.0073279324305779965,0.02313525575262111,-0.746882002760382,-0.004242755216010476,-0.003564622185322141,-0.003564622185322141
65,0.65,0.024159551609135806,-0.03401262020602097,-0.7931943896202099,-0.002633689983752237,-0.003870307854014904,-0.003870307854014904
66,0.66,0.010231425556964716,-0.040272213060780986,-0.8700403254427379,-0.002383756360937893,-0.002827933718406655,-0.002827933718406655
67,0.67,-0.003944108719413007,-0.04657666596255848,-1.0076295750544342,-0.002785272737884014,-0.00252813114693562,-0.00252813114693562
68,0.68,-0.006612681349547126,0.013198537885970724,-1.1845391561462357,-0.004966683927278552,-0.0009315377537389632,-0.0009315377537389632
69,0.69,0.004872112278508841,0.011442910610303579,-1.224012603379991,-0.0054813778704755475,-0.0037232812755120344,-0.0037232812755120344
70,0.7,0.031245146497430744,-0.03187745443954831,-1.157650501516465,-0.001933367319679868,-0.002759141118746736,-0.002759141118746736
71,0.71,0.017579163442957596,-0.06432169848227567,-1.0901695250441064,-0.0013316919062594502,-0.00266955972679105,-0.00266955972679105
72,0.72,0.016697941787037793,-0.027648674376607663,-1.1296998930486233,-0.003749317427491768,-0.0020032371107864284,-0.0020032371107864284
73,0.73,0.011529496272611855,0.02746258763889871,-1.1858001075310252,-0.002404998827056884,-0.0015051858503609338,-0.0015051858503609338
74,0.74,0.010627504899357397,-0.00511878303863578,-1.1218464743839631,-0.001604125414018632,-0.004557702237625694,-0.004557702237625694
75,0.75,0.021636866328011962,-0.036886562626997924,-0.9553180738890815,-0.0006507964493436851,-0.0042668744908585425,-0.0042668744908585425
76,0.76,0.026690756418181867,-0.06962031323245174,-0.794038205476939,-0.006545755431496223,-0.002001957523134245,-0.002001957523134245
77,0.77,0.01094211473186059,3.894688897149515e-05,-0.7354185817730998,-0.004327353204204167,-0.00034126091796075355,-0.00034126091796075355
78,0.78,-0.0033382012456540256,0.025682117207291185,-0.7208647018961375,-0.001971462837428065,-0.0008167300556327349,-0.0008167300556327349
79,0.79,-0.007104504969145374,0.015618562361807392,-0.6022457356047459,-0.0013104364458184931,-0.0019300775794259266,-0.0019300775794259266
80,0.8,0.012901043395231768,-0.04504832704045572,-0.38458995237880444,-0.0010380942471085646,-0.0016186856654837832,-0.0016186856654837832
81,0.81,0.023224896962658483,-0.04601385792413227,-0.2056808625675872,-0.005251884530599825,-0.002397263690915013,-0.002397263690915013
82,0.82,0.012133027338478573,0.011066099664398497,-0.1043662837727853,-0.004884565071965725,-0.001648427426404803,-0.001648427426404803
83,0.83,0.0034660462146385573,0.032573319636544466,-0.05940438759980177,-0.003564397115114732,-0.0012232573227839909,-0.0012232573227839909
84,0.84,-0.009574115422081895,0.03053549507550024,0.07445193464560296,-0.0015052957227739358,-0.0014646101935823649,-0.0014646101935823649
85,0.85,0.01844811591055438,-0.03684733693340775,0.2695004475371755,-0.0021316372237380555,-0.00155255362316477,-0.00155255362316477
86,0.86,0.011889253655967122,-0.034569437336664566,0.41034564008547086,-0.0039497495272203245,-0.0014237169726843634,-0.0014237169726843634
87,0.87,-0.0016154738894251855,-0.0009630480480796524,0.5010616240003017,-0.002590978975964242,-0.0019355404837269406,-0.0019355404837269406
88,0.88,-0.013940186265301937,0.0634665017447982,0.5092163343581041,-0.005133558638280415,-0.0020359560801901802,-0.0020359560801901802
89,0.89,-0.00454040231970942,0.03894836097425868,0.5828588243899935,-0.001335432871650592,-0.00048517288189586983,-0.00048517288189586983
90,0.9,-0.0010474876691719103,-0.025130135203675727,0.7109278960356925,-0.0008292112610355928,-0.0032885937270870345,-0.0032885937270870345
91,0.91,-0.013665646088148922,-0.03762820011922122,0.8235272117561427,-0.0012007619789686336,-0.002263416467825761,-0.002263416467825761
92,0.92,-0.023708037491282866,-0.005556747494613476,0.8073273577925711,-0.005385774689171015,-0.001252903388144449,-0.001252903388144449
93,0.93,-0.02113298138477932,0.05864869165782538,0.7553859396409021,-0.006898633636004153,0.00027641902883299325,0.00027641902883299325
94,0.94,-0.01518425983320889,0.02872730795566887,0.780390344041342,-0.003351115071344933,-0.0018097677458229812,-0.0018097677458229812
95,0.95,-0.012897344478956843,0.0068646234715445675,0.8398478991801468,-0.0002632152303978864,-0.002556364211435973,-0.002556364211435973
96,0.96,-0.02160148494781394,-0.04202678590524677,0.8487004829320983,-8.290979538004076e-05,-0.003173777747032234,-0.003173777747032234
97,0.97,-0.038157349287202935,0.015471133584389276,0.8011437935076774,-0.001992516083136294,-0.0018755257107630008,-0.0018755257107630008
98,0.98,-0.016229489145250874,0.053735941669735866,0.666844823043203,-0.0054301844524700495,-0.0006861244871600967,-0.0006861244871600967
99,0.99,-0.009677672124135134,0.04159292356133682,0.6255238293807067,-0.004655939542288146,-0.003675940999942821,-0.003675940999942821
100,1.0,0.004177645294760101,-0.0027242145270350154,0.6496501233639134,-0.0025797437099909664,-0.003649965180157681,-0.003649965180157681
101,1.01,0.001586066532227223,-0.039718626592003065,0.6208350510402261,-0.0027300755545860357,-0.001773051393486867,-0.001773051393486867
102,1.02,-0.027393044298640114,0.029019375199985528,0.4909940636681336,-0.004698245810512797,-0.0027102185080290267,-0.0027102185080290267
103,1.03,-0.009268992556486454,0.03966967549898734,0.31825911111853133,-0.0039130830630484895,0.000362614978567653,0.000362614978567653
104,1.04,-0.008344921958135314,0.04351528362056861,0.240264676110333,-0.003222653375933037,-0.003513609722112264,-0.003513609722112264
105,1.05,0.013891670354143053,-0.014219049966365725,0.24921996191675128,-0.004459947231878768,0.000131044148298785,0.000131044148298785
106,1.06,0.016272501109669144,-0.016092819936984738,0.19247922938844964,-0.0033888005602502502,7.749162543760605e-05,7.749162543760605e-05
107,1.07,-0.015978341586102812,0.0006521245528227533,0.0664203005987418,-0.0023366909627953237,-0.0004925588646826117,-0.0004925588646826117
108,1.08,0.009978425288186444,0.028955304021498613,-0.12791931014084992,-0.002626226978602369,-0.0011382813955463649,-0.0011382813955463649
109,1.09,-0.008310351464489631,0.035100557096198165,-0.20358717727720357,-0.0049782510948782974,-0.0036056350090540147,-0.0036056350090540147
110,1.1,0.018365827395204773,-0.02716564407206306,-0.18746006334762527,-0.0030841670216231482,-0.0016057506165907342,-0.0016057506165907342
111,1.11,0.01954708997270805,-0.028269367802513653,-0.20450249649619576,-0.004124467091789025,-0.0023766773326270355,-0.0023766773326270355
112,1.12,0.006321570898045859,-0.014873667085939037,-0.3223936990288071,-0.0064995324358078956,-0.0016703690039799016,-0.0016703690039799016
113,1.13,0.008560203409185677,0.03442566505927043,-0.46957073836647834,-0.0029406811883466045,-0.0014176841632004412,-0.0014176841632004412
114,1.14,0.007377811947760852,0.001666281508633195,-0.5133549434826551,-0.002566826776312001,-0.003265277039467859,-0.003265277039467859
115,1.15,0.01480685587750685,-0.026660742280290566,-0.4729814505852023,-0.0005437898074219572,0.00019472593342148483,0.00019472593342148483
116,1.16,0.027944354139487575,-0.0540214675074647,-0.4325055124859244,-0.003672236691314797,-0.002035280079195542,-0.002035280079195542
117,1.17,0.010953926482786498,-0.0072574649990162,-0.49870212424453186,-0.0017898312596442147,6.851068332331366e-05,6.851068332331366e-05
118,1.18,-0.004391645275923933,0.027267955474058587,-0.5973484330142155,-0.00184179974970018,-0.002051587624762963,-0.002051587624762963
119,1.19,-0.008466753357471928,0.0032875399982943004,-0.6153723137333219,-0.001816760415969116,-0.0007053343187652036,-0.0007053343187652036
120,1.2,-0.011759585236788522,-0.018491979990093717,-0.5287937306805512,-0.0025971125831863407,-0.0013298307370073,-0.0013298307370073
121,1.21,0.025238221494157994,-0.06701884620893551,-0.4683745698300556,-0.003964087706285345,-0.003127531211026185,-0.003127531211026185
122,1.22,-0.0050201983549418554,0.009555011089130417,-0.4682318007660016,-0.006537169153553126,-0.002893824117871516,-0.002893824117871516
123,1.23,-0.008504886919654073,0.02556108349106683,-0.5250671455391065,-0.00397946311042537,-0.001981465467329553,-0.001981465467329553
124,1.24,0.001407005379129468,0.01666386420839622,-0.500724888891531,0.0002210289704938661,-0.00397920485982434,-0.00397920485982434
125,1.25,0.018247173557843638,-0.05082705265939445,-0.38622492573809963,-0.0012751982621325227,-0.004562017581414988,-0.004562017581414988
126,1.26,0.004066913880722325,-0.06196530231881295,-0.30063643281747426,-0.005370160307411316,-0.0027139941259458327,-0.0027139941259458327
127,1.27,-0.022143743887374612,0.0016018976744622028,-0.2612182958168081,-0.005701964623547523,-0.002508188484047991,-0.002508188484047991
128,1.28,-0.008356239162743643,0.0407563732950173,-0.3014049174961115,-0.003915219531326068,-0.0018061197342356023,-0.0018061197342356023
129,1.29,0.0024174516654453734,0.03716267079530283,-0.24517188370298432,-0.002407830950271272,-0.0006900738200093106,-0.0006900738200093106
130,1.3,0.010115135456145818,-0.04615843760730672,-0.11720255459410088,-0.0007948417489685313,-0.003239095714486108,-0.003239095714486108
131,1.31,0.0036031563975346802,-0.04949811007276047,-0.015225189079196483,-0.003989726100996369,-0.002932300688495839,-0.002932300688495839
132,1.32,-6.279761582306904e-05,-0.020447730848372515,0.001977546709784818,-0.0051381979509059995,-0.000903840925561333,-0.000903840925561333
133,1.33,0.003009187863727762,0.06541932282807703,-0.016318662561269043,-0.004160521417637622,-0.004035689005463231,-0.004035689005463231
134,1.34,-0.0020148089452768077,0.01808934537069836,0.04014838869678419,-0.0027284059323369183,-0.0015758064321932288,-0.0015758064321932288
135,1.35,0.006628808776943355,-0.026697162384736017,0.15675110826703764,-0.003225262019768621,-0.0044670020953110475,-0.0044670020953110475
136,1.36,0.005790420862055025,-0.04303900028455318,0.2343290185487784,-0.0010309554896510331,-0.002656699630505732,-0.002656699630505732
137,1.37,-0.0028151327732707926,-0.0006426196842443076,0.22360489008443468,-0.00644625887601297,-0.0009903380037702123,-0.0009903380037702123
138,1.38,-0.01419725456688982,0.0640566405764946,0.19956140980723425,-0.0053955435579315,-0.0012899844240907158,-0.0012899844240907158
139,1.39,-0.0027353547909798348,0.025565062736494976,0.2331162079998372,-0.00371973553297744,-0.0031687984843402953,-0.0031687984843402953
140,1.4,0.016158863993172713,-0.005504452946657856,0.34143335457566887,-0.0013256797535134096,-0.004680369904247781,-0.004680369904247781
141,1.41,0.020961671170630015,-0.06905106308253016,0.4004342756900134,-0.001282360113803119,-0.0023367283251077035,-0.0023367283251077035
142,1.42,-0.01895829142551265,0.014914789834815537,0.3396514546377856,-0.002953621174798741,0.0011347501138126988,0.0011347501138126988
143,1.43,-0.02431561327438021,0.03311680156897352,0.2699893830498908,-0.005196967668346477,-0.0010082536435977103,-0.0010082536435977103
144,1.44,-0.005616204412992317,0.026688458901512172,0.29209405357792495,-0.002890102489271938,-0.002526580856131369,-0.002526580856131369
145,1.45,0.00046548055067524227,0.015118949122445722,0.4068396968951533,-0.000410676394352254,-0.003050529174566633,-0.003050529174566633
146,1.46,0.0020450321894336246,-0.007919783609824961,0.4525749717079598,-0.0028012677749032753,-0.0026387929340793773,-0.0026387929340793773
147,1.47,-0.0024449754730263636,0.03578527748325892,0.3829506393921878,-0.0019552392330759614,-0.001043765184036713,-0.001043765184036713
148,1.48,0.016906937989151324,0.017122282363865586,0.23572480628855874,-0.003545434997804929,-0.0021309178558501693,-0.0021309178558501693
149,1.49,-0.0057155919111011606,0.04021441372666278,0.2136691869875844,-0.005242511710232704,-0.002113432848066429,-0.002113432848066429
150,1.5,0.009876355672988738,-0.03948735592635687,0.2576853347442404,-0.0023426132110921354,-0.003854318432947089,-0.003854318432947089
151,1.51,-0.004982400622879886,-0.023069995781256795,0.2982832374752958,-0.0028606850397237954,-0.002672415390588382,-0.002672415390588382
152,1.52,-0.0034620252440407027,-0.0026364359191568335,0.22504972122052383,-0.00022676154030482027,-0.0011757589780010981,-0.0011757589780010981
153,1.53,-0.01672215462440098,0.03885982686928909,0.07882590879235402,-0.00040618517075790027,0.000943166158114826,0.000943166158114826
154,1.54,-0.015652127904724693,0.01939909776015014,0.05038426224794515,-0.0030520128289278745,-0.0025642843645246284,-0.0025642843645246284
155,1.55,0.0017600848059658525,-0.03459204173660685,0.09624628029993162,-0.0028404742543693237,-0.0030227432288927997,-0.0030227432288927997
156,1.56,0.01649473255098015,-0.030787786625635295,0.12822477161879964,-0.0040419147380178645,-0.00160754574645473,-0.00160754574645473
157,1.57,0.0019235011982143549,-0.018943572000566816,0.060085927905252315,-0.005552732089966168,-0.0009652129060699584,-0.0009652129060699584
158,1.58,-0.032948581375017105,0.06225560358445277,-0.05362601873946847,-0.003972529340098979,-0.0018924160721188602,-0.0018924160721188602
159,1.59,-0.015459031653097446,0.022550318411766364,-0.1115100928867989,-0.0012880496780217265,-0.0012697373091070845,-0.0012697373091070845
160,1.6,0.011537724781451975,0.0004919238468781353,-0.05619073021822975,-0.0022052095283611613,-0.002098836418642433,-0.002098836418642433
161,1.61,0.015120565612852974,-0.06000892273071882,-0.01902693070822878,-0.002315867310433761,-0.005284562673032484,-0.005284562673032484
162,1.62,-0.01985551608492836,0.01416936269842328,-0.09614322078964124,-0.006596588060524928,-0.0026841519640705275,-0.0026841519640705275
163,1.63,-0.020854966083946852,0.041535234357922876,-0.18218180858550564,-0.004464832308299417,-0.000825743990112723,-0.000825743990112723
164,1.64,0.002473024270783577,0.024118311190521376,-0.2246247497994266,0.0022876103274160906,0.00018496463250658967,0.00018496463250658967
165,1.65,0.009197960884814869,-0.01807794995507281,-0.17126575882160916,0.00028363399792078733,-0.0017068022401839147,-0.0017068022401839147
166,1.66,0.01856748217489429,-0.07884851905526574,-0.14982785251798234,-0.0018849698436242933,-0.001358529655915801,-0.001358529655915801
167,1.67,-0.013302442322994885,0.0058293164317681796,-0.1919008210255422,-0.005492679945796993,-0.003306708856908286,-0.003306708856908286
168,1.68,-0.0001264200712328533,0.039788906799161514,-0.2780980384585583,-0.0054931656957871895,-0.0026587618202973387,-0.0026587618202973387
169,1.69,-0.0003384597033060212,0.0385184238913324,-0.27069295489186923,-0.0008709904637537944,-0.0014124709285643464,-0.0014124709285643464
170,1.7,-0.0006383967492243877,-0.05546597895685893,-0.1850791203149695,0.0006314099652286768,-0.0008141979410111752,-0.0008141979410111752
171,1.71,0.0075563816513114215,-0.05539672835145529,-0.16158182195377824,-0.0031821672406199862,-0.0004367506225738292,-0.0004367506225738292
172,1.72,0.017781992465620573,-0.005171941337352253,-0.18176968516148106,-0.005034361249149683,-0.00032892195246864885,-0.00032892195246864885
173,1.73,0.02191433196857266,0.037749190450718915,-0.267282600016077,-0.0068096800790749925,-0.000734933263345567,-0.000734933263345567
174,1.74,-0.006650823895361528,0.03660745089147413,-0.22793743532184355,-0.0017673616862905843,-0.002786930823914238,-0.002786930823914238
175,1.75,0.009705183409589766,-0.059770455205545,-0.156652420911947,-0.0006715219579507526,-0.0030434735643704576,-0.0030434735643704576
176,1.76,0.023049318401945913,-0.04626381210746869,-0.08113922607931785,-0.003890545964084481,-0.0037642289238564736,-0.0037642289238564736
177,1.77,0.005903811675096277,-0.003952022302565569,-0.11054336575491351,-0.0032428539165075395,-0.003136838921350779,-0.003136838921350779
178,1.78,-0.020473846450397546,0.0772594421134593,-0.14660623808937193,-0.002178234507690013,-0.003475173041687029,-0.003475173041687029
179,1.79,-0.0024252080768065124,0.032470843600442514,-0.11792107335676569,-0.0035771126594743977,-0.0009795018848814511,-0.0009795018848814511
180,1.8,0.03063002227068833,-0.01734580625470629,-0.03742247004475319,-0.0038683145199227523,-0.0030956413292654804,-0.0030956413292654804
181,1.81,0.01089177258690347,-0.047825576834852515,0.02537679516376616,-0.0037926295021086173,-0.0007421371175723663,-0.0007421371175723663
182,1.82,-0.017021590838982175,-0.02704359312568547,-0.011527043786762815,-0.002798140366823448,-3.845695682183186e-05,-3.845695682183186e-05
183,1.83,-0.015936907992709883,0.02729199028235353,-0.07170519836420275,-0.003592528155134129,-0.0020261749438203747,-0.0020261749438203747
184,1.84,0.011846249865409723,0.007409146288294401,-0.056154984732829795,-0.0014974754289513133,-0.0023842529281073908,-0.0023842529281073908
185,1.85,0.011777390285282699,-0.004812597885689825,0.0712860763997755,0.0014506339181256365,-0.0023718408512189977,-0.0023718408512189977
186,1.86,-0.0014268536408225787,-0.04365782048987931,0.12179710556546085,-0.002289317836682934,0.000896263860388388,0.000896263860388388
187,1.87,-0.019653327961024144,-0.00016884376084184017,0.08922105384266218,-0.003174367941179333,-0.0008430464618275857,-0.0008430464618275857
188,1.88,0.0034228771982683258,0.01037941453467209,0.016291133433699256,-0.001871785997713568,-0.0019968902990418038,-0.0019968902990418038
189,1.89,-0.003785963474202833,0.03139577252506503,0.03646298817648423,-0.0018633405250603548,-0.00215227690946609,-0.00215227690946609
190,1.9,-0.00530966967925146,-0.0033420317088701723,0.16301325098417555,-0.002301797665692561,-0.002510896686849276,-0.002510896686849276
191,1.91,0.007975987372198904,-0.03240183601833239,0.2154459561035943,-2.424451165147692e-05,-0.0013650413923779435,-0.0013650413923779435
192,1.92,-0.01445916227640685,0.016201341863462976,0.17776512299866634,-0.0036237162120009775,0.000149839931784601,0.000149839931784601
193,1.93,0.003129727597686093,0.02386524898387391,0.06543542722486369,-0.004589380805440296,-0.0015248764039974033,-0.0015248764039974033
194,1.94,-0.02107878660312796,0.03503216923174646,0.08301915696731468,-0.0032902149105692056,0.0008486526551551119,0.0008486526551551119
195,1.95,0.007235605306112581,-0.04773798688594026,0.16551546642020426,-0.0022687795995208733,-0.002692103805484236,-0.002692103805484236
196,1.96,0.005987380280328013,-0.02182313194077043,0.20717087520123473,-0.004767899411830021,-0.002448414430083089,-0.002448414430083089
197,1.97,0.0045318090512873315,-0.0007017301548064049,0.16633013322561385,-0.002864315892472419,-0.002325547767651239,-0.002325547767651239
198,1.98,-0.02186263816160529,0.05754675776621053,0.05449030084282917,-0.0016411240175136304,-3.3468409489515252e-06,-3.3468409489515252e-06
199,1.99,-0.023702744312866855,0.0279120474070918,0.044390422463378806,-0.002930599498702992,-0.002496688645434069,-0.002496688645434069
200,2.0,0.012020312191947902,-0.0364151131537143,0.107244933132596,-0.002371848236791245,-0.002015514658116535,-0.002015514658116535
201,2.01,0.007226800973191021,-0.032744056140788166,0.17093014807103862,-0.0027264221881723397,-0.00035261768166481466,-0.00035261768166481466
202,2.02,-0.006814737949468861,0.006508374785386507,0.11428783814358237,-0.002185339453331869,-0.0012558391069437318,-0.0012558391069437318
203,2.03,-0.01661438629741037,0.07229382165591863,0.020206488583910755,-0.004890991518429668,0.0011357134223182609,0.0011357134223182609
204,2.04,-0.004614969580160834,0.029387306349881195,-0.011001409677817833,-0.0013566310458584675,-0.0016790905732609175,-0.0016790905732609175
205,2.05,0.01147277134448641,-1.756643168553812e-05,0.05904782888569757,0.00030009287525257806,-0.0015416834673757287,-0.0015416834673757287
206,2.06,0.008646515295555518,-0.051891761924381156,0.09113299218065748,-0.0038690450779891423,-0.0023624302077705087,-0.0023624302077705087
207,2.07,-0.005028503881448935,0.02435480920842793,0.03410387959436515,-0.005124014582862303,-0.0033974633799816033,-0.0033974633799816033
208,2.08,-0.003034336689999329,0.03443507857076283,-0.04203788480693988,-0.0026232571930095505,-0.0024802584900882,-0.0024802584900882
209,2.09,-0.0029885040027037117,0.03938770023110995,-0.06998656886925109,-0.0016629767237024485,-0.003159807251846721,-0.003159807251846721
210,2.1,0.005149585574654933,-0.016500317285874706,0.009779035636561899,0.00016574737809048446,-0.003132604630719471,-0.003132604630719471
211,2.11,0.017811343078771816,-0.04817248530070435,0.03222787162499364,-0.00210933767137228,-0.000322065293779857,-0.000322065293779857
212,2.12,0.008086693404907936,0.005167192795087889,-0.017142068681236817,-0.0062924865065362426,-0.0011906668649951345,-0.0011906668649951345
213,2.13,0.01031278729506632,0.0187793501388562,-0.11091667371902648,-0.007326648389818487,-0.0010029059708723293,-0.0010029059708723293
214,2.14,-0.00798101555677491,0.024531543268463518,-0.11191209800968646,-0.005547937961149109,-0.003295033874412228,-0.003295033874412228
215,2.15,0.019889397126618517,-0.05230083805579364,-0.04553044202136265,-3.337417492558191e-05,-0.0007952063584036324,-0.0007952063584036324
216,2.16,0.00976514863088179,-0.04877469556848594,-0.02811131362748353,0.00027030101368496736,-0.0028395943911771197,-0.0028395943911771197
217,2.17,-0.010444624889433873,-0.01827109093780554,-0.07466675925737704,-0.003588153495819492,-0.0021968699595338575,-0.0021968699595338575
218,2.18,-0.01605272693453324,0.03450381566528821,-0.16574841137903862,-0.008450148553930642,-0.0022991543115962218,-0.0022991543115962218
219,2.19,0.0014442192858734907,0.021226580132448228,-0.13562468755694668,-0.005010234930591506,-0.0011653864148247176,-0.0011653864148247176
220,2.2,0.011884862398236159,-0.028261196587564576,-0.059755121558749805,-0.002129498444981892,-0.002167179513947899,-0.002167179513947899
221,2.21,0.008074990251321443,-0.03393999263213228,-0.01038612941439536,-0.0016620735694784685,-0.003015827070171479,-0.003015827070171479
222,2.22,-0.0038060006474749768,-0.01614307913921694,-0.07177807586453791,-0.004830252620710353,-0.003882194588350393,-0.003882194588350393
223,2.23,-0.018923073508036493,0.04965354468127899,-0.126722936748707,-0.005939160993831156,-0.0024618228454955345,-0.0024618228454955345
224,2.24,0.001403234394621763,0.011526026395781028,-0.10931671433628959,-0.0038094630031846343,-0.00299687114074828,-0.00299687114074828
225,2.25,0.012494280861309954,-0.01979667562997067,-0.027477926642182897,-0.0012707648245541396,-0.0037432683537668,-0.0037432683537668
226,2.26,0.009939018267809355,-0.06265242001855635,0.03587794959477816,-0.0010545917102962538,-0.000807346628501634,-0.000807346628501634
227,2.27,-0.007959623029089601,-0.009009688821058504,-0.029206972117787434,-0.00034656012461328566,-0.0008554830446349883,-0.0008554830446349883
228,2.28,-0.010661368577362995,0.0421591648638268,-0.09663339329238305,-0.002468864360666085,-0.0017868503394451601,-0.0017868503394451601
229,2.29,-0.011078887325377774,0.02133132966299063,-0.08247978273713738,-0.0033622861325439263,-0.0019702239396112487,-0.0019702239396112487
230,2.3,-0.0021416303373614737,-0.012967730867900762,0.006105350792229916,-0.002190469271972128,-0.003424756850873937,-0.003424756850873937
231,2.31,0.013001138977868252,-0.06795734934185925,0.05161967685447412,-0.002408647425520061,-0.003682824421878675,-0.003682824421878675
232,2.32,-0.007150758403554407,0.016841567985190656,0.01310314316264791,-0.0024356719207824684,-0.0009300138665126527,-0.0009300138665126527
233,2.33,-0.011602415565815621,0.018287402838082802,-0.0753218486822941,-0.003650915182995108,-0.0020053424535467204,-0.0020053424535467204
234,2.34,-0.035809705203463556,0.033220137561487506,-0.05538275589421936,0.0007696995710648664,-0.002533341864315249,-0.002533341864315249
235,2.35,0.0061410054019219,-0.02675509979143881,0.041806785440712715,-0.00014687805737925177,-0.0034024023189735755,-0.0034024023189735755
236,2.36,0.027061941452277895,-0.022824194629604097,0.08552792018623799,-0.0031240050976060877,-0.00039223455352726736,-0.00039223455352726736
237,2.37,0.011529887936447075,0.012439634150613107,0.06156009476345973,-0.0059963184718152,-0.0014857371232714785,-0.0014857371232714785
238,2.38,0.00765119663001633,0.040432268362162585,-0.045565915223326134,-0.003138926946442573,-0.0004904308534417695,-0.0004904308534417695
239,2.39,-0.0059960885197777895,0.0286792520494116,-0.02672556761236103,-0.0004921105225049582,-0.0045919560614118005,-0.0045919560614118005
240,2.4,0.0024335780003723207,-0.023569716077163738,0.03129510826438027,-0.001059662337831667,-0.0023060697931188163,-0.0023060697931188163
241,2.41,0.0048063754101435865,0.0003407469899018474,0.11889714037917849,-0.002855275495566233,-0.0031981530199204364,-0.0031981530199204364
242,2.42,0.009986308022683226,0.0033331325540491234,0.07470416257567075,-0.00471708888568272,-7.816126084622156e-05,-7.816126084622156e-05
243,2.43,-0.0151212092576783,0.05232998956529756,-0.014863651351229211,-0.004516594773380158,-0.0014376794882127912,-0.0014376794882127912
244,2.44,-0.012372716908525002,0.015632811506205928,-0.005040652622361141,-0.001252323249922783,-0.0024322878599854427,-0.0024322878599854427
245,2.45,0.019018803934726,-0.020696777554567905,0.05850115341657479,0.002365932232010799,-0.002813053076662111,-0.002813053076662111
246,2.46,0.009961984240749311,-0.0442290639271548,0.11456411189919573,-0.0026426038083219396,-0.0028131363971173394,-0.0028131363971173394
247,2.47,-0.0010734446171103678,-0.0032430161088907,0.07441548287221014,-0.005645287909630309,4.36350458019011e-05,4.36350458019011e-05
248,2.48,-0.007043230854957402,0.0501112063019274,6.50672688659315e-05,-0.0037026558962627524,-0.0022105096957163225,-0.0022105096957163225
249,2.49,0.006232958847876797,0.023888184034882777,-0.007603413370353654,-0.001998068558950696,-0.002749555865641431,-0.002749555865641431
250,2.5,0.0012843286078849468,0.0007855240595978329,0.06227262834809259,-0.0006474214712799674,7.859264729372312e-05,7.859264729372312e-05
251,2.51,0.0026839075426922346,-0.061890355703031454,0.10305477211770428,-0.0025250253919002264,-0.0021412168773348086,-0.0021412168773348086
252,2.52,-0.017269401717474354,0.007457148013733525,0.05953495010490466,-0.004375803562608143,-0.0009059231289335508,-0.0009059231289335508
253,2.53,0.0064517122792821235,0.047263255459977005,-0.03143383935206393,-0.005820721561382736,-0.002857910887823732,-0.002857910887823732
254,2.54,-0.002178674284673006,0.04121907363339524,-0.024666617616521478,-0.0032940895181268392,-0.0038182145296458405,-0.0038182145296458405
255,2.55,-0.012251604527255133,-0.030204019408814294,0.060008605534093845,-0.0006003636292163618,-0.0024253224372829804,-0.0024253224372829804
256,2.56,0.004556798915012768,-0.049393276848683776,0.06552200134750663,-0.0020862928911836807,-0.004669415012315135,-0.004669415012315135
257,2.57,-0.007607954811947379,-0.0018577325957589985,0.024899905544373407,-0.004883168650134795,0.001693518018768988,0.001693518018768988
258,2.58,0.0019752186875229404,0.03641207899735968,-0.05592247063201888,-0.0055426003421168366,-0.002212661436766511,-0.002212661436766511
259,2.59,-0.013937633721346467,0.029117722973678768,-0.03803613658719654,-0.001905914739634832,-0.003265360086650361,-0.003265360086650361
260,2.6,0.018117847498325873,-0.054077344678490014,0.02756720512366346,-0.0014322375974568007,-0.002173662057619213,-0.002173662057619213
261,2.61,0.010979355096252839,-0.044466535219762474,0.06819660311585177,-0.002004373244777482,-0.003193043511119587,-0.003193043511119587
262,2.62,-0.005305591574337033,-0.018627185993742804,-0.014811941372029059,-0.0031335676341195714,-0.0016017443679767994,-0.0016017443679767994
263,2.63,-0.02042698950585299,0.029125216803965508,-0.09225359433549943,-0.0032370286734812875,-0.0012796637029509064,-0.0012796637029509064
264,2.64,-0.01662875827471878,0.00715690813824256,-0.06808544845264831,-0.002552914980576857,-0.0007563472333245965,-0.0007563472333245965
265,2.65,0.02308798659413247,-0.03366485140764336,0.005037427843078611,-0.0034609629087939326,-0.0017925390987443394,-0.0017925390987443394
266,2.66,0.013810428691184765,-0.023975523908305964,0.044220857407847154,-0.000983181723200442,-0.002381328711732369,-0.002381328711732369
267,2.67,0.0013016051436100518,-0.004826346291410984,-0.010575209336742955,-0.00047512855040571483,-0.003646289406421987,-0.003646289406421987
268,2.68,-0.023374672798539345,0.05322954676263463,-0.09993173605690087,-0.002879874640464408,-0.0017647077460311816,-0.0017647077460311816
269,2.69,-0.004701057594330202,0.010194004218464954,-0.08337461895733209,-0.004724944198802711,-0.003548877791815121,-0.003548877791815121
270,2.7,0.012301499048386955,-0.0066080616556252955,-0.007259038253481141,-0.0037354555543263382,-0.00197391647708207,-0.00197391647708207
271,2.71,0.015676948005390726,-0.043038795721405336,0.04000290122714108,-0.0051905870849721526,-0.0012954158074260495,-0.0012954158074260495
272,2.72,-0.01134174701832357,0.0009190371727502353,-0.00677893093260391,-0.0026322420841802955,-0.0008544098355407733,-0.0008544098355407733
273,2.73,-0.005032773349334968,0.038824161724880235,-0.09884179861548675,-0.0011969068278249227,0.0007825038213570416,0.0007825038213570416
274,2.74,-0.005513047007185353,0.02143413422296207,-0.10853296406017798,-0.002937370429788962,0.0005598861893786739,0.0005598861893786739
275,2.75,0.009986911338229015,-0.017323751751592505,-0.002647406385841211,-0.003021082308431825,-0.0024780871604675853,-0.0024780871604675853
276,2.76,0.03575271091827556,-0.049213062485861415,0.05583376059469099,-0.00245003610172647,-0.003963135457917389,-0.003963135457917389
277,2.77,-0.006659430403854347,0.018439128736978637,0.02493852619177149,-0.00417370311357739,-0.004442043273901532,-0.004442043273901532
278,2.78,-0.014197876907493849,0.030760212735856895,-0.06950786647952537,-0.001997912081487028,-0.0019091291349870093,-0.0019091291349870093
279,2.79,-0.0184441649022972,0.033995486457082495,-0.0762669233791044,-0.0008450338233522237,-0.0020980647382882146,-0.0020980647382882146
280,2.8,0.012816673559549175,-0.033685527820735625,0.007279327863286698,-0.0019464715210238755,-0.005256279818430437,-0.005256279818430437
281,2.81,0.01582359350324387,-0.032996691409071605,0.056921208928815414,-0.003866773909531325,-0.003033819881742525,-0.003033819881742525
282,2.82,0.003810043107754386,0.004445931815665619,0.0382227084129485,-0.0054458117817538605,-0.001819411462884136,-0.001819411462884136
283,2.83,-0.0024973131627872985,0.037142585425734106,-0.04750009521496433,-0.0032973718570835715,-0.002105840322538892,-0.002105840322538892
284,2.84,-0.00696108616357071,0.03303740941854803,-0.049322303054943506,-0.0007724101790819162,-0.0023005237956864326,-0.0023005237956864326
285,2.85,0.015597938816185571,-0.03632498111429596,-0.0001938763752753342,-0.0026458660706999452,-0.000586137727159107,-0.000586137727159107
286,2.86,0.0025214132243406902,-0.04119670862572961,0.07751028358632815,-0.003416592486276049,-0.0032925822916180353,-0.0032925822916180353
287,2.87,-0.01813081616424961,0.0036337512955486213,0.020097852707073233,-0.007965020436492347,-0.0004081536936834545,-0.0004081536936834545
288,2.88,-0.009145198612543018,0.0652718138349922,-0.03344782751622373,-0.007630343485833955,-0.0021863202437383657,-0.0021863202437383657
289,2.89,0.0038155859062115093,0.027286686772753557,-0.028773946054035417,-0.003001292861294102,-0.0007644039848240043,-0.0007644039848240043
290,2.9,0.0028881766250077835,-0.020760214707670713,0.03990822403351618,-0.0003940785368771352,0.0002435467312177184,0.0002435467312177184
291,2.91,-0.00506138847960087,-0.05259763245857899,0.0807742308386701,-0.001665639759662013,-0.0023316706186317336,-0.0023316706186317336
292,2.92,-0.005376439858523584,0.011682855690925689,0.028072065095258416,-0.006669299834848601,-0.0012738672820751119,-0.0012738672820751119
293,2.93,-0.015897886714045135,0.054098277889976884,-0.03796292164581524,-0.004497993644760143,5.504019035649805e-05,5.504019035649805e-05
294,2.94,-0.013625987369088884,0.017584298281252183,-0.027967681720118237,-0.0037048571795645743,-0.0017454677971183163,-0.0017454677971183163
295,2.95,0.010996404118652943,-0.030877671317986716,0.04432129990191044,-0.0010006754760344913,-0.0036340838621794673,-0.0036340838621794673
296,2.96,0.01892376784500896,-0.05814960236019173,0.06214214997189406,-0.0006282527425325532,-0.0005249400351228324,-0.0005249400351228324
297,2.97,-0.004642821108431811,0.012019763684793525,0.03467939482769022,-0.004381118016558901,-0.0009142646990805113,-0.0009142646990805113
298,2.98,-0.016581351686998393,0.024396393648422672,-0.0644627803780865,-0.006404640505127757,-0.002838002656539981,-0.002838002656539981
299,2.99,-0.01837262556899181,0.04214442489237774,-0.037220625252656285,-0.0046295571662158036,-0.0043018596464760575,-0.0043018596464760575
300,3.0,0.027629658260721723,-0.03578957651329221,0.04688386887811801,-0.0008769990872315362,-0.0038578340443326063,-0.0038578340443326063
301,3.01,0.022471296427445678,-0.03619829935376748,0.07067273718709177,-0.0026768063835964323,-0.0002419598847022085,-0.0002419598847022085
302,3.02,-0.011112577679597672,0.010156965082696881,0.039289768840875386,-0.0045141679452364025,-0.002624711046610411,-0.002624711046610411
303,3.03,-0.00936084469372052,0.019043430182703863,-0.06212056750511873,-0.003294460639774105,0.0011435773405569873,0.0011435773405569873
304,3.04,-0.006411122728002264,0.03423378167714296,-0.031412786445801893,-0.0007967254491648354,-0.0024901073005283037,-0.0024901073005283037
305,3.05,0.036479540219094865,-0.028195479218034062,0.03011138846932259,-0.002810966532747159,-0.002787807757483805,-0.002787807757483805
306,3.06,0.013905186640461132,-0.028553909432379263,0.09081264304142894,-0.0017047864016630308,-0.00200666753532655,-0.00200666753532655
307,3.07,-0.009821186204247333,-0.016641083638939874,0.03783024187203704,-0.002319024034014714,-0.001723189529371027,-0.001723189529371027
308,3.08,-0.014146164343024343,0.026257505875771053,-0.06103553970040476,-0.003826999889102872,-0.001141194824153462,-0.001141194824153462
309,3.09,-0.0017069292919876912,0.014646381649260765,-0.05339608071268888,-0.001386298743094141,-0.00203389782191602,-0.00203389782191602
310,3.1,0.011735254186639819,-0.01680262571334584,0.015484569711710548,0.0003822629638656568,-0.0024941743271580195,-0.0024941743271580195
311,3.11,-0.006053732867904197,-0.03410676675915753,0.08049214517359629,-0.0007531628819003678,-0.002252961613367184,-0.002252961613367184
312,3.12,-0.0004251725919364956,-0.00040253066941472494,0.023858523941149935,-0.0008539125194573287,-0.0017669983732423074,-0.0017669983732423074
313,3.13,-0.013661981425923075,0.03870909746972199,-0.05876566675259189,-0.0016319969817082912,-0.0022117607000671207,-0.0022117607000671207
314,3.14,-0.009443509783914705,0.010619023749905067,-0.08233671029445987,-0.001010160866182446,-0.00090459646479326,-0.00090459646479326
315,3.15,0.011835833319077425,-0.024293058230856455,0.009640586801242627,-0.002279024326661343,-0.0015416281180907427,-0.0015416281180907427
316,3.16,0.016527961906794737,-0.052403849577757886,0.05322255379268977,-0.0040823003213354475,-0.0015769463150167506,-0.0015769463150167506
317,3.17,-0.014608105126528817,0.018998557092803958,0.025318066215305378,-0.0044748458761428335,-0.0021731685112720963,-0.0021731685112720963
318,3.18,-0.00512319025275197,0.04500387316456241,-0.06424300230436367,-0.002251384898355812,-0.0006942750204413399,-0.0006942750204413399
319,3.19,-0.022968176094516977,0.03540277704916116,-0.07186918520253549,-0.00018995290543919905,-0.0017534966800435625,-0.0017534966800435625
320,3.2,0.007082051261174063,-0.030926802066896863,0.00972540636673053,-0.001931917059593761,-0.0026471689102871825,-0.0026471689102871825
321,3.21,0.009125156459708267,-0.03828259595277639,0.04681377478539345,-0.0039120747726327405,0.00017376145451225913,0.00017376145451225913
322,3.22,-0.006648970797875885,0.002104445895963619,0.02362395644901636,-0.004830675619768515,-0.0012579551059582526,-0.0012579551059582526
323,3.23,-0.004001417494017262,0.03143023445932589,-0.06912104722032561,-0.003021579932377945,-0.0027401607835276466,-0.0027401607835276466
324,3.24,-0.02013992138409952,0.040055609548347255,-0.05787869495004448,0.0004485696103023952,-0.002530395412560271,-0.002530395412560271
325,3.25,0.027654766346990444,-0.04730090520836042,0.004292549416665362,0.0006944077129649017,-0.003326757862500241,-0.003326757862500241
326,3.26,0.011154103328739399,-0.035873308314262824,0.04947048608101334,-0.0038429452322242975,-0.0005526925360054575,-0.0005526925360054575
327,3.27,-0.007386280390685547,-0.003992934739099906,0.012186142278208878,-0.0067917841583114355,6.893574084954587e-05,6.893574084954587e-05
328,3.28,-0.021000355394238536,0.06899896039798056,-0.051621581207502404,-0.002885828613778309,-0.0011087912152864636,-0.0011087912152864636
329,3.29,0.007261737932241564,0.018445200903291215,-0.04288520570635945,-0.00404631336233377,-0.002680580765660648,-0.002680580765660648
330,3.3,0.022092490362018262,-0.0192118591698456,0.009911056290275659,-0.0012648032644129873,-0.003686905402830356,-0.003686905402830356
331,3.31,0.012437425057541458,-0.04914960800329547,0.06466621921319854,-0.00034042923272450964,-0.002708734430028553,-0.002708734430028553
332,3.32,-0.001277625676592769,-0.009427153128761974,0.010362233437555116,-0.002708974849061505,-0.0021763569930417365,-0.0021763569930417365
333,3.33,-0.0022281788902988714,0.048720524332895816,-0.053662176004104216,-0.005042045804230761,-0.003725089723114737,-0.003725089723114737
334,3.34,0.012544699295628124,0.026383517956020352,-0.05338328142026802,-0.003593508209475255,-0.00168439766132735,-0.00168439766132735
335,3.35,0.009679162265184005,0.002001894075593827,0.027224614607446452,-0.00046659112840253186,-0.0028118602236405967,-0.0028118602236405967
336,3.36,0.005368148791126711,-0.05533706403481551,0.06604698258569952,-0.0021350519834795,-0.0014043182482169373,-0.0014043182482169373
337,3.37,-0.011148357903494239,0.0008710548507329633,0.007051089188487191,-0.0033983457443441108,-0.001650659582485453,-0.001650659582485453
338,3.38,-0.019880942486377666,0.034261691947491395,-0.05882920677785994,-0.0052439079050498345,-0.0037434265799394383,-0.0037434265799394383
339,3.39,-0.008796336174548012,0.029056009109444184,-0.05675557293080111,-0.00390706743083922,-0.003841916652495903,-0.003841916652495903
340,3.4,0.01966257441287761,-0.008392181552275668,0.04234950677517501,-0.0015503557300318733,-0.0017764284044850976,-0.0017764284044850976
341,3.41,0.014631525439159734,-0.04535442206930478,0.08523831566067035,-0.0003807573416848161,-0.0021205983950153503,-0.0021205983950153503
342,3.42,-0.017524788382416404,0.008692876561798537,0.038863970371615805,-0.004918855632305916,-0.002037954952283674,-0.002037954952283674
343,3.43,-0.019497504884257513,0.03813801511903847,-0.06690601145798512,-0.003344629863081437,-9.659993866609207e-06,-9.659993866609207e-06
344,3.44,-0.016769084487002095,0.038671523336805,-0.07559516628752083,-0.0017065188618599415,-0.0017936129989573305,-0.0017936129989573305
345,3.45,0.025410245115637956,-0.04014830211805797,0.027644742960511517,-0.002679188938102692,-0.0033644202477818505,-0.0033644202477818505
346,3.46,0.005997232629521567,-0.0381518945816638,0.07767139899433513,-0.0002639551102476467,-0.003052585908862745,-0.003052585908862745
347,3.47,-0.008617291716620287,-0.009457233697185496,0.04248522237056404,-0.0012701715497184327,0.00016931396945706794,0.00016931396945706794
348,3.48,-0.012337043884342893,0.04154380140509811,-0.06587027870991281,-0.0036124595734432744,-0.0032121394231334386,-0.0032121394231334386
349,3.49,-0.010579716022947301,0.0193253854653889,-0.06086225582501152,-0.002219036421293039,-0.0011610826826163425,-0.0011610826826163425
350,3.5,0.01316009638767422,-0.05139752605669766,0.019473909375389717,-0.003883389812552984,-0.0030718047035055073,-0.0030718047035055073
351,3.51,0.010464302955732403,-0.04480663540178063,0.09264489704981727,-0.002981690873421668,-0.002998543326281723,-0.002998543326281723
352,3.52,0.00780676452761926,-0.019124166062229133,0.04501026359316125,-0.005660908435320528,-0.0009310709340181649,-0.0009310709340181649
353,3.53,-0.018083170502404933,0.0485961743617186,-0.03948400463497433,-0.004028835328854764,-0.00029924400746472724,-0.00029924400746472724
354,3.54,0.0032186156100020404,-0.0019275590838891063,-0.05484704175313021,0.0003120470393939293,-0.0015238996902165198,-0.0015238996902165198
355,3.55,0.0009781820468798231,-0.015552048261777637,0.014292820525074728,-0.0031700642501784567,-0.003022699551894023,-0.003022699551894023
356,3.56,0.01508635572277615,-0.04348068626478481,0.08635590964116684,-0.003224821766000688,-0.0024362372512890247,-0.0024362372512890247
357,3.57,0.0069653439091344315,0.02005943476815393,0.03612807919028155,-0.006140838928680243,0.0004019138620416632,0.0004019138620416632
358,3.58,-0.014332497793794233,0.04299210822937472,-0.03731804691254812,-0.0013635860069054733,-0.0029336835950753075,-0.0029336835950753075
359,3.59,-0.01465524294929247,0.02158523056847517,-0.06321990883962691,-0.0005121690634427898,-0.0029995372871935285,-0.0029995372871935285
360,3.6,0.00610852498985506,-0.01286822230437041,0.013999911475398547,-0.0007760245116893751,-0.0036169993362050712,-0.0036169993362050712
361,3.61,0.013182333311566754,-0.03863488331635169,0.05901940196186816,-0.0019004030738850376,-0.001042709065403243,-0.001042709065403243
362,3.62,-0.021327304265077236,0.03358737484362306,0.01934462453070885,-0.00679594202239899,-0.0006254858429204572,-0.0006254858429204572
363,3.63,-0.009853773132361193,0.024410262261603418,-0.045965383747366105,-0.004246671040751025,-0.002136443194853046,-0.002136443194853046
364,3.64,-0.010920660972811738,0.0251698282385822,-0.05597378826638775,-0.003498760093333691,-0.0033548898175423908,-0.0033548898175423908
365,3.65,0.03134245608988859,-0.03150284048361729,0.009008538055700573,-0.00019080539188135812,-0.0018021394483793488,-0.0018021394483793488
366,3.66,-0.0012060449710603119,-0.03300907394975222,0.027997511358704107,-0.0020601993685784013,-0.0014405428103721107,-0.0014405428103721107
367,3.67,-0.01149111114600582,-0.001117485763902467,0.023451724501897822,-0.0026134045726725523,-0.0018489732146754136,-0.0018489732146754136
368,3.68,-0.01106051922656747,0.0412384367695957,-0.06982225973288367,-0.0038522011978932187,-0.0014792835482879544,-0.0014792835482879544
369,3.69,-0.0022177924231764155,0.037636089949934136,-0.04761224503023906,-0.0006919802890598247,-0.0009019660012396803,-0.0009019660012396803
370,3.7,0.015277686520049405,-0.03434335760514243,0.013135104593664584,-0.0015207039172946968,-0.002975637070972791,-0.002975637070972791
371,3.71,-0.005517673403929928,-0.039525635379314174,0.05714753634425145,-0.001874433523794788,-0.002499229430017753,-0.002499229430017753
372,3.72,-0.0017610848450646428,-0.010918279048630975,0.009609070318175964,-0.003770166421244028,-0.003439826505229686,-0.003439826505229686
373,3.73,-0.0025415631837573706,0.051867465544332615,-0.06321815276984234,-0.004695307921248976,-0.0032821664654943705,-0.0032821664654943705
374,3.74,0.022935503322723184,0.020368634260059304,-0.04647664718685727,-0.003852367698892849,-0.0036819015963310492,-0.0036819015963310492
375,3.75,0.02153277304263764,-0.01961607295381808,0.02923788176658338,6.755332753339985e-05,-0.0018258943074800462,-0.0018258943074800462
376,3.76,0.017223704331570437,-0.06431567723387818,0.0812856438763074,-0.0009655880448474652,-0.0026416007393191858,-0.0026416007393191858
377,3.77,-0.008749088245774925,-0.010486368173276504,0.010232100156430488,-0.0006772273389035871,6.293220749296587e-05,6.293220749296587e-05
378,3.78,-0.012878869411739376,0.04584316822020649,-0.07446384142321649,-0.0024547904425119,-0.0027001584557684285,-0.0027001584557684285
379,3.79,0.011874250348399505,0.022117730268047663,-0.05136373850836526,-0.00421118256325253,-0.0041152839086514,-0.0041152839086514
380,3.8,0.022392522607307,-0.012095281041664036,0.0397452209840155,-0.001376931701427324,-0.0035966923493890132,-0.0035966923493890132
381,3.81,0.019242562771285776,-0.03641523433794211,0.07091877557103515,-0.0024676769758574827,-2.0425755623583803e-05,-2.0425755623583803e-05
382,3.82,-0.004913570127520738,0.009928780562484918,0.024747062883330527,-0.003070835851608941,-0.0026193352449031173,-0.0026193352449031173
383,3.83,-0.01959656146385489,0.034011286320575096,-0.07032530446124823,-0.004219232369186186,-0.00022786174855756207,-0.00022786174855756207
384,3.84,-0.02210487229718638,0.029142362807510886,-0.06931367417057595,-0.0009547196860512693,-0.004068669646894537,-0.004068669646894537
385,3.85,0.004099307227422929,-0.030954092344729196,0.032332755188529114,-0.0018820042205269,-0.0024326154828693274,-0.0024326154828693274
386,3.86,0.006740120878080685,-0.031045584270429236,0.07432418786282667,-0.003135402207233248,-0.003400646552637523,-0.003400646552637523
387,3.87,-0.015208533642752773,0.022255046483523066,0.05220959618725281,-0.004003510246478874,-0.0006323536665293946,-0.0006323536665293946
388,3.88,-0.015521482727898956,0.027599898174166634,-0.06943856946958578,-0.003374765311476982,-0.0014170289178713127,-0.0014170289178713127
389,3.89,-0.0306039611476586,0.02978236196831474,-0.06359282684519897,-0.0015840202298076447,-0.004839090958251724,-0.004839090958251724
390,3.9,0.008972890227793948,-0.04443857045612904,0.013060701337483861,-0.0031872111057797787,-0.001844432163603937,-0.001844432163603937
391,3.91,-0.0018060623927327497,-0.031031737496479285,0.05590162696602699,-0.003530148369962635,-0.00397112560728537,-0.00397112560728537
392,3.92,-0.008739199498061869,0.008349821438974597,0.05062734393193588,-0.006788278326134175,-0.0010052241903663987,-0.0010052241903663987
393,3.93,-0.00733720894506551,0.04505380944650249,-0.06209594053349747,-0.003943064002710757,0.0009938881503947644,0.0009938881503947644
394,3.94,-0.00955899386278218,0.01658206977272322,-0.052988357884887934,-0.00024383164439587901,0.00015198491038619978,0.00015198491038619978
395,3.95,0.011884398571233065,-0.03669555634571134,-0.008911215095968011,-0.002572486244983861,-0.002631383934768554,-0.002631383934768554
396,3.96,0.0018873361911613306,-0.027940207025448974,0.06618910630244364,-0.002581875497246084,-0.002123756398505589,-0.002123756398505589
397,3.97,-0.0030322358818015596,0.0011181577293215596,0.03958139331766606,-0.004588346964123082,-0.002044527806195341,-0.002044527806195341
398,3.98,-0.010058451427761737,0.04029197258674046,-0.04705328323013392,-0.0035126328495665863,0.0009532442089257153,0.0009532442089257153
399,3.99,-0.0014537945647653465,0.009685919922347453,-0.04714253045028543,-0.0006227410534229192,-0.0006956779016387485,-0.0006956779016387485
400,4.0,0.006070341666944627,-0.024907872884627435,0.01233978966749593,-0.0019472884327228891,-0.002427366254377189,-0.002427366254377189
401,4.01,0.01722343476112187,-0.04474938187263364,0.06693569919573569,-0.003074589589769661,-0.001691700647703194,-0.001691700647703194
402,4.02,-0.0075701972058985646,0.008145929142546944,0.02951600094672434,-0.00432501787004016,-0.0003555123261717763,-0.0003555123261717763
403,4.03,-0.00359129989630258,0.02599189455292336,-0.03241010490052787,-0.004142618179476252,-0.0012158340664460846,-0.0012158340664460846
404,4.04,0.017036037031295654,0.023021629885273794,-0.059553557133109496,-0.0015371366100516706,-0.002430723802655841,-0.002430723802655841
405,4.05,0.026797571448530993,-0.018802586347177224,0.02743778911202896,0.0006713709657902359,-0.0009394443713695547,-0.0009394443713695547
406,4.06,0.0174128648531217,-0.05280271193499735,0.05133990716632518,-0.0012335617944887994,0.00031819201421938486,0.00031819201421938486
407,4.07,-0.00895964721138473,-0.015128690582302836,0.029014185299065905,-0.005011646040305351,-0.00046464969306104923,-0.00046464969306104923
408,4.08,0.005250489854669171,0.03998821469644093,-0.06108602420806667,-0.00496630804043331,0.000517732122854275,0.000517732122854275
409,4.09,0.0021208305490411456,0.05159134577354569,-0.04512574075886154,0.00018424406240403427,-0.0016408573799794888,-0.0016408573799794888
410,4.1,0.02019376852832785,-0.025395981564187882,0.03541286127630119,0.0006966068113696656,-0.002108672609465687,-0.002108672609465687
411,4.11,-0.002087210952309388,-0.043314292911665005,0.06009971736438465,-0.0005573742709431455,-0.0019719101732222615,-0.0019719101732222615
412,4.12,-0.016221878060975456,-0.003357227941608823,0.023290979837318728,-0.006759622493483079,-0.0016088888853909855,-0.0016088888853909855
413,4.13,-0.011522544021146417,0.03930197975969492,-0.08594328704859083,-0.006645373212498143,-0.00047214559795159816,-0.00047214559795159816
414,4.14,0.0015977227938425292,0.02352459021613709,-0.050134711045437874,-0.003825809463321537,0.0001809319101830387,0.0001809319101830387
415,4.15,0.016261236478506344,-0.02041723902547537,0.04545143446666865,-0.0014498556183488785,-0.004284324183347436,-0.004284324183347436
416,4.16,-0.007304201865705297,-0.03413964225690759,0.08436889404633903,8.493276673389601e-05,-0.0024115373764549692,-0.0024115373764549692
417,4.17,-0.009575559658389791,0.003322580224907397,0.013036519652902652,-0.0024817183723512184,-0.002247076387581523,-0.002247076387581523
418,4.18,-0.019376943871289402,0.05025854417576749,-0.08659697235711233,-0.004607297710870188,0.00024358040497439486,0.00024358040497439486
419,4.19,-0.006414765101250719,0.008300733262036864,-0.06652395324619742,-0.005577847813916223,-0.002829859335562177,-0.002829859335562177
420,4.2,0.013582301736555964,-0.015416781940579648,0.025675750087448344,-0.0028389875047589662,-0.0036386543446285296,-0.0036386543446285296
421,4.21,0.007718792007917794,-0.04224115247153319,0.07303294160998336,-0.003919988770063711,-0.002144315083333785,-0.002144315083333785
422,4.22,-0.007776136816414189,0.0005782466326525425,0.0266344136973508,-0.0015986191609078425,-0.005900195083247911,-0.005900195083247911
423,4.23,-0.02273261652005833,0.030021065136982675,-0.06849587691407315,-0.0011333208456299224,-0.0019245005265466906,-0.0019245005265466906
424,4.24,-0.006778846448891106,0.025460704713276595,-0.07500126590542981,-0.003221960610673714,-0.0001270953914654072,-0.0001270953914654072
425,4.25,0.01921948458531613,-0.018797610761576985,0.024415703017706174,-0.00219889668862187,-0.003498039704482194,-0.003498039704482194
426,4.26,0.018565422378533133,-0.050324271429228476,0.07651968906562892,-0.002418901354944744,-0.0016865051007976196,-0.0016865051007976196
427,4.27,-0.008049676166657195,-0.004340974585966658,0.04442615475438366,-0.00438417801451912,-0.0022722648673502888,-0.0022722648673502888
428,4.28,-0.017051449913098853,0.032463961248042746,-0.04969438412759728,-0.0014633772771748526,-7.002609793659411e-05,-7.002609793659411e-05
429,4.29,-0.013148124697183579,0.048501547360732346,-0.07257398497413187,-0.0008821249862013738,0.0003752768181137435,0.0003752768181137435
430,4.3,0.01495515945152279,-0.017834752801637,0.0133870706220523,-0.002500857578243745,-0.00137569016918085,-0.00137569016918085
431,4.31,0.011370687026273675,-0.042342406174318815,0.0658117331267893,-0.004234002020822647,-0.001424050434435696,-0.001424050434435696
432,4.32,-0.008823054623887267,0.013736770283086642,0.044582970018437224,-0.004160316626904468,-0.002885453602536004,-0.002885453602536004
433,4.33,0.004340808695348724,0.041871806031214376,-0.06222352095946386,-0.002433657944822368,-0.0002641416094990418,-0.0002641416094990418
434,4.34,-0.008785907824268354,0.0260978930753422,-0.05594556519501088,0.0004889033049923892,-0.003439193774158763,-0.003439193774158763
435,4.35,0.01707482243347632,-0.02703540198043775,0.009145646425210839,0.0002141876022735893,-0.002697403484782613,-0.002697403484782613
436,4.36,0.00982884625627905,-0.03372094180441687,0.071151806964779,-0.0027101173898208997,-0.00462564022272023,-0.00462564022272023
437,4.37,0.00016954335346869905,0.0006799467220507394,0.03654829171736296,-0.0070210427455194594,-0.0010561950598596557,-0.0010561950598596557
438,4.38,0.005307729627452239,0.04063781858387673,-0.06224713581168499,-0.0033176803992596873,-0.0011973497199953625,-0.0011973497199953625
439,4.39,-0.0026940475528563204,0.02230893888267696,-0.04904863068118028,-0.0014649580343867774,-0.003282971100346773,-0.003282971100346773
440,4.4,0.0046651815285873345,-0.022566111119217826,0.007873685282722476,0.0010215595356334233,-0.004294354670770465,-0.004294354670770465
441,4.41,-0.003727794013495904,-0.05167869575348679,0.05556669374686932,-0.0011872412766358055,-0.002528462833994045,-0.002528462833994045
442,4.42,-0.007126061360522484,0.0011093721851146918,0.021227843208351645,-0.005433060089801827,-0.003098353885718197,-0.003098353885718197
443,4.43,-0.01028307268452259,0.045865978459525815,-0.049514935268425715,-0.005460506345727182,-0.0057409129042377115,-0.0057409129042377115
444,4.44,0.0009198288368955695,0.010548999389470308,-0.04310770080356282,-0.0021466799263802987,-0.004830231434620295,-0.004830231434620295
445,4.45,0.0024160877623323187,-0.041421158992162366,0.015141330308351946,0.0005300675095921696,-0.002195169932193317,-0.002195169932193317
446,4.46,-0.0054764150003390475,-0.05485418603123301,0.060134070084013565,-0.0014069054180076712,-0.002782702465149824,-0.002782702465149824
447,4.47,-0.024494740258820983,0.012112158915954373,0.027085046089713877,-0.003928844621277664,-0.004848685934677921,-0.004848685934677921
448,4.48,-0.007697195069518676,0.04073621166587309,-0.029835670872860744,-0.005119022800465805,-0.0019519719266479184,-0.0019519719266479184
449,4.49,0.007098778097532491,0.022175567637379337,-0.040541893626105996,-0.004326420078777754,-0.0011921486652693414,-0.0011921486652693414
450,4.5,0.004466402342758656,-0.024288514501847765,0.028338593801022605,-0.0033460756399549068,-0.0008618019514906738,-0.0008618019514906738
451,4.51,0.010880907813534374,-0.040367875560902614,0.05284821301214385,-0.001964495036054985,-0.002329431110421735,-0.002329431110421735
452,4.52,-0.024311945572712344,0.006728365978767562,0.005092013372718796,-0.004315511116836933,0.00022807860268650923,0.00022807860268650923
453,4.53,-0.007315933771564998,0.027597849994935475,-0.07967225549660076,-0.003271479049500794,0.0005438836965450278,0.0005438836965450278
454,4.54,0.0028415380706237007,0.015530342513987988,-0.05351595550004874,-0.0028002846975278663,-0.003349112699996073,-0.003349112699996073
455,4.55,0.03630082813686045,-0.01895377875138853,0.02989125077242897,-0.003458098155600693,-0.004700195390956487,-0.004700195390956487
456,4.56,0.01568458430724808,-0.015912896954265267,0.06708436086493541,-0.002299883042048889,-0.0013884250612245293,-0.0013884250612245293
457,4.57,-0.010366473701495463,-0.004266780365012874,0.023172603339483882,-0.004853760940318032,-0.0021641075848812565,-0.0021641075848812565
458,4.58,-0.005114428101951335,0.02965259457063644,-0.08648592770437932,-0.003469934985715641,-0.0021478018169174525,-0.0021478018169174525
459,4.59,0.008808755742984155,0.013123180151053945,-0.0563254819975534,-0.004259640492557098,-3.992902702462664e-05,-3.992902702462664e-05
460,4.6,0.02092747918744142,-0.005544149497620287,0.02553413410037969,-0.003327904997519977,-0.0005635633105584186,-0.0005635633105584186
461,4.61,0.014520269802104831,-0.012927450562066341,0.09497892106522621,-0.0009571972094383226,-0.002586847292242832,-0.002586847292242832
462,4.62,-0.016499948587011426,0.021011172396253504,0.030569570221006023,-0.0028525614305014127,-0.0015513091269284411,-0.0015513091269284411
463,4.63,-0.010475427363385293,0.02806182901962779,-0.054396559302190096,-0.0035241545274695024,-0.0031676744857819005,-0.0031676744857819005
464,4.64,-0.010443131067142376,0.014161054585918903,-0.057700679318174686,-0.0031782562088316113,-0.0013716389117620462,-0.0013716389117620462
465,4.65,0.006793491562072652,-0.020533330703523853,0.032894957220101,-0.002419829445586765,-0.002537306774034154,-0.002537306774034154
466,4.66,0.016103134071861473,-0.05832660370515488,0.07925160439403454,-0.004067826939159786,-0.00014594628346268354,-0.00014594628346268354
467,4.67,-0.006388496162465399,0.000680984698149532,0.04264026291195706,-0.005974746803535597,-0.002073025157010849,-0.002073025157010849
468,4.68,-0.012135724349557217,0.03542450232383406,-0.06829367067122964,-0.003717393253983833,-0.00029338009754931166,-0.00029338009754931166
469,4.69,-0.0025325297790445987,0.019409330178587182,-0.0747557287898785,-0.0003312340965239838,-0.0013951183175127835,-0.0013951183175127835
470,4.7,-0.009251973535834302,-0.02161123462929375,0.007057159614929628,-0.0016528342336673163,-0.002523082973648726,-0.002523082973648726
471,4.71,-0.002486736375656523,-0.044820250968864356,0.07521675218124725,-0.002421971639993959,-0.003279620854772512,-0.003279620854772512
472,4.72,0.00511161750843304,0.0052689653898324255,0.03522041784982492,-0.0059475224189490545,-0.001907534111870969,-0.001907534111870969
473,4.73,-0.0009774041915246322,0.046007944857805634,-0.05097915524663052,-0.0030629702598481304,-0.0018543801750779078,-0.0018543801750779078
474,4.74,-0.013010032433898014,0.028725291507345194,-0.06891218689344795,-0.0023393117096884115,-0.00016589871590775933,-0.00016589871590775933
475,4.75,-0.001131326210904917,-0.03817026564688182,0.02179575364499327,0.00022507538383092227,-0.002509735251115109,-0.002509735251115109
476,4.76,0.008667320185744308,-0.05576807299695269,0.06473287763058008,-0.0013197242158312036,-0.00343570435453788,-0.00343570435453788
477,4.77,0.002396937091404599,0.007731141626573519,0.023762581688294034,-0.0054482303724789965,-0.002231896832919882,-0.002231896832919882
478,4.78,-0.007548214920277907,0.04886026406487236,-0.057931811738309615,-0.0032456180925825176,-0.00018861342597388834,-0.00018861342597388834
479,4.79,0.0011089127472355244,0.020089536647165143,-0.04968131264737638,-0.002101269538161264,-0.003468072429402555,-0.003468072429402555
480,4.8,0.008972053369396386,-0.03234541444209248,0.0047900242703379885,0.0006851019298769563,-0.00283734103538928,-0.00283734103538928
481,4.81,0.02293949174562798,-0.04892184597695651,0.05198289014788853,-0.0018385649321473168,-0.0012937988416569085,-0.0012937988416569085
482,4.82,-0.002213549819436403,-0.0035192565974482733,0.017496953816184074,-0.007775934787221979,-0.0011300860280939054,-0.0011300860280939054
483,4.83,-0.016266670909941706,0.03718881026747803,-0.0545263290295503,-0.005296478886614869,-0.0009659561816511236,-0.0009659561816511236
484,4.84,-0.004132769992185736,0.023556087472845055,-0.03680240236017143,-0.0014577687887631745,-0.0024902094003814807,-0.0024902094003814807
485,4.85,0.02906633917863284,-0.019511366464955805,0.03112705462695388,-0.0010450856397622415,-0.003344481488125293,-0.003344481488125293
486,4.86,0.002840479367728182,-0.01947354524366157,0.07571584243887192,-0.001386018223935766,-0.0031386562791239727,-0.0031386562791239727
487,4.87,-0.02064310842273951,0.02601185457458605,0.015224912711965594,-0.003986340519679218,-0.00016212369815209142,-0.00016212369815209142
488,4.88,-0.01849154478186219,0.03867141959748395,-0.06696103835518605,-0.0038873050179414896,-0.0016070178452028488,-0.0016070178452028488
489,4.89,0.002957561190079736,0.03365003988403309,-0.04657497469040793,-0.003963371077186489,-0.0008090625844100049,-0.0008090625844100049
490,4.9,0.014091022994238724,-0.007794541058403888,0.024891359001779703,-0.0037158237792620685,-0.001458740986174227,-0.001458740986174227
491,4.91,0.008313489315353194,-0.05115631707687647,0.07942624646139398,-0.0028945252526034315,-0.0036019434660336243,-0.0036019434660336243
492,4.92,-0.021217653372288228,0.0044257918107147775,0.009435707516476977,-0.0035369297506284594,-0.0005200728372406566,-0.0005200728372406566
493,4.93,-0.013229785294168916,0.033774736796535115,-0.08346694542071349,-0.004335493287761046,-0.002930156722005013,-0.002930156722005013
494,4.94,0.004622547234823651,0.0366102157375697,-0.07777229260030269,-0.002949627419848155,-0.0021545898663580783,-0.0021545898663580783
495,4.95,0.013419572715060283,-0.0264164729268027,0.037209232020599586,-0.0009838409800594038,-0.0021975227226131385,-0.0021975227226131385
496,4.96,0.019154106532120355,-0.054477339835334454,0.08673815412168867,-0.0016281009276357071,-0.0034783625619779343,-0.0034783625619779343
497,4.97,-0.01067763499759289,-0.01486498111723625,0.03016522198674884,8.062191402212135e-05,-0.0026111009701255327,-0.0026111009701255327
498,4.98,-0.02006492083534792,0.03343953301058068,-0.07504703086108974,-0.002906184835955644,-0.0017870939760071362,-0.0017870939760071362
499,4.99,-0.015498193413067643,0.019601576814636125,-0.07627172494786981,-0.0017373775028652028,-0.0043577842601493395,-0.0043577842601493395
500,5.0,0.013442969510230208,-0.03161247552943815,0.0318491778582187,-0.004167668336401268,-0.0008456325911765589,-0.0008456325911765589
501,5.01,0.010931546331231508,-0.05637860651238284,0.08998433283915377,-0.004740539585941508,-0.0020567832288367442,-0.0020567832288367442
502,5.02,0.0034762158573930406,-0.014086126503331024,0.042073276701107526,-0.0037176116643248772,0.00043207684119775863,0.00043207684119775863
503,5.03,-0.0065030040497698815,0.04584198095646311,-0.06563332604795424,-0.0022607726342430572,-0.0015736910783811884,-0.0015736910783811884
504,5.04,-0.005257132733882663,0.011760378849601133,-0.07144207755934531,-0.0019012900476305594,-0.0007230480280335056,-0.0007230480280335056
505,5.05,0.005470417201711849,-0.022164468862844358,0.025735036275535965,1.2483089041984488e-05,-0.0004995062010901333,-0.0004995062010901333
506,5.06,0.011718474053968031,-0.035740304421819635,0.08653922719140422,-0.004386482763186754,0.0011701070082091325,0.0011701070082091325
507,5.07,0.010658316169000544,0.013848387658891287,0.05109880978566238,-0.0067499826446326934,-0.003277392053540273,-0.003277392053540273
508,5.08,-0.01206213934706944,0.04784103211800872,-0.04618683713276097,-0.0027414406125590906,-0.0038710441917039523,-0.0038710441917039523
509,5.09,-0.005978948240449249,0.027992632106326635,-0.06520882174012205,-0.0009908772480395408,-0.0013360009304500275,-0.0013360009304500275
510,5.1,0.010386316209835256,-0.02410793144985492,0.008334181723968426,0.0006713442684119557,-0.001520973559163167,-0.001520973559163167
511,5.11,0.007901003856674724,-0.04548185772579111,0.06884972246687218,0.00044302584117879344,-0.0011149332598957985,-0.0011149332598957985
512,5.12,0.0008645148762335755,0.020579283208108475,0.022422650815395004,-0.003811927300941595,-0.0021464817278249123,-0.0021464817278249123
513,5.13,-0.013809882551205651,0.056219568627640125,-0.0648917465764674,-0.002160395635547245,-0.003924191611411647,-0.003924191611411647
514,5.14,-0.006647750317128819,0.027305386502143366,-0.07629049852588596,0.0008511058824741937,-0.003637635761248633,-0.003637635761248633
515,5.15,-0.0009853910043980136,-0.03754647206821903,0.015397545947912213,-0.00015862820283321102,-0.002491776742143987,-0.002491776742143987
516,5.16,0.008872895719637572,-0.041869651732349605,0.051224788924392126,-0.0005256266126087988,-0.00012478967643422085,-0.00012478967643422085
517,5.17,-0.010965871780300191,0.005974072438542432,0.015636422636628313,-0.005977590791195825,-0.0010834513115555943,-0.0010834513115555943
518,5.18,0.0008025957238194624,0.045951090796874795,-0.05776139081247878,-0.004695802043968267,-0.0045445101598736,-0.0045445101598736
519,5.19,-0.011611890704898587,0.027329002209756096,-0.03849624973565933,-0.003431464754368071,-0.003598701675001513,-0.003598701675001513
520,5.2,0.027227474541427737,-0.03255960834816375,0.03233433233478303,-0.0005620996554757036,-0.0014865811802026176,-0.0014865811802026176
521,5.21,-0.004724992687488903,-0.04206808539617822,0.061227849521263165,-0.0031177613126058224,-0.00222285638002372,-0.00222285638002372
522,5.22,-0.014822344340113975,-0.012091658081974856,0.027641660871913734,-0.003274489213324007,-0.001873139709302618,-0.001873139709302618
523,5.23,-0.0111772298321237,0.04107843721448384,-0.05992815412599386,-0.003699250607016517,-0.004727852735956975,-0.004727852735956975
524,5.24,0.0022848877122156825,0.03211946470547838,-0.03728488212881222,-0.0040060182326996634,-0.004894370135223548,-0.004894370135223548
525,5.25,0.022280238288964034,-0.015427463012866786,0.04063787404709184,0.0029936258935384626,-0.0022288880661296665,-0.0022288880661296665
526,5.26,0.009067167185060492,-0.039006419853670815,0.0878424482627401,-0.002892631435487469,-0.0031820898365064673,-0.0031820898365064673
527,5.27,-0.02241131860855442,-0.0029855149763761126,0.014688776615647207,-0.0048344803181144865,-0.0009819301268488684,-0.0009819301268488684
528,5.28,-0.012960704094920169,0.030762263101813934,-0.0718213433525876,-0.007165763232181828,-0.0008573948825755238,-0.0008573948825755238
529,5.29,0.007612268386692671,0.03258681267906153,-0.06760003377577492,-0.002559198013153329,-0.0013558403428133145,-0.0013558403428133145
530,5.3,0.012359336709760445,-0.02234792607701395,0.02161433685546893,-0.0005400986538165139,-0.0035289425452553853,-0.0035289425452553853
531,5.31,0.004629486608754424,-0.06287472045715531,0.08920080732437125,-0.0023425525373098324,-0.0017818927438969215,-0.0017818927438969215
532,5.32,-0.004390679526950017,0.008069788994543435,0.006967493059520376,-0.0009694637752803539,-0.0021464027034397712,-0.0021464027034397712
533,5.33,-0.0017660638239488007,0.0329677819781484,-0.09033097639113041,-0.0019951892511506555,-0.003007456359788657,-0.003007456359788657
534,5.34,-0.0032053550962452956,0.02522655919344049,-0.07261332132806354,-0.004676148677383595,-0.0021140751987169786,-0.0021140751987169786
535,5.35,0.006597793223651966,-0.03715770743516287,0.02746927892880359,-0.0006389635890378342,-0.004408312578823493,-0.004408312578823493
536,5.36,0.015247957360750316,-0.03172580909055985,0.08685604586471996,-0.0017222555574773221,-0.002441049107798079,-0.002441049107798079
537,5.37,0.012516349244468804,0.0021162833288164776,0.039317894359171546,-0.00268864609715144,-0.002830771620347762,-0.002830771620347762
538,5.38,-0.0061327824537714,0.030198141847448855,-0.07775991266556018,-0.0018746670548665137,-0.0013996277119986285,-0.0013996277119986285
539,5.39,-0.015368430777288021,0.023182662169479985,-0.07618027296577368,-0.002879084385087351,-0.004150416185255308,-0.004150416185255308
540,5.4,0.007984519886571957,-0.034906292430941246,0.01931624901987518,-0.0027432138683335266,-0.004548404826213066,-0.004548404826213066
541,5.41,0.018980933636489797,-0.025662026706906493,0.08212830118898991,-0.006716834290540007,-0.002947747548182632,-0.002947747548182632
542,5.42,0.011085169589600567,-0.004366110262056935,0.041677933134893846,-0.003205452511094286,-0.0024831744907128114,-0.0024831744907128114
543,5.43,-0.01281959839153924,0.03887465987198718,-0.05119260146567244,-0.0043773522904102385,-0.0012420547252458805,-0.0012420547252458805
544,5.44,-0.017279777103579294,0.008116348888890675,-0.06035659760877317,-0.001175702632426474,-0.0005243181808732601,-0.0005243181808732601
545,5.45,0.0039703552563228545,-0.01683237736020634,0.011505084412253317,-0.0029808432860028732,-0.002456353387887148,-0.002456353387887148
546,5.46,0.0035768758484921665,-0.030735123733508944,0.07530339538515139,-0.00329758701941467,-0.00203437806076695,-0.00203437806076695
547,5.47,0.00010081273116633368,-0.0022926688672290415,0.040646784429157035,-0.0017855075891540324,-0.002073824810209816,-0.002073824810209816
548,5.48,-0.020607708188340325,0.04869613457826679,-0.054354962487641746,-0.0013738090897165648,-0.00032179522379714525,-0.00032179522379714525
549,5.49,-0.00940139051461521,0.03197159395244709,-0.06422547947798318,0.0011464673960080822,0.00028687014174559724,0.00028687014174559724
550,5.5,-0.0007703734360016597,-0.009675168753262381,0.013905639673847527,-0.0002593251140660391,-0.0005968118625366975,-0.0005968118625366975
551,5.51,-0.009992469961355681,-0.040116092324958,0.07714616253378391,-0.002212718041362086,-0.0008941415570546347,-0.0008941415570546347
552,5.52,-0.007054000256121858,0.006089969863218524,0.013888092865752719,-0.0038473132053349892,-0.00026271995115553657,-0.00026271995115553657
553,5.53,-0.00983732524642718,0.035976885388516046,-0.0490098998822909,-0.003374968476938257,-0.001984202984257237,-0.001984202984257237
554,5.54,-0.0073211064727358565,0.0465953671325216,-0.05553583685489467,-0.0004926052448134773,-0.0045656855053278714,-0.0045656855053278714
555,5.55,0.009712594584473752,-0.021145984836407134,0.014415957261878193,-0.003030566756252433,-0.005234581093905476,-0.005234581093905476
556,5.56,0.007277674239899354,-0.057113581970596836,0.05415442159619732,-0.003784617686216429,-0.003316370770125672,-0.003316370770125672
557,5.57,-0.0020975420671091437,-0.005650220222443245,0.031295142411981045,-0.004784964979797346,-0.0038952115319868226,-0.0038952115319868226
558,5.58,0.006509255318686591,0.03133579977223153,-0.060971440442013365,-0.004979741085757929,-0.002113746498782786,-0.002113746498782786
559,5.59,0.009643912352237157,0.037331239252149415,-0.04079816702614436,-0.0021570360262367387,-0.002361630590521558,-0.002361630590521558
560,5.6,0.007664324637456211,-0.025792857748179177,0.04125712263387061,4.694989344129069e-05,-0.0005698302728730372,-0.0005698302728730372
561,5.61,0.01538342469251704,-0.04648887077903266,0.06713803261371373,-0.00035854219739464934,-0.0028002079434364803,-0.0028002079434364803
562,5.62,-0.0014476527745705928,-0.004298548386051657,0.01746498537287041,-0.005015429739161776,-0.0028936872985618404,-0.0028936872985618404
563,5.63,-0.0049955405294449615,0.040500013147776515,-0.07127172057436812,-0.007559036871061127,-0.00385210193230301,-0.00385210193230301
564,5.64,-0.00521887721038203,0.03323401804050724,-0.04121667778483538,-0.002765152860997833,-0.0022548302797383525,-0.0022548302797383525
565,5.65,0.019910593161231012,-0.023554769456693825,0.0455778640869496,-0.0022291389403640157,-0.001990491061064955,-0.001990491061064955
566,5.66,0.011181848965330773,-0.0385199664264037,0.07763924900336569,0.0005678673868419163,-0.0024676231397793426,-0.0024676231397793426
567,5.67,0.0019333674203985164,-0.02058401394140459,0.006495376509243308,-0.00397485348362968,-0.003268413314400848,-0.003268413314400848
568,5.68,-0.02314049653910009,0.05567515706802445,-0.09345731089624838,-0.003684735578407506,-0.0012117949750737851,-0.0012117949750737851
569,5.69,-0.0001186241741696029,0.01152905997174216,-0.07138562954705585,-0.0047146424390981006,-0.00265038461598083,-0.00265038461598083
570,5.7,-0.004525059022893985,-0.0025498843925745064,0.035770708519448025,-0.0009806889441447042,0.0008691785063722012,0.0008691785063722012
571,5.71,0.004500775181155959,-0.04502897615567807,0.07720514227762927,-0.0017729630296943993,-0.0033351734746634555,-0.0033351734746634555
572,5.72,-0.008372630280354109,0.011221742874136622,0.02001072464598997,-0.003553432993934378,-0.0003759092137689845,-0.0003759092137689845
573,5.73,-0.0193142481975577,0.038339008504036425,-0.07632813193038582,-0.0037585248121371523,-0.00120954801689977,-0.00120954801689977
574,5.74,0.0027640849561488207,0.0024245761045627,-0.0724067882769707,-0.002143387139175568,-0.0041739523783976586,-0.0041739523783976586
575,5.75,0.014826752866196783,-0.02946118301484482,0.018967072288251362,-0.002352318763662733,-0.004456418626455741,-0.004456418626455741
576,5.76,0.020362862911706615,-0.04585339060049669,0.08007368077591595,-0.0033301707575487238,-0.004361420017028605,-0.004361420017028605
577,5.77,-0.00014682932309940076,-0.001071141877843752,0.030646226495287702,-0.005831792304983902,-2.3747187603132862e-05,-2.3747187603132862e-05
578,5.78,-0.0180924957401646,0.01182590573135935,-0.061183848424839454,-0.0005135446390788006,-0.001819270550521148,-0.001819270550521148
579,5.79,-0.01878813545562079,0.010455968656344069,-0.07034516755636226,-0.0023934675151945604,-0.001998384442478939,-0.001998384442478939
580,5.8,0.012054063056647683,-0.03594353214690224,0.02670728184345087,-0.004347077159682885,-0.0014132467413475874,-0.0014132467413475874
581,5.81,0.011546557285046026,-0.0222348005617658,0.0729416941789219,-0.004560792583052357,-0.003795053061858325,-0.003795053061858325
582,5.82,-0.00022358916630001256,-0.012995227882306698,0.054427419865412274,-0.004848798942953849,-0.002786964576420334,-0.002786964576420334
583,5.83,-0.014404874434875368,0.040696421732033375,-0.04419331551963471,-0.004897597348298925,-0.003269329213661761,-0.003269329213661761
584,5.84,-0.004042933711069666,0.0306446200146237,-0.062434767113912985,-0.002532756643159645,-0.003122428614794305,-0.003122428614794305
585,5.85,0.014730184540946501,-0.025131794890131027,0.006549901593045582,-0.0020236878714128886,-0.003480731012143977,-0.003480731012143977
586,5.86,0.0017944652684897,-0.027759118325339092,0.060280667542715195,-0.0024888591190490783,-0.0009719112490721394,-0.0009719112490721394
587,5.87,-0.00727288374183669,0.0004639471611950323,0.03764651387637912,-0.0035722823503539867,-0.0005354550591279085,-0.0005354550591279085
588,5.88,-0.013799988032029527,0.060614989560687275,-0.04595840749294512,-0.0056944851586242075,-0.004213432726707744,-0.004213432726707744
589,5.89,-0.001113000947495119,0.03360276423012479,-0.04199859680785168,-0.0017942775088228445,-0.0009147236884343582,-0.0009147236884343582
590,5.9,0.015019643341758607,-0.013025345744771169,0.009572899630636199,0.0002431957609124898,-0.0038829422968869633,-0.0038829422968869633
591,5.91,0.0049800867048368416,-0.037219443888071774,0.06241517806073878,-0.001907276445300571,-0.0004628668928576872,-0.0004628668928576872
592,5.92,0.007482745867487749,0.01696236862580658,0.0003561432385186013,-0.005153743426283865,-8.663800873330543e-05,-8.663800873330543e-05
593,5.93,-0.005763790371714629,0.06159382847460415,-0.04886899393881423,-0.006385710881490772,-0.003188197890977658,-0.003188197890977658
594,5.94,0.010650349868085784,0.027693328961892645,-0.04464621324704403,-0.005038515558501965,-0.0008539958270020608,-0.0008539958270020608
595,5.95,0.017154058096555194,-0.03539683188839775,0.02853062160118953,4.48665692487386e-05,-0.0017054421823037046,-0.0017054421823037046
596,5.96,0.004694550138413991,-0.05631442960137255,0.06363261001363026,-0.0027040930372903317,0.0016538679344295175,0.0016538679344295175
597,5.97,-0.014449248439922192,0.01343409002264868,0.013858084514223226,-0.004128790814404471,-0.00016322477466702498,-0.00016322477466702498
598,5.98,-0.012160125262009127,0.040631777534584156,-0.06332043776600499,-0.003993400072317959,-0.0006990840078536048,-0.0006990840078536048
599,5.99,-0.0017403732115924058,0.040071376259220505,-0.05129126995771102,-0.003714060288258458,-0.0009523090055925057,-0.0009523090055925057
600,6.0,0.007164194016231238,-0.026247516707320128,0.039709550720579384,0.0007193037782573671,-0.002617081366310585,-0.002617081366310585
601,6.01,0.017649854480868594,-0.051270054240322875,0.0713863082813157,-0.003364618691740348,-0.003444695052662752,-0.003444695052662752
602,6.02,-0.008894040233881854,-0.0024919744329766434,0.0134791895412774,-0.004949738644458252,-0.0038850973737153687,-0.0038850973737153687
603,6.03,-0.013858288558050541,0.01855442897684035,-0.07432686926441143,-0.00421065498599574,-0.004428765656945261,-0.004428765656945261
604,6.04,-0.030539425656617835,0.036466776062083386,-0.0567796662777966,-0.0013315818473192285,-0.002469946802951941,-0.002469946802951941
605,6.05,0.021231925248668453,-0.03715910465128734,0.046831517601955655,0.0017280529829338152,-0.0032562513392141498,-0.0032562513392141498
606,6.06,0.0136881127877733,-0.029368262868274403,0.0670986951811908,-0.0013762045530979984,0.002306302834905109,0.002306302834905109
607,6.07,-0.016079699895569812,-0.016067106606323482,0.024945890239523427,-0.002157213207146118,-0.0009817691425339028,-0.0009817691425339028
608,6.08,-0.013760569343158216,0.03805751165578569,-0.08391565252228354,-0.002986228442198718,-0.000545396639013384,-0.000545396639013384
609,6.09,-0.014260519990100244,0.01810982460749215,-0.06987611722045944,-0.0027670772841370548,-0.002381575537001232,-0.002381575537001232
610,6.1,0.018879740651878855,-0.02293248663878217,0.010533072881285264,-0.0020547831973758528,-0.0021443545823882095,-0.0021443545823882095
611,6.11,0.0029810054957628805,-0.03904550455541466,0.08201923508607203,-0.002767567406121221,-0.001975255169822989,-0.001975255169822989
612,6.12,-0.001300284115079816,-0.017574489750313706,0.04295228926975299,-0.00374255571726329,-0.003348525688833105,-0.003348525688833105
613,6.13,-0.015735168509344796,0.04108606100240339,-0.05518223687576175,-0.003760984604890957,-0.0006731015562547178,-0.0006731015562547178
614,6.14,-0.018497943072396366,0.008935556880116456,-0.07869477548352477,-0.0019049637213474696,4.622958908331951e-05,4.622958908331951e-05
615,6.15,0.003195371435489815,-0.017672057253519596,0.014685494550532845,0.0005794075392525197,-0.003361722823277301,-0.003361722823277301
616,6.16,0.018818059838854387,-0.05591541930145353,0.07743258258233703,-0.003446342727662833,5.34117893445955e-06,5.34117893445955e-06
617,6.17,-0.0031726484174327955,0.012310125598454392,0.04106326807556199,-0.00401257831519271,-0.0018170607891400414,-0.0018170607891400414
618,6.18,-0.0012327893703445777,0.03046194113165423,-0.046886767279282815,-0.004280051838596488,-0.00020539968025064375,-0.00020539968025064375
619,6.19,-0.005738575572140346,0.02575377404712885,-0.0769147905320278,-0.001869189457965804,-0.0011530766882765085,-0.0011530766882765085
620,6.2,0.016834736882925857,-0.031242243965186763,0.016070537732176485,-0.003342520052648765,-0.0025604637950460123,-0.0025604637950460123
621,6.21,0.02159772132343605,-0.04783950931021428,0.07145243462786245,-0.0037669677182711092,-0.0049821385018778705,-0.0049821385018778705
622,6.22,-0.008824411074739068,0.01335892013628387,0.032596121849962995,-0.006166137203660116,0.0007599171994491392,0.0007599171994491392
623,6.23,0.013000072694400526,0.03408131713262725,-0.04431872425898746,-0.002450178002702707,-0.0011132406032977587,-0.0011132406032977587
624,6.24,-0.0014617743700231795,0.04541330981416618,-0.04371226493254164,0.0009398122533765216,-0.000905977312561656,-0.000905977312561656
625,6.25,0.016753161089778923,-0.03966012802890039,0.027153400279962627,-0.0021853773012347898,-0.0018348673186915532,-0.0018348673186915532
626,6.26,0.0015536372291262844,-0.02008781592400188,0.06697287503035396,-0.003649546882956692,-0.0010630730574642537,-0.0010630730574642537
627,6.27,0.005593291514402505,0.012294512748729041,0.03167408230403744,-0.007087683841450591,0.00021540710915640956,0.00021540710915640956
628,6.28,-0.0030833376436153466,0.05613132524568572,-0.05056711283985071,-0.006325876208885421,-0.0017961187786684442,-0.0017961187786684442
629,6.29,0.003818622216838134,0.03635549590596224,-0.05219158295220182,-0.0016395629094920266,-0.004179495867886144,-0.004179495867886144
630,6.3,0.012780174181910933,-0.03888189014015414,0.02029303058110071,0.0011262607699741435,-0.003329472545262209,-0.003329472545262209
631,6.31,-0.011593177466060532,-0.027472629552193584,0.042964854671938564,-0.0018769883626152683,-0.0010145835124883837,-0.0010145835124883837
632,6.32,-0.009038770195052826,-0.011136637782629369,-0.00033200148897451556,-0.007350362829407284,0.0006892118967632789,0.0006892118967632789
633,6.33,-0.015134680544655332,0.06398857044050017,-0.07104323100502666,-0.0062050672429179565,-0.0020884940899695927,-0.0020884940899695927
634,6.34,-0.00615679096489702,0.011735381495145003,-0.053972365245110746,-0.003801233446347266,-0.0034724197759011467,-0.0034724197759011467
635,6.35,0.003555059101532105,-0.009204824654724227,0.02047391475856395,0.0012045539177488176,-0.002444107335943116,-0.002444107335943116
636,6.36,0.009033187853169793,-0.04510034598032742,0.06136756658390767,0.0021754188160652047,-0.0005217061815728039,-0.0005217061815728039
637,6.37,-0.0029976744151189475,0.0043929346022959625,-0.004399655044117389,-0.0030547198474185173,-0.002219815692983327,-0.002219815692983327
638,6.38,-0.026698232816635876,0.031826529675855426,-0.05850522462957913,-0.005987671845257579,-0.0013438900519262536,-0.0013438900519262536
639,6.39,-0.007097501707870093,0.017183533782248628,-0.04843816927559023,-0.003790514455408732,-0.003634563874739426,-0.003634563874739426
640,6.4,0.024824389460462046,-0.02143709973361353,0.05069335854957019,-0.0012527171564759485,-0.004265578294572449,-0.004265578294572449
641,6.41,0.01560548086323935,-0.038787421328591476,0.08931113726818349,-0.00045071177522723426,-0.0035724207712509873,-0.0035724207712509873
642,6.42,-0.008379608991745533,-0.0007664538987481786,0.028461291525738303,-0.0029235827855029124,-0.002617178663047157,-0.002617178663047157
643,6.43,-0.01656520915532832,0.015483485224287673,-0.06663820464088333,-0.00204056244181299,-0.000832503203840921,-0.000832503203840921
644,6.44,-0.006790444922816208,0.025748935820344838,-0.05858038204333353,-0.003131871634805344,-0.004205374653720896,-0.004205374653720896
645,6.45,0.01457382398420824,-0.02075789973835729,0.046225868330478544,-0.0025846187176954303,-0.002773594525415278,-0.002773594525415278
646,6.46,0.011238628852464856,-0.03716280464802707,0.08439355008304805,-0.002594095549318489,-0.0032461224905500122,-0.0032461224905500122
647,6.47,-0.01665263158633209,-0.021869941185630626,0.03117822022002051,-0.00507531911344721,-0.0001748561949302006,-0.0001748561949302006
648,6.48,-0.011316638231997331,0.02916855068985179,-0.08651602916242254,-0.0040810094160358395,-0.002974978335968825,-0.002974978335968825
649,6.49,-0.012952750790719763,0.04389266341870042,-0.08004694252607109,-0.0013408595070576491,-0.0036687330589440384,-0.0036687330589440384
650,6.5,0.009724407942821107,-0.028472371112723823,0.011863896460824266,-0.002510419846826999,-0.002773512583718484,-0.002773512583718484
651,6.51,-0.008813506416317557,-0.03242158786647385,0.08539538114335406,-0.00222299808072462,-0.006308823456452014,-0.006308823456452014
652,6.52,-0.00033130909480591497,-0.015127270922962604,0.03810174619696087,-0.00501442098482255,-0.00023551150655920763,-0.00023551150655920763
653,6.53,-0.010579959778254207,0.061160752797151385,-0.06141106804802703,-0.001838143468980905,-0.0025450710535778642,-0.0025450710535778642
654,6.54,-0.00238417203119979,0.021162507021310163,-0.06516471943446453,-0.0007591007024319178,-8.8628192973895e-05,-8.8628192973895e-05
655,6.55,0.01121363895195182,-0.03731945969294834,0.01991828876864541,-0.0047594271521350364,-0.0040178254678944,-0.0040178254678944
656,6.56,0.022171084307762944,-0.05243963133546593,0.07218031134080162,-0.005105287017306827,-0.004090817955976607,-0.004090817955976607
657,6.57,0.011458921329216819,0.009943435001595814,0.03550098431764594,-0.002416728788242564,-0.003814644878289504,-0.003814644878289504
658,6.58,-0.007299884822550468,0.06596727711609655,-0.046518480487616726,-0.004786712838349708,-0.002181247085438193,-0.002181247085438193
659,6.59,-0.011465376973001666,0.0003274372989767434,-0.07182859280358303,-0.0029648785127243896,-0.0004516221270603794,-0.0004516221270603794
660,6.6,-0.009085791042512253,-0.02605910028317975,0.007724543670176977,-0.0004942036892714723,-0.0011117908694717187,-0.0011117908694717187
661,6.61,0.012955741065026343,-0.05483722307921298,0.04626889085383079,-0.002863114359497678,-0.0016100747830489635,-0.0016100747830489635
662,6.62,-0.003298648296275847,0.018496276620562937,0.02183114806389723,-0.003751917448039352,-0.0009224089358171232,-0.0009224089358171232
663,6.63,-0.0073793317900342935,0.04325340707791175,-0.043344198803235,-0.004372883593609955,0.0004078012792205805,0.0004078012792205805
664,6.64,0.0065357243375466015,0.01636660652993179,-0.037912794351906726,-0.0010504731793839674,-0.00200398158418273,-0.00200398158418273
665,6.65,0.011836692736023023,-0.021173340303019324,0.025538449826379952,-0.001912736774712738,-0.003317471234255999,-0.003317471234255999
666,6.66,0.028815535008951842,-0.05809235153893751,0.050038639963067816,-0.0036933563861784335,-0.0008001457173951831,-0.0008001457173951831
667,6.67,-0.003960592503587554,0.01058912835382521,0.026746099606065683,-0.005813497835739504,-1.2450309641724534e-05,-1.2450309641724534e-05
668,6.68,-0.0025323265053766274,0.025074240531579212,-0.05559996642111768,-0.005877878670398583,-0.00037026772180430857,-0.00037026772180430857
669,6.69,-0.0025377973798885417,0.05216859511174425,-0.037341653946416926,-0.001289904491385295,-0.003193754240750232,-0.003193754240750232
670,6.7,0.025552569746367847,-0.02944941007492822,0.025277831196611054,0.00045937582593481917,-0.002963495438928022,-0.002963495438928022
671,6.71,0.0008190504993423808,-0.013466354558998542,0.05864055464878438,-0.002296570199794155,-0.004359690629346905,-0.004359690629346905
672,6.72,-0.016810749846083193,-0.0007276142063357277,0.00896034268738,-0.004729568366466623,-0.004094021502620609,-0.004094021502620609
673,6.73,-0.005095410380947317,0.05412243047483454,-0.06130229462765387,-0.005734426685303759,-0.0014046801031547458,-0.0014046801031547458
674,6.74,-0.011651872513628005,0.03381070261694865,-0.039011672659153104,-0.0038496426802823846,-0.003025604648029768,-0.003025604648029768
675,6.75,0.020895542586023566,-0.02393459261892253,0.03136007823425291,-0.0004982699906797097,-0.002874913703975627,-0.002874913703975627
676,6.76,0.002842495185547071,-0.04066999676437908,0.07319361535947169,-0.0015412166859960464,-0.0008556750931926942,-0.0008556750931926942
677,6.77,-0.016507880582702722,-0.001046892760071803,0.00686971579372915,-0.003078180811475975,-0.003863047926781546,-0.003863047926781546
678,6.78,-0.028110105855185898,0.04477800529776306,-0.06578453227377064,-0.0047524261137647855,-0.0007564304905637942,-0.0007564304905637942
679,6.79,-0.014037725141357057,0.014639170038795658,-0.05137070572495201,-0.004548143557384143,-0.00466398876971749,-0.00466398876971749
680,6.8,0.012695679474396232,-0.01436515828926958,0.027769708659297787,-0.001920883331282768,-0.0034728838506338858,-0.0034728838506338858
681,6.81,0.021176756770708273,-0.046178322089938086,0.08957683590716436,-0.0015472883882588972,-0.00094137508901897,-0.00094137508901897
682,6.82,-0.007145171039646179,-0.015562425203281206,0.02336783441347153,-0.001714534547382846,0.0005573077228149028,0.0005573077228149028
683,6.83,-0.018042790743467485,0.019057026235049568,-0.07926933250182541,-0.003862091674737711,0.0006443797888712634,0.0006443797888712634
684,6.84,-0.011818699420423833,0.007176883681202808,-0.07728960759612542,-0.003992232537030526,-0.0026014144643762274,-0.0026014144643762274
685,6.85,0.012402081842141184,-0.032534703316925206,0.04043376971638991,-0.0014569646898153856,-0.003341306997358268,-0.003341306997358268
686,6.86,0.01372154008701969,-0.06584060516394846,0.06890062530312378,-0.0014673651944597686,-0.0008725187564530305,-0.0008725187564530305
687,6.87,-0.005438561239122746,0.00962362100178187,0.0305982225365745,-0.0026654375931787584,0.00015092351507873245,0.00015092351507873245
688,6.88,-0.001997726210363214,0.034058954115515946,-0.06264283048372994,-0.0004552280072425176,-0.0017288877657081175,-0.0017288877657081175
689,6.89,-0.01450392023529376,0.04042472299831502,-0.061055078287907315,-0.0032406820609609662,-0.0001638903508233544,-0.0001638903508233544
690,6.9,0.017553235265283882,-0.04150057048129445,0.004604741134003994,-0.0034769852372741753,-0.002862233333704185,-0.002862233333704185
691,6.91,0.0037004513433003955,-0.02341128204347787,0.06572886963475223,-0.003376869593855604,-0.001426565105507418,-0.001426565105507418
692,6.92,0.0033823965604061045,0.013271121267475608,0.03786058426023391,-0.00207888612271066,-0.0029612769764491933,-0.0029612769764491933
693,6.93,-0.007925697205267835,0.05038297187381196,-0.0650187759743667,-0.0019238835227402668,-0.003173152833282489,-0.003173152833282489
694,6.94,-0.022649285020968274,0.03641427385551896,-0.049728868660401944,-0.00013319511338386264,-0.0042083891462264475,-0.0042083891462264475
695,6.95,0.007572762136776315,-0.03218592033826212,-0.001682203754825716,-0.000875084808871758,-0.0035042307261426344,-0.0035042307261426344
696,6.96,0.0063819138513580825,-0.0318548133743205,0.06144732621307636,-0.006510631714390169,-0.0029964268554017745,-0.0029964268554017745
697,6.97,0.023580000947686974,-0.01114997664007935,0.027332021601412543,-0.007491988140507889,-0.002372952141704953,-0.002372952141704953
698,6.98,-0.0040726147115881855,0.059102917989988256,-0.0531189803936171,-0.002689872331671495,-0.001275932821305618,-0.001275932821305618
699,6.99,-0.0059118004195566325,0.022613474094751694,-0.04410483962811548,-0.0015419085244611796,-0.0016154715814024818,-0.0016154715814024818
700,7.0,0.008235148742226622,-0.024615889158806727,0.02772639072134475,-0.00027607989495227856,-0.0019289967654549552,-0.0019289967654549552
701,7.01,0.021678546199511775,-0.03525151502093579,0.05848354368129897,-0.005024734566292146,-0.0008813307075569303,-0.0008813307075569303
702,7.02,-0.0011480656825254999,0.0025319937898396986,0.02185002894705483,-0.0057951476252251855,-0.001597940448948019,-0.001597940448948019
703,7.03,-0.007530661810508548,0.04365616990822051,-0.03612055354979107,-0.005150867514539964,-0.003588111704693642,-0.003588111704693642
704,7.04,-0.00038126939002179855,0.022847762415679915,-0.04562087345719128,-0.0007661307575376275,-0.002849206523051369,-0.002849206523051369
705,7.05,0.011483399070512301,-0.009420355032817417,0.036109447150261,-0.0008087548392738539,-0.003452886527112593,-0.003452886527112593
706,7.06,0.0027411797418237,-0.049484466391762516,0.06473031807376148,-0.00507199806990239,-0.002090733451642305,-0.002090733451642305
707,7.07,-0.016571362056271743,0.008822320584526165,0.020195950087343654,-0.0060714316859213505,-0.003710740049948072,-0.003710740049948072
708,7.08,0.000876644980088298,0.012601001582759487,-0.05496944259316173,-0.005183528311105056,-0.0010012589226799252,-0.0010012589226799252
709,7.09,-0.011830713144069437,0.04086741125480031,-0.04651997661874065,-0.003594064376173076,-0.0004035525526987288,-0.0004035525526987288
710,7.1,-6.97090206361055e-05,-0.03288768821146274,0.0330736837477758,-0.0028716599166462397,-0.0011166012488956242,-0.0011166012488956242
711,7.11,-0.010020683221831694,-0.04879920428582624,0.0732816009055628,-0.002890881659116559,-0.0022982471585981986,-0.0022982471585981986
712,7.12,-0.01739227190473329,-0.007643479877289331,0.013955941843444217,-0.00410717812289352,-0.0026652575646139093,-0.0026652575646139093
713,7.13,-0.013952520209384697,0.03006626328085625,-0.08315539094056913,-0.0024828594564171897,-0.0016283546284636481,-0.0016283546284636481
714,7.14,-0.013680939496473865,0.04089400078721659,-0.05446577081306961,-0.0009801155063762657,-0.003021039857579451,-0.003021039857579451
715,7.15,0.013995979009689147,-0.03469159275792667,0.03115819317858897,-0.002121185439130839,-0.006700688642470825,-0.006700688642470825
716,7.16,-0.0004507521676482412,-0.02624922767983875,0.06368525702041182,-0.0014726474095509213,-0.002530708618271421,-0.002530708618271421
717,7.17,-0.023313643101326165,0.002660545532634326,0.010811939813104306,-0.003936617368612025,-0.0002190644588527405,-0.0002190644588527405
718,7.18,-0.021677680337484767,0.043119495228129225,-0.07771064599989795,-0.004131500227850506,-0.0015216855519079265,-0.0015216855519079265
719,7.19,0.0034130653475723163,0.018729706419971803,-0.059901126895042484,-0.0016590020317356336,-0.0014433286519252866,-0.0014433286519252866
720,7.2,0.021239913405396126,-0.02209116716420613,0.02693160209032533,-0.0042123194914339135,-0.00010268503953143882,-0.00010268503953143882
721,7.21,0.032506546957808684,-0.04179659939742904,0.08145980870829178,-0.003193158684446339,-0.0019146797905436328,-0.0019146797905436328
722,7.22,0.007940392578779928,-0.0036907303910884807,0.027025852472809076,-0.002503435862456599,-0.0008953987273960934,-0.0008953987273960934
723,7.23,-0.007845385907245695,0.050900544601854496,-0.06682262923187113,-0.0030715601392947546,-0.000560715483532692,-0.000560715483532692
724,7.24,0.0067303447764958365,0.0012260838894168607,-0.07243678734402735,4.729084901019653e-05,-0.0008462889936110518,-0.0008462889936110518
725,7.25,0.021453796334919534,-0.02106941066034125,0.026265338392823856,-0.0014822576135609692,-0.002288952996936427,-0.002288952996936427
726,7.26,0.029381136516517456,-0.046177319752113324,0.0717100893089094,-0.005506907315659335,-0.002544272007855381,-0.002544272007855381
727,7.27,0.01459445048336437,0.0014400238425942664,0.02764253836918278,-0.008015970153881072,-0.0007577753024184577,-0.0007577753024184577
728,7.28,0.008188663421736348,0.027016170316124927,-0.055933949586691845,-0.003429313192172417,0.0013265945552509855,0.0013265945552509855
729,7.29,0.004820573270482218,0.01254748194503704,-0.07397428885920185,-0.00108015393001448,-0.001296466860021915,-0.001296466860021915
730,7.3,0.01287421581734483,-0.02169190505611668,0.0216697313620981,-0.0018777591771204879,1.440828259328085e-05,1.440828259328085e-05
731,7.31,0.0055857287218591,-0.04928761052846376,0.07269329293316609,-0.004701647190483624,-0.0015900709419536284,-0.0015900709419536284
732,7.32,-0.01137157083724645,0.009302264483366343,0.05151503784947262,-0.005693957628047634,-0.0009334903993157812,-0.0009334903993157812
733,7.33,-0.0063463719051387825,0.0387204602477836,-0.034554235788036625,-0.0038834586837027093,-0.0009514070291948703,-0.0009514070291948703
734,7.34,-0.019378828852660526,0.04265956816655665,-0.04182046840723499,0.0013887289167226107,-0.0025263560139942532,-0.0025263560139942532
735,7.35,0.016967656548469167,-0.05043478159848911,0.007164359011894439,0.0009687793966481768,-0.005508410179124376,-0.005508410179124376
736,7.36,-0.0004282599977943266,-0.041140190520779,0.04319131680820979,-0.004275786270515588,-0.002085102265486769,-0.002085102265486769
737,7.37,-0.0060033481808586635,-0.005750781194693251,0.01987790657294066,-0.0024844794362632503,-0.0013309697973747162,-0.0013309697973747162
738,7.38,-0.004035267661114439,0.04844736953940725,-0.05705808337521114,-0.003697115865879881,-0.000502858701457575,-0.000502858701457575
739,7.39,-0.025573662224511594,0.04506448805116004,-0.020459959071880984,-0.0017444753127871329,-0.002668268011636273,-0.002668268011636273
740,7.4,-0.011287909318697038,-0.010104300982426772,0.015538720159997244,-5.646198136191887e-05,-0.002615415422198169,-0.002615415422198169
741,7.41,-0.017905274702786845,-0.027640978824361413,0.05393221774115997,-0.00010235248341387256,-0.0012666928977215274,-0.0012666928977215274
742,7.42,-0.01585032429350598,-0.005774371995745445,-0.0023682835744989455,-0.005100881260124895,-0.0012179921448464306,-0.0012179921448464306
743,7.43,-0.0211192252316608,0.055055433059410054,-0.05845903134661553,-0.004329792716627158,-0.003864007388577829,-0.003864007388577829
744,7.44,0.006715667252596666,0.024692760396859158,-0.04913771145252532,-0.004467223239939864,-0.0033326587046382428,-0.0033326587046382428
745,7.45,0.0017912571951884844,-0.0023778187378648077,0.031329735888423096,-0.000793344072688613,-0.0020907396401312517,-0.0020907396401312517
746,7.46,-0.004803016813543983,-0.04672869493312977,0.052128378673495374,-0.002711367190459969,-0.0032534582673634386,-0.0032534582673634386
747,7.47,-0.02479452239785146,0.012521743042242808,0.0011482213626454567,-0.004498846430726488,-0.002618432551558993,-0.002618432551558993
748,7.48,-0.012581737387724536,0.059713782171287595,-0.0648916910503403,-0.006372447529752869,-0.0029021681264645863,-0.0029021681264645863
749,7.49,-0.005528787982851018,0.047115173591370865,-0.03314643907446098,-0.0033713117086866715,-0.002697135218197809,-0.002697135218197809
750,7.5,0.00986127857447789,-0.01167712986717337,0.06842136516258858,-0.0017395836648207727,-6.582113394969875e-05,-6.582113394969875e-05
751,7.51,0.016369526160923936,-0.049786840825387695,0.07210525905144433,-0.003102123586670997,-0.0036340445132432265,-0.0036340445132432265
752,7.52,-0.015236009459021416,0.004845904756836982,0.012964548545248505,-0.0037868923750952357,-0.002902942421134293,-0.002902942421134293
753,7.53,0.0008747155946579981,0.0025694492133821606,-0.09801412632455585,-0.003549175683944329,-0.0016507560748471276,-0.0016507560748471276
754,7.54,-0.008317565276423116,0.014920071915590357,-0.07969188366774123,-0.006032157741765971,-0.002621044918559832,-0.002621044918559832
755,7.55,0.02677305911268482,-0.061617891101756944,0.03276222552604501,-0.001028417937626173,-0.000783942957319332,-0.000783942957319332
756,7.56,0.024796069527648998,-0.048499328358325065,0.07823905811829301,0.0008028765779604148,-0.002084690488888495,-0.002084690488888495
757,7.57,0.012873451521663243,-0.007695628097681661,0.02468234987910377,-0.0006255687620472676,0.0013068870030346555,0.0013068870030346555
758,7.58,-0.002876058204248709,0.018682022225948162,-0.08792195136632687,-0.003954028022212983,-0.0001325948594381155,-0.0001325948594381155
759,7.59,-0.006278318392531327,0.012623049037014264,-0.06098811798491776,-0.002998439712341309,-0.0013781050588307926,-0.0013781050588307926
760,7.6,0.034446231491861726,-0.047959572808077,0.02036778978604674,-0.0003815605138588769,-0.0029222950571755136,-0.0029222950571755136
761,7.61,0.025761522201419043,-0.027712139638358356,0.10501135587763652,-0.004450867141941842,-0.0038899216692035313,-0.0038899216692035313
762,7.62,0.02488111558085806,-0.014518644510861028,0.0633169738191028,-0.0035858168143476227,0.00010177937397049063,0.00010177937397049063
763,7.63,-0.008878434138332815,0.04993441980088172,-0.030117235193011682,-0.0028407105162938,-0.0011371243940525248,-0.0011371243940525248
764,7.64,0.008548480655610688,0.01010966117601919,-0.050745054960751546,-0.002451602418958773,-0.004867431358153781,-0.004867431358153781
765,7.65,0.021194183818558955,-0.00858038279035623,0.013133346191504174,-0.002031229156359321,-0.0023694697268806233,-0.0023694697268806233
766,7.66,0.009271631200917728,-0.036923678324118234,0.08262035976058002,-0.004925118787588011,-0.002496787666628957,-0.002496787666628957
767,7.67,-0.005593050247033486,-0.004868940896036216,0.05970792911908142,-0.005739427597070626,-0.0033491411188423005,-0.0033491411188423005
768,7.68,-0.021348461485936672,0.048388026502632464,-0.04717754462900099,-0.0022641852298644453,-0.002278194641558429,-0.002278194641558429
769,7.69,-0.013770207923062319,0.026155435555183973,-0.07361346229080043,-0.0018890514013824003,-0.004051309324006658,-0.004051309324006658
770,7.7,0.0017762166846096057,0.001562069873515471,-0.008329676979776999,-0.00010435648973115548,-0.004702301391324283,-0.004702301391324283
771,7.71,-0.005646999318007342,-0.04815663949685859,0.030248386663792075,-0.004040434744772255,-0.0014669666803943536,-0.0014669666803943536
772,7.72,-0.028251412297192906,0.025561256993704866,0.03404315207833217,-0.004107646395499979,-0.0011874306011315971,-0.0011874306011315971
773,7.73,-0.01883305829439671,0.03152082409802097,-0.05718273721225833,-0.003914314810755104,-0.0006135300740582558,-0.0006135300740582558
774,7.74,-0.0099470642515606,0.04242216422360302,-0.07361840850076631,0.0005159016768067383,-0.0019358309976202559,-0.0019358309976202559
775,7.75,0.0021773903232735255,-0.027766972290753443,0.01041513440410832,-0.0008048760838212207,-0.0038414541329672572,-0.0038414541329672572
776,7.76,-0.008659444358729743,-0.03785327680061714,0.044907230740977584,-0.0032934578117361788,-0.004032095640717825,-0.004032095640717825
777,7.77,-0.022530092118238816,0.018510561716246217,0.014593396454979427,-0.00436470344251076,-0.001257216651574529,-0.001257216651574529
778,7.78,-0.016166237443157844,0.04475595127814418,-0.05838367425508338,-0.005365460473299916,-0.0029011981449916647,-0.0029011981449916647
779,7.79,-0.008066457680409716,0.05034827948069883,-0.05022502736951629,-0.002420261794901043,-0.002281259856481786,-0.002281259856481786
780,7.8,0.013360515849463609,-0.042124521034780794,0.017351676884317373,-0.0020945532537569307,-0.001032280352245328,-0.001032280352245328
781,7.81,0.0013533516398294178,-0.03385846196709769,0.05551342255757225,0.0003297814628358438,-0.0035221866122986533,-0.0035221866122986533
782,7.82,-0.001937376702411796,-0.0190901789138065,0.007525996871119246,-0.002305757147563049,-0.003746329477613461,-0.003746329477613461
783,7.83,-0.008544809744290473,0.05020858977079726,-0.06784875527868095,-0.004178345853995375,-0.00033242757518997784,-0.00033242757518997784
784,7.84,0.005154705805853783,0.016403842825425556,-0.03216239261958506,-0.005223008057843632,-0.0010506756649486242,-0.0010506756649486242
785,7.85,0.029524107988543706,-0.03807706761181397,0.03888886682898975,-0.0021043166874104764,-0.0005256235146980957,-0.0005256235146980957
786,7.86,0.018066709817185386,-0.0459014664469648,0.09153204735315093,-0.002286253310440886,-0.0033902908118775728,-0.0033902908118775728
787,7.87,0.004253005596265524,-0.01103340321378352,0.008580022472229075,-0.002875270406560993,-0.0012669335139613876,-0.0012669335139613876
788,7.88,-0.007379820712312843,0.05660494569802248,-0.06414262603913409,-0.0008300811314803044,-0.0015702488226156178,-0.0015702488226156178
789,7.89,0.003623897839737135,0.006929406196752093,-0.053961522071084136,-0.004714130670934238,-0.004012199150847157,-0.004012199150847157
790,7.9,0.017792505322126836,-0.011594676123267136,0.03315059096634399,-0.0034867803461471683,-0.003310995211183802,-0.003310995211183802
791,7.91,0.013551673377760701,-0.05600973124370574,0.08805932599715473,-0.0008394252371010622,-0.0027205516410261435,-0.0027205516410261435
792,7.92,0.003386943875124917,0.016772988851142166,0.034852358653469084,0.0005503366110296258,-0.003805602427127143,-0.003805602427127143
793,7.93,-0.007348409464426844,0.03314821228810995,-0.0748449456486322,-0.001872295504096304,-0.002758245757007813,-0.002758245757007813
794,7.94,-0.00808443960818295,0.021738311389930615,-0.08165258708037787,-0.0014028405162027544,-0.00209702269100095,-0.00209702269100095
795,7.95,0.016058698710729565,-0.017745898696932067,0.0410216348691109,-0.0018404137622872675,-0.0034582459312459853,-0.0034582459312459853
796,7.96,0.012732166004537391,-0.037800437204435294,0.08057956317325769,-0.0044349174582355,-0.002856482258193709,-0.002856482258193709
797,7.97,-0.014194132945236252,0.017467741868102876,0.06842543484797116,-0.0015379558390757465,-0.0016405601500495755,-0.0016405601500495755
798,7.98,-0.0014434933936206713,0.01092199840592114,-0.06782061777701351,-0.003996979626934986,-0.0011853414566754302,-0.0011853414566754302
799,7.99,-0.02154216435565918,0.028116784982964892,-0.07002745095667368,-0.0006242037822067983,-0.002426379415182151,-0.002426379415182151
800,8.0,0.0182973927247918,-0.05019603560513941,0.009217819009865728,-0.0011621280029733747,-0.0025582328955128164,-0.0025582328955128164
801,8.01,-0.010804578042442906,-0.03388654826752198,0.08048843128335434,-0.0025710650189010513,-0.00211457822352803,-0.00211457822352803
802,8.02,-0.013807055098693444,-0.0075091265052962715,0.04529681343103481,-0.00439655785474827,-0.0035445843982113826,-0.0035445843982113826
803,8.03,-0.0015705211957701532,0.03742015252078217,-0.05796916703454084,-0.00287122744896449,-0.0021680317775104093,-0.0021680317775104093
804,8.04,-0.012144911611669622,0.02323533062311828,-0.0623248909991924,-0.0005527429366970226,-0.003776828890307857,-0.003776828890307857
805,8.05,0.009323397657784638,-0.04163488941063812,-0.006598742771637342,-0.0014228498730316096,-0.000844156520160446,-0.000844156520160446
806,8.06,-0.004772240469089263,-0.02584554115084604,0.06908263896460402,-0.005545359712535113,-0.003711634840010808,-0.003711634840010808
807,8.07,0.0050524083963759394,-0.00022565348109232844,0.03106242996725713,-0.007043081842902962,-0.0013177460449490766,-0.0013177460449490766
808,8.08,-0.008219055696814703,0.058036002347807786,-0.042259064941320715,-0.002036547765359539,-0.000634322715154941,-0.000634322715154941
809,8.09,0.004843280294452084,0.01335111624567619,-0.06125934339848288,-0.002534432826195641,-0.002793340348768863,-0.002793340348768863
810,8.1,-0.008825690531868022,-0.009800716843110267,0.002735244376099519,-0.001273561615055007,-0.0005266974359725758,-0.0005266974359725758
811,8.11,-0.0033425129978253126,-0.044591578708482196,0.05058415687391553,-0.0031794427919906703,-0.0017350912936713574,-0.0017350912936713574
812,8.12,-0.0071463465142900355,0.02366570489107586,0.00824654694258521,-0.006813587367128829,-0.0009632298804657383,-0.0009632298804657383
813,8.13,0.004410940676939981,0.05052980252012482,-0.06174527617386439,-0.0057115158758253475,-0.0028924033338369264,-0.0028924033338369264
814,8.14,0.00340458875744965,0.013098668367685268,-0.0590384684152722,-0.0010907685151412645,-0.002380353978004911,-0.002380353978004911
815,8.15,-0.0071816667977278835,-0.015649048254364615,0.0206122391347365,-9.12759226186566e-05,-0.002553474775510504,-0.002553474775510504
816,8.16,0.01733761582094145,-0.048050362320320776,0.04110867576181366,-0.002502750645981881,-0.0010579380237436128,-0.0010579380237436128
817,8.17,-0.0040064365213071775,0.020547297128246912,0.018511214359929393,-0.004937171625077347,-0.0004121874680940249,-0.0004121874680940249
818,8.18,-0.004167002730364593,0.036378966513376694,-0.050706047281533585,-0.003485690439416833,-9.21645367868876e-05,-9.21645367868876e-05
819,8.19,-0.011268932934859609,0.03212931601932946,-0.0416600254873508,-0.004065533068978157,-0.0035878732599539604,-0.0035878732599539604
820,8.2,0.03896335519712656,-0.03706859074453721,0.0541874929836189,-0.00044856312692665275,-0.00272118262618053,-0.00272118262618053
821,8.21,0.02635199831203649,-0.031994837269508476,0.082866597685999,-0.001659786108103133,0.0005800249519134454,0.0005800249519134454
822,8.22,-0.014683390806657967,-0.0007700557310239622,0.02997085747999626,-0.003466221278312311,-0.0007771083671427071,-0.0007771083671427071
823,8.23,-0.010366694543224426,0.007276144711285154,-0.08114018431718314,-0.005159240319719021,-0.0006047804656018732,-0.0006047804656018732
824,8.24,-0.006583173021736192,0.029017650170491967,-0.03625731395781838,-0.004357058364518645,-0.001852529477979139,-0.001852529477979139
825,8.25,0.027420102391053434,-0.027187385229926964,0.025285849560844974,-0.002010855268571201,-0.0011852512446383855,-0.0011852512446383855
826,8.26,0.0023867817855863184,-0.01026679986493927,0.09003243564132915,-0.0016949904209980474,-0.0017734493442052481,-0.0017734493442052481
827,8.27,-0.013207589837105804,-0.026513759502106632,0.030814310459133763,-0.0022364664748560172,-0.0012685917915753375,-0.0012685917915753375
828,8.28,-0.027811888184125243,0.039838904150410796,-0.06873149483356347,-0.005030831213708611,-1.0107383688286087e-06,-1.0107383688286087e-06
829,8.29,-0.007089498116354098,0.01921410654731992,-0.06409127380762887,-0.0044021643178671615,-0.002230662992175446,-0.002230662992175446
830,8.3,0.01826974839815375,-0.01655122959833963,0.022669264522602525,-0.003257785253304441,-0.0044203184693759135,-0.0044203184693759135
831,8.31,0.011440898634094088,-0.04240556473502172,0.09634136674512439,-0.0021913465153497115,-0.0011697013253690145,-0.0011697013253690145
832,8.32,-0.0069778211749269535,-4.9600396868908735e-05,0.03209520201960714,-0.0026960141268032225,-0.002466029745050348,-0.002466029745050348
833,8.33,-0.013451962359616453,0.048011551293951626,-0.05688382102236612,-0.003764035036527613,-0.0014518749229021591,-0.0014518749229021591
834,8.34,-0.011444948724272281,-2.037120068809346e-05,-0.107144997377641,-0.0021574201581339974,-0.003826813274887777,-0.003826813274887777
835,8.35,-0.001772868389688831,-0.0199039491721464,0.010956273304204015,-0.004262730034055068,-0.004408535065728618,-0.004408535065728618
836,8.36,0.017131414704267857,-0.058818448011288736,0.059006431393718584,-0.004988780412698081,-0.004040022661997788,-0.004040022661997788
837,8.37,-0.004436701478624289,0.011848111823420762,0.04191044149971039,-0.005833630679982275,-0.001047881719291183,-0.001047881719291183
838,8.38,-0.006073514965016198,0.045253507845748386,-0.061324918383362785,-0.0026874190672135203,-0.001187436767061433,-0.001187436767061433
839,8.39,-0.013899493793925556,0.047792904440547714,-0.0817498102002957,-0.0019413593640474512,-0.0024375494133287174,-0.0024375494133287174
840,8.4,0.006249064050957269,-0.034821498115184236,0.011958997858383547,-0.0030231744426857427,-0.0015958372139829472,-0.0015958372139829472
841,8.41,-0.0024752420223285183,-0.04117045052118395,0.051642520115376185,-0.004458904023872767,-5.155554312114594e-05,-5.155554312114594e-05
842,8.42,-0.0004350943212471782,0.011779856501412216,0.03789039631105766,-0.005808863268250079,9.446389606074154e-05,9.446389606074154e-05
843,8.43,0.009354211255309514,0.03346856816820391,-0.06090992034349155,-0.004041984484416862,-0.00017284043613903836,-0.00017284043613903836
844,8.44,-0.00668563661531691,0.03435938346734914,-0.04612788555965905,-0.0006231675166327626,4.700600942321219e-06,4.700600942321219e-06
845,8.45,0.01901855817516914,-0.045840929297141335,0.013685810191201311,0.0015576229373112222,-0.0036960023586036454,-0.0036960023586036454
846,8.46,0.005931751089817744,-0.04004360518779782,0.05430185604533262,-0.002638863495080137,-0.0020248732984557496,-0.0020248732984557496
847,8.47,0.011029859194015706,-0.014891911610864457,0.03768723025163571,-0.007088460161251481,-0.0012973797453101905,-0.0012973797453101905
848,8.48,-0.009454298818694086,0.05587342631907238,-0.04755094805030472,-0.00600409431957368,-0.0030975818580461713,-0.0030975818580461713
849,8.49,0.005309599026830657,0.015436462430404743,-0.030511893652399848,-0.0023332522292557837,-0.0008481188315574152,-0.0008481188315574152
850,8.5,0.009492183572260608,-0.024695965474991702,0.027712820028683062,-0.0003498670842337704,-0.0017877714451477657,-0.0017877714451477657
851,8.51,-0.006529081998389152,-0.034313961620871414,0.07815032456572445,-0.0024853902669712625,-0.0026918824237539283,-0.0026918824237539283
852,8.52,-0.0034598178835133922,0.0028178005586368144,0.005105961788155772,-0.005376844661321613,-0.0010724160859635224,-0.0010724160859635224
853,8.53,-0.011198353147061552,0.05869828140130233,-0.05829767753252301,-0.004871823187308268,-0.001847948059728753,-0.001847948059728753
854,8.54,0.0032787034554159697,0.005965741706335001,-0.035710333065437964,-0.002264079237948673,-0.002159754133836638,-0.002159754133836638
855,8.55,0.018181333408090146,-0.022656228193518396,0.05112282281359699,-0.0017658682369238621,-0.0014176329857571494,-0.0014176329857571494
856,8.56,0.011556167535632041,-0.04534533684242266,0.06512763100261862,-0.0007782238508272451,-0.0014176564211156267,-0.0014176564211156267
857,8.57,-0.02060736782412722,0.017684014757497694,0.009131962003976556,-0.00445162559375388,0.0006007428831050543,0.0006007428831050543
858,8.58,-0.018596837529761587,0.03788888522287359,-0.06859378563449467,-0.004630935664090711,-0.0029390991626306053,-0.0029390991626306053
859,8.59,0.0003097931983208919,0.026095029599072263,-0.06526576066042525,-0.003956297086820747,-0.003169866307677914,-0.003169866307677914
860,8.6,0.0019341594921518561,-0.008170138490738346,0.042106885226828844,-0.002847717971624344,-0.00306716060605371,-0.00306716060605371
