,ts,ax,ay,az,wx,wy,wz
0,0.0,-0.035059,0.014297999999999998,0.018608,0.013916,-0.015854,0.001434
1,0.01,-0.005187999999999997,0.024577,0.036546,0.014984,-0.016922,0.001434
2,0.02,-0.037781,0.018027,0.011948,0.017105000000000002,-0.014786,0.001434
3,0.03,-0.019186,0.021131999999999998,-0.005668999999999997,0.017105000000000002,-0.015854,0.000366
4,0.04,-0.018737,0.008289999999999999,0.013721,0.017105000000000002,-0.01265,0.003571
5,0.05,-0.012260999999999998,0.012872,-0.001127000000000003,0.014984,-0.007324,-0.002823
6,0.06,-0.048757,0.023139,-0.007728000000000001,0.01178,-0.004135,0.001434
7,0.07,-0.039758999999999996,-0.021197999999999998,0.0064280000000000006,0.017105000000000002,0.00012199999999999993,0.000366
8,0.08,-0.03192,0.021483000000000002,0.028105,0.017105000000000002,0.005463000000000001,0.000366
9,0.09,-0.01854,-0.022868000000000003,0.004414,0.023499000000000003,0.0075840000000000005,-0.002823
10,0.1,-0.004186,-0.025845999999999997,-0.0007710000000000009,0.025635,0.010787999999999999,-0.001755
11,0.11,-0.026711000000000002,0.00621,-0.045223,0.024567,0.012909,-0.004959000000000001
12,0.12,0.0008990000000000001,-0.037370999999999995,-0.029708999999999996,0.022446,0.013977000000000002,-0.0070799999999999995
13,0.13,0.009991000000000002,-0.016941,-0.005068,0.021378,0.012909,-0.006012
14,0.14,-0.022762,-0.007880000000000005,0.000101,0.022446,0.010787999999999999,-0.0038909999999999995
15,0.15,-0.022377,-0.040570999999999996,0.00098,0.019241,0.011840999999999999,-0.0038909999999999995
16,0.16,-0.030827999999999998,-0.022017,-0.012511,0.024567,0.008652,-0.002823
17,0.17,-0.017679,-0.01481,-0.0022830000000000003,0.021378,0.0043950000000000005,-0.001755
18,0.18,-0.016663,-0.014129,-0.0069299999999999995,0.018172999999999998,0.003326,0.000366
19,0.19,-0.034543,0.003629,0.03737199999999999,0.012847999999999998,0.0043950000000000005,-0.002823
20,0.2,-0.006679000000000001,-0.008467,0.08853899999999999,0.013916,0.006516,0.0003659999999999996
21,0.21,0.008601000000000001,0.0022719999999999962,0.12266500000000001,0.017105000000000002,0.0075840000000000005,-0.002823
22,0.22,0.037774,0.025063,0.104156,0.020309,0.010787999999999999,-0.001755
23,0.23,-0.015055000000000002,-0.0027210000000000003,0.08792,0.022446,0.011840999999999999,-0.001755
24,0.24,0.013875,0.011980000000000005,0.030809000000000007,0.024567,0.015045,-0.001755
25,0.25,0.0013649999999999982,0.010353,0.033375999999999996,0.024567,0.006516,-0.0006870000000000001
26,0.26,-0.035697,-0.013602000000000001,-0.044575,0.022446,0.006516,-0.001755
27,0.27,-0.016535,-0.0004359999999999989,-0.03864,0.020309,0.00012199999999999973,-0.001755
28,0.28,-0.023026,-0.035593,-0.03748,0.018172999999999998,-0.001999,0.002502
29,0.29,-0.012685,-0.026116000000000004,-0.016911999999999996,0.021378,-0.0030670000000000003,0.000366
30,0.3,0.018854,-0.053692,-0.05291599999999999,0.022446,-0.004135,0.00036600000000000017
31,0.31,0.032080000000000004,-0.039481,-0.057741999999999995,0.026702999999999998,-0.005203,-0.000687
32,0.32,0.031656000000000004,-0.016500000000000004,-0.07186100000000001,0.023499000000000003,-0.0009310000000000001,0.00036600000000000017
33,0.33,0.023205,0.015486000000000002,-0.043213,0.022446,-0.000931,-0.002823
34,0.34,0.031324,0.048063999999999996,0.04062600000000001,0.019241,0.00012199999999999993,-0.0038909999999999995
35,0.35,-0.007238999999999998,0.06932,0.008212,0.022446,-0.0009310000000000001,-0.002823
36,0.36,0.016242,0.077002,0.014741999999999998,0.021378,-0.001999,-0.0038909999999999995
37,0.37,-0.020377,0.042921,0.0005400000000000024,0.020309,-0.001999,-0.004959000000000001
38,0.38,-0.042939,0.044967,-0.002122,0.021378,0.0022580000000000005,-0.004959000000000001
39,0.39,-0.06669,0.023288999999999997,0.0028980000000000013,0.022446,0.006516,-0.002823
40,0.4,-0.035702,0.005569,0.021483000000000002,0.021378,0.00972,-0.0038909999999999995
41,0.41,-0.038168,-0.026144999999999998,-0.022847,0.019241,0.016113,-0.004959000000000001
42,0.42,-0.020054,-0.042542,-0.018764,0.017105000000000002,0.02037,-0.006012
43,0.43,-0.071146,-0.05584,-0.047818,0.012847999999999998,0.025695999999999997,-0.0038909999999999995
44,0.44,-0.118431,-0.071552,-0.040133999999999996,0.010727,0.031020999999999996,-0.001755
45,0.45,-0.11086099999999999,-0.073422,2.599999999999825e-05,0.007523,0.027832,-0.001755
46,0.46,-0.07496699999999999,-0.058865,0.037476,0.0054020000000000006,0.029952999999999997,-0.000687
47,0.47,-0.043398,-0.007873999999999999,0.031851,0.007523,0.02356,0.001434
48,0.48,-0.008463000000000005,0.007989,0.042962,0.01178,0.019302,-0.0006870000000000001
49,0.49,-0.034822000000000006,0.05386900000000001,0.080682,0.01178,0.012909,-0.0006870000000000001
50,0.5,0.017985,0.041552,0.052015,0.016052,0.010787999999999999,-0.0006870000000000001
51,0.51,0.06526699999999999,0.062854,0.061748000000000004,0.019241,0.00119,0.002502
52,0.52,0.069256,-0.005211000000000004,0.054886000000000004,0.021378,-0.0030670000000000003,0.003571
53,0.53,0.086259,0.017168,-0.022171,0.024567,-0.007324,0.005707
54,0.54,0.083575,-0.016362,-0.0058390000000000004,0.023499000000000003,-0.007324,0.005707
55,0.55,0.055362,-0.026521,-0.062478,0.023499000000000003,-0.010529,0.007828
56,0.56,0.020442,0.011598,-0.055151,0.021378,-0.01265,0.0067599999999999995
57,0.57,0.039951,0.015416999999999998,-0.070472,0.022446,-0.014786,0.005707
58,0.58,0.043574,0.004756,-0.049865,0.024567,-0.016922,0.004639
59,0.59,0.027111000000000003,0.016307,-0.071996,0.026702999999999998,-0.019043,0.004639
60,0.6,-0.016070000000000008,-0.008399,-0.066365,0.025635,-0.019043,0.004639
61,0.61,-0.003498,0.002008,-0.082642,0.023499000000000003,-0.016922,0.005707
62,0.62,0.013141000000000002,-0.0010789999999999999,-0.015132,0.020309,-0.019043,0.005707
63,0.63,0.002747,-0.018308,0.014227999999999998,0.019241,-0.017975,0.0067599999999999995
64,0.64,0.0030859999999999998,-0.011771,0.0023490000000000004,0.018172999999999998,-0.019043,0.0067599999999999995
65,0.65,-0.0032229999999999997,-5.999999999999929e-05,0.0038299999999999996,0.016052,-0.017975,0.005707
66,0.66,-0.013229,-0.022664,0.028383,0.013916,-0.017975,0.003571
67,0.67,-0.03727,-0.010767000000000002,0.019254,0.01178,-0.015854,0.002502
68,0.68,-0.031327,-0.01174,0.024935,0.008591,-0.016922,0.002502
69,0.69,0.009825,-0.035287,0.054198,0.008591,-0.01265,0.002502
70,0.7,-0.04318,-0.030751999999999998,0.041262,0.007523,-0.010529,0.000366
71,0.71,-0.046577000000000014,-0.030161,0.06694299999999999,0.0064540000000000005,-0.015854,0.002502
72,0.72,-0.005353,-0.028442000000000002,0.027431,6.099999999999986e-05,-0.020111,-0.0006869999999999997
73,0.73,0.012921,-0.02494,0.057960000000000005,-0.004196,-0.021179,-0.0006870000000000001
74,0.74,0.027413,-0.021537999999999998,0.049624,-0.0052640000000000004,-0.0233,-0.001755
75,0.75,0.019190000000000002,-0.033611,0.057482000000000005,-0.00206,-0.022247,-0.0006870000000000001
76,0.76,0.037915,0.002380000000000002,0.016658000000000003,-0.003128,-0.027573,-0.001755
77,0.77,0.025448,-0.018298,-0.0075369999999999986,6.100000000000007e-05,-0.026505,0.00036600000000000017
78,0.78,0.009723,-0.008098000000000001,-0.018571,0.001129,-0.026505,0.001434
79,0.79,0.059070000000000004,-0.019857,-0.061645000000000005,6.1e-05,-0.024368,-0.0006870000000000001
80,0.8,0.03729,-0.037864999999999996,-0.031221,-0.0052640000000000004,-0.0233,0.001434
81,0.81,0.027579000000000003,-0.038426,-0.027986,-0.01059,-0.028641000000000003,0.002502
82,0.82,0.009076,-0.0021079999999999988,-0.03292,-0.014846999999999999,-0.024368,0.000366
83,0.83,-0.032050999999999996,0.002256000000000001,0.006164000000000003,-0.020172,-0.027573,-0.0006870000000000001
84,0.84,-0.008782,0.004651000000000002,0.010218999999999999,-0.016983,-0.028641000000000003,-0.0006870000000000001
85,0.85,-0.026701,0.016878,0.004789999999999999,-0.014846999999999999,-0.028641000000000003,0.0014340000000000006
86,0.86,-0.004915,0.010279,0.008029999999999999,-0.013779,-0.025436,0.001434
87,0.87,-0.001448,0.02621,-0.0006069999999999999,-0.012711,-0.024368,-0.001755
88,0.88,0.012066999999999998,-0.006515000000000001,0.008805,-0.011658,-0.024368,-0.000687
89,0.89,0.018822,0.005863,0.0015970000000000047,-0.01059,-0.0233,-0.000687
90,0.9,0.014297,-0.034964,-0.006559000000000001,-0.01059,-0.019043,-0.001755
91,0.91,0.014806999999999999,-0.0014319999999999975,-0.018931,-0.009521,-0.019043,-0.0038909999999999995
92,0.92,-0.015280000000000002,-0.004695,0.017108,-0.009521,-0.016922,-0.0017549999999999994
93,0.93,0.008799999999999999,-0.010973,0.005686,-0.009521,-0.019043,-0.0038909999999999995
94,0.94,0.001956000000000001,-0.0011630000000000026,-0.021865,-0.007384999999999999,-0.016922,-0.0038909999999999995
95,0.95,0.006992,0.010114,-0.011775,-0.009521,-0.020111,-0.0038909999999999995
96,0.96,-0.0005889999999999992,0.011333,-0.037981,-0.009521,-0.022247,-0.0038909999999999995
97,0.97,0.018912,-0.0022520000000000005,-0.012273000000000001,-0.008453,-0.0233,-0.001755
98,0.98,-0.021529,0.037136,0.030648,-0.007384999999999999,-0.021179,-0.0006870000000000001
99,0.99,-0.016166999999999997,0.067777,0.067876,-0.00206,-0.016922,-0.0006870000000000001
100,1.0,-0.030788,0.04596,0.007702,0.001129,-0.016922,0.00036600000000000017
101,1.01,-0.009304,0.050554,0.000802,0.0032649999999999997,-0.015854,-0.000687
102,1.02,0.007559999999999998,0.033975,-0.013601000000000002,0.0054020000000000006,-0.017975,-0.004959000000000001
103,1.03,0.024092,0.024484,-0.057446000000000004,0.0064540000000000005,-0.022247,-0.0038909999999999995
104,1.04,-0.007890000000000001,0.012221,-0.06302100000000001,0.0064540000000000005,-0.022247,-0.004959000000000001
105,1.05,-0.018573,-0.006215,-0.080411,0.0054020000000000006,-0.024368,-0.006012
106,1.06,-0.0033799999999999998,-0.047014999999999994,-0.10401099999999999,0.0032649999999999997,-0.0233,-0.004959000000000001
107,1.07,0.006484,-0.030913,-0.10161,0.0021969999999999997,-0.019043,-0.0070799999999999995
108,1.08,0.016471,-0.011033,-0.050332,6.100000000000007e-05,-0.019043,-0.009216
109,1.09,0.012034,0.017166999999999998,-0.05574400000000001,6.1e-05,-0.013718000000000001,-0.009216
110,1.1,-0.004462,0.021907000000000003,-0.025419999999999998,-0.00206,-0.008392,-0.011353
111,1.11,-0.009053,0.0013029999999999984,0.01566,-0.003128,-0.005203,-0.011353
112,1.12,-0.029779000000000003,0.012505,0.028548,-0.004196,-0.001999,-0.011353
113,1.13,-0.07248500000000001,0.048333,0.030702999999999998,-0.004196,-0.0009310000000000001,-0.011353
114,1.14,-0.050105000000000004,0.042716000000000004,0.064026,-0.004196,-0.001999,-0.010284
115,1.15,-0.053712,0.023767,0.113177,-0.000992,-0.001999,-0.008148
116,1.16,-0.041437,-0.013741,0.064323,0.004333,-0.0009310000000000001,-0.009216
117,1.17,0.0059570000000000005,-0.054913,0.039616000000000005,0.0064540000000000005,0.00012200000000000017,-0.010284
118,1.18,0.042718,-0.052658,-0.04571900000000001,0.0021969999999999997,-0.0009310000000000001,-0.0070799999999999995
119,1.19,0.015903,-0.051824,-0.034305,-0.0020599999999999998,-0.0009310000000000001,-0.0070799999999999995
120,1.2,0.030407,-0.022207,-0.072628,-0.004196,0.0011900000000000005,-0.006012
121,1.21,0.021644,0.019405000000000002,-0.039034,-0.0052640000000000004,0.00012199999999999993,-0.004959000000000001
122,1.22,0.028660000000000005,0.041513999999999995,-0.011746,-0.0063170000000000006,0.00119,-0.001755
123,1.23,0.016708,0.051479,-0.033727999999999994,-0.004196,0.002258,-0.0038909999999999995
124,1.24,0.004693,0.058214,0.009540999999999996,-0.004196,0.00119,0.00036600000000000017
125,1.25,-0.0017679999999999987,0.068487,0.013270000000000004,-0.004196,-0.000931,-0.002823
126,1.26,-0.014225,0.036094,-0.009855,-0.003128,-0.0009310000000000001,0.001434
127,1.27,-0.005781999999999999,0.039029,0.009049999999999996,-0.003128,-0.001999,0.001434
128,1.28,-0.019913999999999998,0.012923999999999998,-0.018747999999999997,-0.004196,-0.006256,-0.0006870000000000001
129,1.29,-0.008518000000000001,0.005156,0.005302000000000001,-0.0009920000000000005,-0.005203,0.000366
130,1.3,0.008828000000000003,-0.0042450000000000005,-0.0027310000000000012,-0.004196,-0.0030670000000000003,0.000366
131,1.31,0.0041140000000000005,-0.021971,-0.015659,6.099999999999986e-05,-0.004135,-0.001755
132,1.32,0.044157,-0.028630000000000003,-0.01545,0.001129,0.00012199999999999993,-0.0006870000000000001
133,1.33,0.053588,-0.031856999999999996,-0.021721,0.004333,-0.004135,0.001434
134,1.34,0.049629,-0.014402000000000002,-0.019583,0.008591,-0.001999,0.000366
135,1.35,0.10298199999999999,0.002418,-0.015887000000000002,0.004333,-0.00946,0.001434
136,1.36,0.088716,-0.029169,0.0014829999999999982,0.0021969999999999997,-0.014786,0.001434
137,1.37,0.08807899999999999,0.014479999999999996,-0.011603,-0.00206,-0.021179,0.003571
138,1.38,0.0735,0.017945,0.003355000000000002,-0.0052640000000000004,-0.030762,0.003571
139,1.39,0.10880699999999999,0.023548,0.031733,-0.011658,-0.030762,0.004639
140,1.4,0.069392,0.0037300000000000007,0.010708,-0.015915000000000002,-0.035019,0.007828
141,1.41,0.042328,0.087049,0.064688,-0.020172,-0.037155,0.007828
142,1.42,0.010973,0.036387,0.076302,-0.020172,-0.037155,0.005707
143,1.43,-0.01678,0.015136999999999998,0.10626500000000001,-0.019104,-0.036087,0.0067599999999999995
144,1.44,-0.062545,-0.029456000000000013,0.085586,-0.013779,-0.033966,0.008896
145,1.45,-0.053277,-0.0057380000000000035,0.103992,-0.008453,-0.030762,0.008896
146,1.46,-0.06681799999999999,-0.043941,0.043875,-0.0063170000000000006,-0.028641000000000003,0.005707
147,1.47,-0.067337,-0.049667,0.043789999999999996,-0.003128,-0.0233,0.008896
148,1.48,-0.090862,-0.053454999999999996,0.020609,0.001129,-0.021179,0.0067599999999999995
149,1.49,-0.047776,-0.055557,0.016288999999999998,0.001129,-0.016922,0.0067599999999999995
150,1.5,-0.039524000000000004,0.009337999999999992,0.024047,0.0032649999999999997,-0.013718000000000001,0.007828
151,1.51,-0.066129,0.032343000000000004,-0.006192999999999997,0.0064540000000000005,-0.008392,0.005707
152,1.52,-0.047108,0.045261,-0.031092,0.010727,-0.006256,0.005707
153,1.53,-0.063042,0.034329000000000005,-0.06535,0.010727,-0.005203,0.007828
154,1.54,-0.066621,0.07504,-0.060702,0.013916,-0.004135,0.0067599999999999995
155,1.55,-0.050164,0.055324,-0.102306,0.013916,-0.001999,0.0067599999999999995
156,1.56,-0.062295,0.042339999999999996,-0.09271499999999999,0.016052,0.00119,0.004639
157,1.57,-0.047496,0.044534,-0.034177,0.016052,0.003326,0.002502
158,1.58,-0.048785,-0.00367,-0.050105000000000004,0.01178,0.00012199999999999993,0.003571
159,1.59,-0.092177,-0.047397,-0.06075,0.007523,-0.004135,0.003571
160,1.6,-0.079815,-0.042023000000000005,-0.05212000000000001,0.0054020000000000006,-0.005203,0.002502
161,1.61,-0.089921,-0.062697,-0.033997,0.0021969999999999997,-0.0030670000000000003,0.003571
162,1.62,-0.109398,-0.035606,-0.023329,6.100000000000007e-05,-0.0009310000000000001,0.001434
163,1.63,-0.099563,-0.046327,-0.040026,6.099999999999986e-05,0.00119,0.001434
164,1.64,-0.064877,-0.030312000000000002,-0.056191999999999985,-0.00206,0.002258,-0.0006870000000000001
165,1.65,-0.015931999999999998,-0.02854,-0.021546,6.100000000000007e-05,0.00119,0.00036600000000000017
166,1.66,-0.006069999999999999,-0.005562000000000001,-0.035733,-0.0052640000000000004,0.006515999999999999,-0.001755
167,1.67,0.029752999999999998,-0.017516999999999998,0.010713,-0.008453,0.0043950000000000005,-0.0038909999999999995
168,1.68,0.044848,-0.015203,-0.016599000000000003,-0.012711,0.005463,-0.000687
169,1.69,0.013131999999999998,-0.017787,0.047109,-0.015915000000000002,0.002258,0.003571
170,1.7,0.027596,-0.030363,0.07341900000000001,-0.021240000000000002,-0.000931,0.002502
171,1.71,0.005327999999999999,0.003336,0.059979,-0.022308,-0.008392,0.003571
172,1.72,0.021840000000000002,-0.00012400000000000082,0.088947,-0.019104,-0.01265,0.002502
173,1.73,0.030351,0.008301000000000001,0.072923,-0.016983,-0.015854,0.004639
174,1.74,0.046868,0.0001880000000000007,0.073239,-0.012711,-0.019043,0.003571
175,1.75,0.0016229999999999994,-0.0236,0.024659999999999998,-0.008453,-0.020111,0.0067599999999999995
176,1.76,-0.005208000000000001,-0.047454,0.037196,-0.007384999999999999,-0.016922,0.0067599999999999995
177,1.77,-0.027277,-0.014650999999999999,0.013076,-0.007384999999999999,-0.008392,0.005707
178,1.78,-0.032293,-0.067506,0.014282,-0.008453,-0.0009310000000000004,0.0067599999999999995
179,1.79,-0.0049980000000000024,-0.024239,-0.024181,-0.01059,0.005463000000000001,0.008896
180,1.8,-0.047682999999999996,-0.013206,-0.041899,-0.015915000000000002,0.008652,0.007828
181,1.81,-0.056157000000000006,-0.020751,-0.050395,-0.022308,0.017166,0.004639
182,1.82,-0.020676000000000003,0.029365,0.018171999999999997,-0.024429,0.02037,0.005707
183,1.83,-0.047776,0.041477,0.067375,-0.023361,0.027832,0.004639
184,1.84,-0.017956,0.06835,0.093034,-0.022308,0.028885,0.002502
185,1.85,0.027688,0.047554,0.060014,-0.019104,0.028885,0.002502
186,1.86,0.05418099999999999,0.033386,0.037984,-0.015915000000000002,0.022507,0.003571
187,1.87,0.075112,0.0015830000000000045,0.008201,-0.014846999999999999,0.02037,0.002502
188,1.88,0.063098,-0.003119,-0.004432,-0.013779,0.016113,0.002502
189,1.89,0.063672,0.005857,-0.031657,-0.011658,0.016113,0.002502
190,1.9,0.076683,-0.001059000000000001,-0.044808,-0.011658,0.016113,0.002502
191,1.91,0.06575800000000001,0.015602000000000001,-0.062774,-0.008453,0.02037,-0.002823
192,1.92,0.024491,-0.010740999999999999,-0.026061,-0.004196,0.019302,-0.004959000000000001
193,1.93,0.006457000000000001,0.013283000000000001,-0.040768,-0.0052640000000000004,0.022507,-0.006012
194,1.94,-0.024402,0.036016,-0.022149000000000002,-0.003128,0.02356,-0.008148
195,1.95,-0.050316,0.06829299999999999,0.01999,-0.00206,0.02356,-0.009216
196,1.96,-0.019295,0.046666,0.022533000000000004,-0.00206,0.02037,-0.009216
197,1.97,-0.03670799999999999,-0.011484000000000001,0.021086,-0.00206,0.015045,-0.004959000000000001
198,1.98,-0.030983,-0.01253,0.035758,0.001129,0.013977000000000002,-0.002823
199,1.99,0.009598000000000002,0.003047,0.021141999999999998,0.0032649999999999997,0.00972,-0.0006870000000000001
200,2.0,0.029198,-0.016636999999999996,0.065085,0.004333,0.00972,-0.0006870000000000001
201,2.01,0.027545,0.011444000000000005,0.032698000000000005,0.004333,0.0075840000000000005,0.00036600000000000017
202,2.02,0.046883999999999995,-0.012862,0.018532,0.0032649999999999997,0.005463,-0.001755
203,2.03,0.028441,-0.041023000000000004,-0.027469,0.0032649999999999997,0.005463,0.000366
204,2.04,0.033176,-0.009059000000000001,-0.01225,-0.000992,0.002258,0.001434
205,2.05,0.015456000000000001,-0.022948,0.014000000000000002,-0.004196,0.00012199999999999993,0.000366
206,2.06,0.019421,-0.027971,0.003665999999999999,-0.0052640000000000004,0.00012199999999999993,0.000366
207,2.07,0.010553,-0.009492,0.020092,-0.007384999999999999,0.0011900000000000005,0.003571
208,2.08,-0.003679,-0.022906,0.040222,-0.0063170000000000006,-0.0009310000000000001,0.005707
209,2.09,0.02955,0.008211,0.084359,-0.0052640000000000004,-0.006256,0.004639
210,2.1,0.004762000000000002,0.01615,0.055685000000000005,0.001129,-0.008392,0.004639
211,2.11,0.003602,0.023530000000000002,0.016301,0.0054020000000000006,-0.008392,0.004639
212,2.12,-0.03459599999999999,-0.018334,-0.020002000000000002,0.0064540000000000005,-0.007324,0.005707
213,2.13,-0.046636000000000004,-0.004518,-0.025041,0.0054020000000000006,-0.006256,0.005707
214,2.14,-0.026409,-0.024458,-0.028251,0.0021969999999999997,-0.001999,0.003571
215,2.15,-0.001994,-0.009727,-0.058516,0.001129,-0.001999,0.001434
216,2.16,0.0007120000000000008,-0.006496999999999999,-0.053959,-0.000992,0.00119,0.000366
217,2.17,0.049739,0.002473,-0.023585,-0.000992,0.00119,-0.0017550000000000005
218,2.18,0.043276,-0.015725,-0.035843,-0.003128,0.0043950000000000005,-0.002823
219,2.19,0.029983999999999997,-0.017262,-0.009052,-0.003128,0.003326,-0.002823
220,2.2,0.027792,-0.00035999999999999916,-0.020007,-0.004196,0.003326,-0.0038909999999999995
221,2.21,0.004106,0.008753999999999998,0.017334000000000002,-0.004196,0.00012199999999999993,-0.0038909999999999995
222,2.22,0.02489,0.019629,0.019781,-0.000992,-0.006255999999999999,-0.002823
223,2.23,0.026708999999999997,0.039663,0.025796,-0.00206,-0.006256,-0.0038909999999999995
224,2.24,0.041879,0.039001,0.041588,0.003265,-0.008392,-0.0038909999999999995
225,2.25,0.018877,0.079843,0.044963,0.0064540000000000005,-0.011597,-0.002823
226,2.26,0.015128,0.019185,0.034285,0.010727,-0.011597,-0.001755
227,2.27,0.045979,-0.010389000000000002,0.037587999999999996,0.010727,-0.013718000000000001,-0.002823
228,2.28,0.0009400000000000033,0.0026820000000000004,0.030238,0.01178,-0.014786,-0.0038909999999999995
229,2.29,0.011103,-0.0009820000000000002,0.020819,0.01178,-0.020111,-0.004959000000000001
230,2.3,0.026304,-0.043644999999999996,-0.012135999999999996,0.012847999999999998,-0.020111,-0.002823
231,2.31,0.039106,-0.040138,-0.009438000000000002,0.012847999999999998,-0.021179,-0.0038909999999999995
232,2.32,0.021541,-0.027627,-0.03322399999999999,0.010727,-0.020111,-0.006012
233,2.33,0.022384,-0.023956,-0.051239,0.009659000000000001,-0.016922,-0.004959000000000001
234,2.34,-0.017984,0.013,-0.044802999999999996,0.009659000000000001,-0.011597,-0.001755
235,2.35,-0.020555,-0.002998999999999998,-0.037489,0.007523,-0.008392,-0.002823
236,2.36,-0.016454,0.007304999999999998,-0.038696,0.008591,-0.007324,-0.001755
237,2.37,-0.063083,0.033905000000000005,-0.017240000000000002,0.007523,-0.010529,-0.004959000000000001
238,2.38,-0.035988,0.023774,-0.004028,0.007523,-0.00946,-0.001755
239,2.39,-0.039866000000000006,0.006251,0.0055910000000000005,0.007523,-0.011597,-0.002823
240,2.4,-0.017927000000000002,0.026101,-0.027629,0.0064540000000000005,-0.01265,-0.000687
241,2.41,0.028007,-0.007532999999999998,0.02213,0.004333,-0.013718000000000001,-0.002823
242,2.42,0.014480000000000002,-0.00099,0.030780000000000002,0.0064540000000000005,-0.01265,0.001434
243,2.43,0.043701,-0.000909,-0.012873999999999998,0.0064540000000000005,-0.01265,0.000366
244,2.44,0.061687,-0.018036,-0.027612000000000005,0.007523,-0.014786,0.001434
245,2.45,0.022531,-0.009391999999999998,-0.042233,0.008591,-0.011597,0.001434
246,2.46,0.051674,-0.021729,-0.029311,0.0064540000000000005,-0.014786,-0.0006870000000000001
247,2.47,0.052837999999999996,0.013511000000000002,-0.03977,0.008591,-0.01265,0.000366
248,2.48,0.041888,0.004374,-0.018203,0.009659000000000001,-0.014786,-0.000687
249,2.49,9.099999999999908e-05,-0.020516,-0.012705,0.010727,-0.015854,-0.001755
250,2.5,-0.021936,-0.005591,-0.008447999999999999,0.010727,-0.015854,-0.000687
251,2.51,-0.026736000000000003,0.003931,-0.029361,0.01178,-0.019043,-0.0038909999999999995
252,2.52,-0.028227999999999996,-0.007984,0.025221,0.0064540000000000005,-0.015854,0.000366
253,2.53,-0.047911,0.011585999999999999,0.021343,0.004333,-0.016922,-0.0006870000000000001
254,2.54,-0.013237,0.0013899999999999989,0.020222999999999998,0.0021969999999999997,-0.016922,0.002502
255,2.55,-0.015632,0.009633,0.013944999999999999,0.001129,-0.016922,0.000366
256,2.56,-0.009497000000000002,-0.018807,0.006045,-0.000992,-0.016922,-0.0017549999999999994
257,2.57,0.015448999999999997,0.031166000000000003,0.043072000000000006,6.100000000000007e-05,-0.017975,-0.001755
258,2.58,-0.0012729999999999998,-0.032076000000000014,0.05131,0.0021969999999999997,-0.020111,0.000366
259,2.59,-0.007378,0.005755,0.039365,0.0032649999999999997,-0.020111,-0.0006870000000000001
260,2.6,0.033496,-0.01685,0.027478,0.0064540000000000005,-0.016922,-0.000687
261,2.61,-0.008952000000000002,-0.004204000000000001,0.016078000000000002,0.007523,-0.015854,-0.001755
262,2.62,-0.008555,0.013059000000000001,0.029697,0.007523,-0.016922,0.001434
263,2.63,-0.025392000000000005,0.007563999999999999,-0.046423,0.0054020000000000006,-0.017975,0.000366
264,2.64,-0.013213999999999998,0.011047,-0.044618,0.004333,-0.017975,-0.001755
265,2.65,-0.029649000000000002,-0.001578,-0.016791,0.0021969999999999997,-0.020111,0.000366
266,2.66,-0.02112,-0.0011560000000000008,-0.022893,0.0021969999999999997,-0.016922,-0.0006870000000000001
267,2.67,0.0005509999999999994,-0.008050999999999999,-0.024582,0.0021969999999999997,-0.019043,0.0003660000000000005
268,2.68,0.008343000000000001,-0.011526999999999999,-0.046452,0.001129,-0.015854,-0.0038909999999999995
269,2.69,0.003908999999999999,-0.007758,-0.034897000000000004,-0.000992,-0.013718000000000001,-0.0006870000000000001
270,2.7,-0.0030609999999999995,0.005451999999999999,-0.0072650000000000015,-0.003128,-0.014786,-0.002823
271,2.71,-0.034177,0.030851,0.078999,-0.00206,-0.007324,-0.001755
272,2.72,-0.027541000000000003,0.042592000000000005,0.120876,0.0021969999999999997,-0.006256,-0.001755
273,2.73,-0.02215,0.030591000000000004,0.125558,0.007523,-0.005203,-0.001755
274,2.74,0.027944999999999998,0.023932,0.098379,0.019241,-0.001999,-0.001755
275,2.75,-0.044567,0.016626,0.008522000000000002,0.025635,-0.004135,-0.001755
276,2.76,-0.032133,0.003471000000000002,-0.030246,0.022446,-0.0009310000000000001,-0.000687
277,2.77,-0.023408,-0.034056,-0.07774400000000001,0.019241,-0.006256,-0.0006870000000000001
278,2.78,-0.015596,-0.023393,-0.091292,0.013916,-0.00946,-0.002823
279,2.79,-0.03836400000000001,-0.064841,-0.107951,0.0064540000000000005,-0.008392,-0.0006870000000000001
280,2.8,-0.015975,-0.029095,-0.084436,0.004333,-0.011597,0.000366
281,2.81,0.023961,-0.029317000000000003,-0.095341,0.0021969999999999997,-0.011597,-0.000687
282,2.82,0.010591,0.005913,-0.038208,0.001129,-0.011597,-0.001755
283,2.83,0.068539,0.024206000000000002,-0.034145999999999996,-0.000992,-0.01265,-0.0028230000000000004
284,2.84,0.054949,0.041268,0.004699,6.100000000000007e-05,-0.008392,-0.004959000000000001
285,2.85,0.024628999999999998,0.032312,0.010937000000000002,0.0021969999999999997,-0.008392,-0.002823
286,2.86,0.00569,0.018304,0.022972,0.0032649999999999997,0.00012199999999999973,-0.0038909999999999995
287,2.87,0.009466,-0.012297,0.012183,0.001129,0.00119,-0.001755
288,2.88,-0.0018060000000000003,0.00451,0.020547,6.1e-05,-0.000931,0.000366
289,2.89,-0.027063999999999998,0.0011000000000000003,0.027395999999999997,-0.0052640000000000004,-0.000931,-0.0006870000000000001
290,2.9,-0.003053,-0.017233000000000002,0.017795,-0.0063170000000000006,-0.001999,-0.001755
291,2.91,-0.010502,0.020438000000000005,0.019182000000000005,-0.0052640000000000004,-0.005203,-0.002823
292,2.92,-0.007394000000000001,-0.018289,0.0017780000000000016,-0.004196,-0.008392,0.001434
293,2.93,0.011927,-0.013751,-0.032729,-0.00206,-0.010529,0.001434
294,2.94,0.047231,-0.008736,-0.058258000000000004,-0.007384999999999999,-0.007324,0.001434
295,2.95,0.011975,0.009815,-0.0064559999999999965,-0.009521,-0.006256,0.002502
296,2.96,-0.015138999999999998,-0.018548,-0.032744,-0.01059,-0.007324,0.003571
297,2.97,-0.004789,-0.003363,0.02529,-0.01059,-0.005203,0.003571
298,2.98,-0.002761,-0.03444,0.01737,-0.009521,-0.005203,0.002502
299,2.99,0.009742000000000002,0.033279,0.026639999999999997,-0.01059,-0.0030670000000000003,0.003571
300,3.0,0.015099000000000001,0.00026800000000000093,0.028155,-0.009521,-0.0030670000000000003,0.001434
301,3.01,-0.0014940000000000005,0.041791000000000016,0.022406,-0.011658,0.00119,0.003571
302,3.02,0.003321000000000001,0.011701999999999999,0.012813999999999999,-0.01059,-0.004135,0.003571
303,3.03,0.019396000000000004,0.011597,-0.010493,-0.012711,-0.0030670000000000003,0.005707
304,3.04,-0.0038120000000000007,-0.0020700000000000007,-0.02338,-0.014846999999999999,-0.004135,0.003571
305,3.05,0.005678,0.0035030000000000013,-0.029804,-0.015915000000000002,-0.001999,0.0067599999999999995
306,3.06,0.025534,0.045023,-0.039406000000000004,-0.015915000000000002,-0.001999,0.009964
307,3.07,-0.029560000000000003,0.016161000000000002,-0.042635,-0.014846999999999999,0.0011899999999999994,0.009964
308,3.08,-0.053877,0.034921,-0.044143,-0.013779,0.00012200000000000017,0.012085
309,3.09,-0.029230000000000003,0.026363,-0.048718,-0.011658,0.002258,0.012085
310,3.1,-0.012206999999999999,-0.004241000000000003,-0.038821,-0.012711,0.008652,0.011032
311,3.11,-0.002877000000000001,-0.005148999999999999,-0.023935,-0.015915000000000002,0.015045,0.012085
312,3.12,-0.004219,-0.026773,-0.007947,-0.016983,0.016113,0.011032
313,3.13,0.021472,-0.004192,0.033016000000000004,-0.019104,0.018234,0.011032
314,3.14,0.034364,0.004475999999999999,0.086278,-0.020172,0.017166,0.012085
315,3.15,0.005621000000000001,-0.014868000000000001,0.070898,-0.019104,0.013977000000000002,0.012085
316,3.16,-0.023397000000000008,0.006104,0.10431900000000001,-0.014846999999999999,0.012909,0.011032
317,3.17,0.013166000000000002,0.043586,0.092458,-0.01059,0.011840999999999999,0.013153
318,3.18,-0.002209,0.02394,0.071159,-0.008453,0.011840999999999999,0.009964
319,3.19,0.003339999999999999,-0.010123,0.040674,-0.004196,0.008652,0.014221000000000001
320,3.2,0.024239,0.012423,0.009723,-0.0009920000000000005,0.00972,0.011032
321,3.21,0.015957,-0.015434,0.012010999999999999,0.0021969999999999997,0.0075840000000000005,0.007828
322,3.22,0.026957,0.006412000000000001,0.025966000000000003,0.001129,0.0043950000000000005,0.005707
323,3.23,0.0237,-0.025174000000000002,0.011747,0.004333,0.003326,0.002502
324,3.24,0.02144,-0.024918,0.021986000000000002,6.100000000000029e-05,0.003326,0.001434
325,3.25,0.014918,-0.0030729999999999998,0.014633999999999998,0.0021969999999999997,0.003326,0.002502
326,3.26,-0.009674,0.005407,-0.033485,-0.00206,0.003326,0.001434
327,3.27,-0.014883999999999996,0.015543,0.007104000000000001,-0.000992,0.005463,0.00036600000000000017
328,3.28,-0.008721,0.009473,-0.036395,-0.00206,0.006516,0.000366
329,3.29,-0.009106,0.021493,-0.04154999999999999,-0.003128,0.0043950000000000005,0.000366
330,3.3,-0.028574000000000002,-0.004788000000000001,-0.066896,-0.00206,0.0075840000000000005,0.001434
331,3.31,0.000981,-0.008373999999999998,-0.108173,-0.003128,0.008652,-0.001755
332,3.32,0.005821,0.002451,-0.044323,-0.007384999999999999,0.0075840000000000005,0.000366
333,3.33,0.011009999999999999,0.010328999999999998,-0.027545999999999998,-0.007384999999999999,0.008652,-0.0006870000000000001
334,3.34,-0.008514,-0.011779,-0.026735000000000002,-0.008453,0.006516,0.001434
335,3.35,0.017717,-0.007392,-0.035997,-0.008453,0.006516,-0.0006870000000000001
336,3.36,0.005665,0.008175,0.012206999999999999,-0.0063170000000000006,0.005463,0.00036600000000000017
337,3.37,-0.001923,0.033306999999999996,0.056546000000000006,-0.0009920000000000005,0.006516,0.00036600000000000017
338,3.38,-0.008031,0.007423000000000001,0.10376300000000001,0.0054020000000000006,0.0075840000000000005,-0.001755
339,3.39,-0.023071,0.022573,0.096413,0.009659000000000001,0.0075840000000000005,-0.0006870000000000001
340,3.4,-0.0019219999999999999,-0.006707000000000001,0.10129400000000001,0.013916,0.006516,0.000366
341,3.41,-0.0066760000000000005,-0.021189,0.087302,0.014984,0.00012199999999999993,0.000366
342,3.42,0.035081,0.0003349999999999985,0.05138100000000001,0.017105000000000002,-0.001999,0.002502
343,3.43,0.049281,-0.049441000000000006,0.041144,0.017105000000000002,0.000122,0.001434
344,3.44,0.033456,-0.036247,0.014097,0.012847999999999998,0.00012199999999999993,0.004639
345,3.45,0.032102,-0.050548,-0.044571,0.010727,0.00119,0.002502
346,3.46,0.024585,-0.021459,-0.071575,0.008591,-0.001999,0.002502
347,3.47,0.022456999999999998,0.00030600000000000066,-0.002009999999999998,0.009659000000000001,-0.008392,0.004639
348,3.48,0.033168,0.036872,-0.020165,0.007523,-0.010529,0.005707
349,3.49,0.01261,0.061766999999999996,0.01754,0.009659000000000001,-0.011597,0.003570999999999999
350,3.5,0.029649000000000002,0.049273000000000004,0.021396000000000002,0.013916,-0.01265,0.002502
351,3.51,0.003793999999999999,0.017048,0.034739999999999986,0.019241,-0.011597,0.003571
352,3.52,-0.016538999999999998,-0.006321,0.027247000000000004,0.020309,-0.01265,0.000366
353,3.53,-0.012969,-0.061339,-0.04546,0.021378,-0.007324,-0.001755
354,3.54,-0.039809,-0.072064,-0.043559,0.017105000000000002,-0.00946,-0.002823
355,3.55,-0.022979,-0.065252,-0.048875,0.016052,-0.008392,-0.001755
356,3.56,-0.02465,-0.092666,-0.034681000000000003,0.010727,-0.00946,-0.0038909999999999995
357,3.57,0.039941000000000004,-0.034408999999999995,-0.097457,0.0054020000000000006,-0.008392,-0.006012
358,3.58,0.017525,-0.0509,-0.060941999999999996,-0.0009920000000000005,-0.010529,-0.006012
359,3.59,0.021764,-0.023103,-0.06869700000000001,-0.0063170000000000006,-0.006256,-0.004959000000000001
360,3.6,0.013639999999999998,0.044362,-0.024035,-0.008453,-0.010529,-0.0038909999999999995
361,3.61,-0.002334000000000001,0.050957999999999996,0.016315,-0.007384999999999999,-0.00946,-0.0038909999999999995
362,3.62,-0.012695999999999999,0.069576,0.065647,-0.004196,-0.01265,-0.0038909999999999995
363,3.63,-0.0004840000000000001,0.070988,0.03695,6.1e-05,-0.013718000000000001,-0.002823
364,3.64,-0.008142,0.06382,0.08631,0.009659000000000001,-0.010529,-0.001755
365,3.65,0.01222,0.011168999999999998,0.044002,0.012847999999999998,-0.013718000000000001,-0.001755
366,3.66,-0.004017,0.008322,0.011768,0.014984,-0.017975,0.000366
367,3.67,-0.054568999999999986,-0.057684000000000006,-0.036092,0.01178,-0.020111,0.000366
368,3.68,-0.037114999999999995,-0.040843,-0.05619299999999999,0.007523,-0.021179,0.003571
369,3.69,-0.050527999999999997,-0.033074,-0.07425599999999999,0.0011289999999999998,-0.020111,0.004639
370,3.7,-0.015421,-0.033105,-0.014084000000000001,-0.003128,-0.020111,0.005707
371,3.71,-0.05598199999999999,-0.014975,0.0035199999999999993,-0.0052640000000000004,-0.016922,0.004639
372,3.72,0.021283,0.024456,0.024352000000000002,-0.003128,-0.011597,0.004639
373,3.73,-0.0108,0.037801999999999995,0.042325,-0.00206,-0.010529,0.001434
374,3.74,-0.007941,0.040744,0.03685,-0.000992,-0.006256,0.001434
375,3.75,-0.0042190000000000005,0.017996,0.022169,0.0032649999999999997,-0.004135,0.00036600000000000017
376,3.76,0.001058,0.048251,0.017477,0.0064540000000000005,-0.006256,-0.0006870000000000001
377,3.77,-0.013213999999999998,0.017884,-0.003927999999999999,0.009659000000000001,-0.005203,-0.0006870000000000001
378,3.78,-0.016481,0.002724000000000001,0.019545,0.008591,-0.007324,0.000366
379,3.79,-0.01457,0.014446,-0.034752,0.008591,-0.007324,-0.0006870000000000001
380,3.8,-0.007835,-0.006423999999999999,-0.0399,0.0054020000000000006,-0.004135,-0.000687
381,3.81,0.006875999999999999,-0.024665,-0.017383000000000003,0.007523,-0.007324,0.001434
382,3.82,0.008974,-0.017152,-0.041148000000000004,0.0032649999999999997,-0.00946,0.000366
383,3.83,0.007136,-0.028007999999999998,-0.06788999999999999,0.0021969999999999997,-0.007324,-0.001755
384,3.84,-0.012994,-0.02216,-0.067629,-0.000992,-0.007324,-0.001755
385,3.85,-0.029611000000000002,-0.022313,-0.064833,-0.00206,-0.001999,-0.0038909999999999995
386,3.86,-0.066687,0.017044,-0.036938,-0.004196,-0.0009310000000000001,-0.001755
387,3.87,-0.053080999999999996,0.005152999999999998,0.011141,-0.00206,-0.0009310000000000001,-0.0006870000000000001
388,3.88,-0.037344999999999996,-0.0027129999999999997,0.007873,-0.0009920000000000005,-0.0009310000000000001,-0.0006870000000000001
389,3.89,0.011589,0.021465,0.056889,0.0021969999999999997,0.000122,0.0014339999999999995
390,3.9,0.017044999999999998,-0.006639000000000001,0.05632,0.0032649999999999997,0.003326,-0.002823
391,3.91,0.034092000000000004,-0.039639999999999995,0.065069,0.0032649999999999997,0.003326,-0.0006870000000000001
392,3.92,-0.007231000000000001,-0.025477,0.058753,-0.000992,0.006516,-0.000687
393,3.93,0.035064,-0.051502,0.017252999999999998,-0.004196,0.008652,-0.002823
394,3.94,-0.024186000000000003,-0.04417,0.008586,-0.007384999999999999,0.00972,-0.0006870000000000001
395,3.95,-0.043112,-0.050959,-0.013926,-0.012711,0.005463,-0.002823
396,3.96,-0.027624,-0.036368,-0.006986,-0.018036,0.0043950000000000005,0.001434
397,3.97,-0.029397,-0.020262,-0.05429199999999999,-0.020172,0.005463,0.000366
398,3.98,-0.036741,0.007489000000000002,-0.027420999999999997,-0.019104,0.0043950000000000005,0.003571000000000001
399,3.99,0.03743,0.009401999999999999,-0.050249,-0.023361,0.007583999999999999,0.004639000000000001
400,4.0,0.061687,0.023617,-0.058161,-0.022308,0.0075840000000000005,0.004639
401,4.01,0.07002799999999999,0.008690999999999999,-0.031206,-0.026566000000000003,0.005463,0.0067599999999999995
402,4.02,0.084725,0.049017000000000005,-0.013152,-0.026566000000000003,0.003326,0.0067599999999999995
403,4.03,0.085846,0.018405,-0.0019,-0.025497,0.002258,0.005707
404,4.04,0.07791100000000001,0.050089,0.022803,-0.021240000000000002,-0.001999,0.005707
405,4.05,0.06557,0.035822,-0.005872,-0.014846999999999999,-0.004135,0.005707
406,4.06,0.045994000000000014,0.005704999999999997,-0.020278,-0.007384999999999999,-0.00946,0.005707
407,4.07,0.06155,0.01266,-0.002236,-0.004196,-0.01265,0.005707
408,4.08,0.046284,0.016725,-0.022569,-0.00206,-0.011597,0.0067599999999999995
409,4.09,0.017422999999999998,0.013765999999999995,-0.018343,-0.003128,-0.010529,0.005707
410,4.1,0.0063170000000000006,0.004829,-0.026595000000000004,-0.0063170000000000006,-0.010529,0.007828
411,4.11,0.012131999999999999,-0.016958,-0.032423,-0.01059,-0.005203,0.005707
412,4.12,-0.041233,0.006593999999999999,-0.034026,-0.015915000000000002,0.00012200000000000017,0.004639
413,4.13,-0.061046,0.00916,0.008662999999999999,-0.016983,0.000122,0.004639
414,4.14,-0.067609,-0.003754,-0.024153,-0.020172,0.0043950000000000005,0.004639
415,4.15,-0.04766,0.024355,0.022308,-0.018036,0.002258,0.002502
416,4.16,-0.038841,0.020051,-0.020941,-0.016983,0.002258,0.003571
417,4.17,-0.023882,0.030687,-0.023886,-0.014846999999999999,0.002258,0.003571
418,4.18,-0.010747,0.030993,-0.018844999999999997,-0.011658,0.003326,0.001434
419,4.19,0.038064999999999995,-0.0026329999999999965,-0.049475,-0.008453,0.002258,0.003571
420,4.2,0.030784,0.003434,-0.05619099999999999,-0.008453,0.0043950000000000005,0.002502
421,4.21,0.033355,-0.029083,-0.05562,-0.01059,0.0043950000000000005,0.002502
422,4.22,0.03501,-0.054601,-0.043318999999999996,-0.011658,0.00119,0.000366
423,4.23,0.016669999999999997,-0.044235000000000003,-0.053538,-0.015915000000000002,0.00119,0.001434
424,4.24,-0.021438,-0.031547000000000006,-0.030686000000000005,-0.021240000000000002,-0.001999,-0.0006870000000000001
425,4.25,-0.008997999999999999,-0.016835000000000003,-0.024907,-0.024429,-0.005203,-0.0006870000000000001
426,4.26,-0.034223,0.015041,0.050616,-0.024429,-0.006256,0.001434
427,4.27,-0.004366999999999999,0.036383,0.031567000000000005,-0.022308,-0.005203,0.002502
428,4.28,-0.009892,0.047106999999999996,0.028442000000000002,-0.020172,-0.006256,0.002502
429,4.29,-0.014253,0.006826999999999996,0.038794,-0.013779,-0.005203,0.002502
430,4.3,0.044471,0.00212,0.015952,-0.013779,-0.005203,0.004639
431,4.31,0.031612,-0.017887,0.016766999999999997,-0.015915000000000002,-0.004135,0.004639
432,4.32,0.040031,0.016873,0.020679,-0.016983,-0.0030670000000000003,0.003571
433,4.33,0.056459,-0.019716,0.014081,-0.014846999999999999,-0.005203,0.000366
434,4.34,0.026718000000000002,0.010776,-0.003930000000000001,-0.013779,-0.005203,-0.002823
435,4.35,-0.019,0.004723999999999999,-0.043241,-0.01059,-0.006256,0.001434
436,4.36,-0.014147,0.019053,-0.022295,-0.011658,-0.0030670000000000003,-0.0006870000000000001
437,4.37,-0.04068,-0.016798999999999998,-0.040193,-0.01059,-0.0030670000000000003,0.002502
438,4.38,-0.032516,0.022593000000000002,-0.011304,-0.011658,-0.004135,-0.0006870000000000001
439,4.39,-0.024485,-0.004226000000000001,0.022225,-0.012711,-0.006256,0.001434
440,4.4,-0.039984,-0.017549000000000002,0.0208,-0.008453,-0.004135,0.002502
441,4.41,-0.027818,0.0061860000000000005,-0.017162,-0.009521,-0.005203,0.002502
442,4.42,-0.021840000000000002,0.0015599999999999989,-0.020596,-0.007384999999999999,-0.006256,0.003571
443,4.43,-0.020814,-0.018009999999999998,-0.056702999999999996,-0.01059,-0.004135,0.003571
444,4.44,0.013473999999999998,-0.000896000000000001,-0.01056,-0.011658,0.000122,0.003571
445,4.45,-0.0012050000000000012,-0.01971,0.032942,-0.013779,0.002258,0.0003659999999999996
446,4.46,0.02009,-0.043457,-0.012648999999999999,-0.013779,0.00119,-0.0006870000000000001
447,4.47,0.013101000000000002,-0.01786,0.009031,-0.011658,0.00012199999999999993,-0.001755
448,4.48,0.033488,-0.031445,-0.014626000000000004,-0.01059,-0.0030670000000000003,-0.000687
449,4.49,0.014233,-0.054519000000000005,-0.021279,-0.009521,-0.004135,-0.002823
450,4.5,-0.008842000000000001,-0.008597999999999998,-0.074172,-0.012711,-0.006256,-0.002823
451,4.51,0.018452,-0.057333,-0.08762,-0.018036,-0.00946,-0.001755
452,4.52,-7.300000000000015e-05,-0.033158,-0.093649,-0.025497,-0.00946,-0.001755
453,4.53,-0.0052049999999999996,-0.036068,-0.10483900000000002,-0.032958999999999995,-0.010529,-0.002823
454,4.54,-0.017965000000000002,-0.016197,-0.07348400000000001,-0.040405,-0.00946,-0.001755
455,4.55,-0.048149000000000004,0.047411,-0.045689,-0.047867,-0.007324,-0.001755
456,4.56,-0.021148,0.012205,0.009469000000000002,-0.048935,-0.007324,-0.002823
457,4.57,-0.039085,0.018915,0.044080000000000015,-0.04361,-0.0030670000000000003,-0.001755
458,4.58,-0.00463,0.030239,0.061364,-0.037216,0.00012199999999999993,-0.001755
459,4.59,-0.0007669999999999999,-0.006601999999999999,0.049516000000000004,-0.028702,0.00119,-0.002823
460,4.6,0.062525,-0.069027,0.049301,-0.023361,0.00119,-0.004959000000000001
461,4.61,0.021179,-0.07902100000000001,-0.012078000000000002,-0.019104,-0.0009310000000000001,-0.006012
462,4.62,0.018442,-0.06862,-0.075551,-0.019104,-0.0030670000000000003,-0.0038909999999999995
463,4.63,-0.029348000000000003,-0.083107,-0.085733,-0.021240000000000002,-0.004135,-0.004959000000000001
464,4.64,-0.077688,-0.032861000000000015,-0.07293,-0.026566000000000003,0.00119,-0.001755
465,4.65,-0.024403,0.002366,-0.170404,-0.031891,0.006516,-0.0006870000000000001
466,4.66,-0.016229,0.009833,-0.19083599999999998,-0.038284,0.005463,0.0025020000000000003
467,4.67,0.007748999999999998,0.044346,-0.187046,-0.04361,0.010787999999999999,0.000366
468,4.68,0.061377,0.012969999999999999,-0.192617,-0.046799,0.00972,0.000366
469,4.69,0.056508,0.005574,-0.159274,-0.051071,0.00972,-0.002823
470,4.7,0.037989,0.011798999999999999,-0.12473499999999998,-0.055327999999999995,0.00972,-0.0006870000000000001
471,4.71,-0.003845999999999999,0.020465,-0.057338,-0.057449,0.006516,0.000366
472,4.72,-0.009629000000000002,0.05214,-0.028489999999999998,-0.052124000000000004,-0.0030670000000000003,0.000366
473,4.73,0.003266,0.068927,-0.020886,-0.051071,-0.013718000000000001,-0.0006870000000000001
474,4.74,0.062137999999999985,0.012746000000000004,-0.048516000000000004,-0.051071,-0.019043,0.002502
475,4.75,0.10969200000000001,0.019413,-0.08837300000000001,-0.053191999999999996,-0.019043,0.002502
476,4.76,0.162128,-0.011399,-0.148382,-0.05851699999999999,-0.01265,0.002502
477,4.77,0.198278,-0.09746,-0.196831,-0.068115,-0.006256,-0.0006870000000000001
478,4.78,0.224189,-0.08029800000000001,-0.22027199999999997,-0.07662999999999999,0.00012199999999999973,-0.001755
479,4.79,0.181082,-0.07556900000000001,-0.253246,-0.089417,0.006516,-0.002823
480,4.8,0.125197,-0.037717,-0.216685,-0.098999,0.012909,-0.002823
481,4.81,0.140101,-0.001680000000000001,-0.16736700000000002,-0.101135,0.013977000000000002,-0.002823
482,4.82,0.122376,0.044636,-0.139726,-0.101135,0.017166,-0.002823
483,4.83,0.098756,0.05273200000000001,-0.16398800000000002,-0.09793099999999999,0.016113,-0.0006870000000000001
484,4.84,0.055758,0.077264,-0.20365899999999998,-0.09793099999999999,0.016113,0.004639
485,4.85,0.09884,0.11305499999999999,-0.181517,-0.09793099999999999,0.00972,0.012085
486,4.86,0.127608,0.068011,-0.179577,-0.098999,0.002258,0.019547
487,4.87,0.148858,0.040136,-0.21649000000000002,-0.09581,0.0043950000000000005,0.022751
488,4.88,0.192348,0.041821,-0.27019899999999997,-0.098999,0.0043950000000000005,0.028076
489,4.89,0.22361999999999999,0.030358,-0.29129499999999997,-0.104324,0.00972,0.030197
490,4.9,0.252396,-0.003817000000000005,-0.30786399999999997,-0.10646099999999999,0.012909,0.032333
491,4.91,0.238875,0.020070000000000005,-0.27634899999999996,-0.10965,0.016113,0.031265
492,4.92,0.273049,-0.027501000000000005,-0.23341599999999998,-0.11071800000000001,0.012909,0.034454000000000005
493,4.93,0.28192399999999995,-0.019387,-0.22046999999999997,-0.107529,0.011840999999999999,0.034454000000000005
494,4.94,0.266687,0.0202,-0.264106,-0.101135,0.00972,0.037659
495,4.95,0.262639,-0.006286,-0.321664,-0.09367400000000001,0.008652,0.036591000000000005
496,4.96,0.302618,0.009758,-0.313195,-0.089417,0.008652,0.039795
497,4.97,0.318359,0.026148000000000005,-0.369842,-0.089417,0.0075840000000000005,0.040848
498,4.98,0.343224,0.010206,-0.367158,-0.090485,0.005463,0.041916
499,4.99,0.35480300000000004,0.011109,-0.395667,-0.090485,0.010787999999999999,0.042983999999999994
500,5.0,0.33238,0.045626,-0.36037199999999997,-0.089417,0.015045,0.044052
501,5.01,0.317912,0.042469,-0.393691,-0.088348,0.021439,0.039795
502,5.02,0.262845,0.06379899999999998,-0.384304,-0.085159,0.02037,0.039795
503,5.03,0.258098,0.068035,-0.368724,-0.086212,0.018234,0.036591000000000005
504,5.04,0.26571,0.058572000000000006,-0.38446199999999997,-0.085159,0.012909,0.031265
505,5.05,0.271538,0.025664999999999997,-0.407561,-0.085159,0.00972,0.028076
506,5.06,0.28467,-0.014501000000000003,-0.42403199999999996,-0.090485,0.015045,0.023804
507,5.07,0.31615,-0.061649,-0.423124,-0.09687799999999999,0.019302,0.01741
508,5.08,0.338279,-0.097735,-0.473397,-0.10539200000000001,0.025695999999999997,0.012085
509,5.09,0.282015,-0.10245699999999999,-0.44197,-0.10965,0.025695999999999997,0.0067599999999999995
510,5.1,0.307105,-0.038952,-0.41900299999999996,-0.114975,0.026764,0.0067599999999999995
511,5.11,0.306373,-0.038061000000000005,-0.384276,-0.124573,0.026764,0.0067599999999999995
512,5.12,0.357288,-0.005587999999999999,-0.318912,-0.129898,0.024628,0.009964
513,5.13,0.342994,-0.011041000000000002,-0.259602,-0.139481,0.024628,0.008896
514,5.14,0.325153,-0.033195999999999996,-0.20996599999999999,-0.150131,0.016113,0.004639
515,5.15,0.355016,-0.0758,-0.146205,-0.15545699999999998,0.006516,0.002502
516,5.16,0.385992,-0.061891999999999996,-0.15349000000000002,-0.157593,0.00012200000000000017,-0.001755
517,5.17,0.33070900000000003,-0.101141,-0.131704,-0.16185,0.00119,-0.008148
518,5.18,0.30990999999999996,-0.132122,-0.079092,-0.17038,0.013977000000000002,-0.011353
519,5.19,0.295806,-0.17486300000000002,-0.025336000000000004,-0.183151,0.026764,-0.014542
520,5.2,0.23475500000000002,-0.165654,0.072963,-0.192749,0.043808,-0.013474000000000002
521,5.21,0.22315300000000002,-0.20562600000000003,0.130323,-0.2034,0.064041,-0.016678
522,5.22,0.12279100000000001,-0.260709,0.25597600000000004,-0.20979299999999998,0.081085,-0.012405
523,5.23,0.07294099999999999,-0.277345,0.35115100000000005,-0.208725,0.10240199999999999,-0.010284
524,5.24,-0.066115,-0.301167,0.40320100000000003,-0.199142,0.12156700000000001,-0.002823
525,5.25,-0.117453,-0.28986,0.444558,-0.184219,0.141815,0.005707
526,5.26,-0.207844,-0.32659099999999996,0.39223600000000003,-0.16185,0.168442,0.014221000000000001
527,5.27,-0.194889,-0.353365,0.387052,-0.145874,0.19613599999999998,0.019547
528,5.28,-0.16919,-0.330729,0.301253,-0.125641,0.219574,0.019547
529,5.29,-0.202166,-0.33105999999999997,0.198545,-0.11392200000000001,0.24513200000000002,0.018478
530,5.3,-0.210048,-0.327289,0.163021,-0.10965,0.2771,0.018478
531,5.31,-0.235569,-0.343672,0.042898,-0.126694,0.299469,0.013153
532,5.32,-0.24586999999999998,-0.268804,0.047860000000000014,-0.150131,0.314377,0.0067599999999999995
533,5.33,-0.376723,-0.22475100000000003,0.027599000000000002,-0.177826,0.319702,0.003571
534,5.34,-0.41084,-0.10570299999999999,-0.136491,-0.200195,0.321838,-0.008148
535,5.35,-0.44094399999999995,-0.022921,-0.524026,-0.190613,0.303726,-0.036911
536,5.36,-0.34810599999999997,0.081553,-0.8250850000000001,-0.17038,0.27284200000000003,-0.050766000000000006
537,5.37,-0.070793,0.514624,-1.158382,-0.145874,0.23129299999999997,-0.074188
538,5.38,-0.115799,0.7434189999999999,-1.3350790000000001,-0.102203,0.171631,-0.106155
539,5.39,-0.041578,0.962967,-1.6460990000000002,-0.047867,0.11198399999999999,-0.129593
540,5.4,-0.167762,1.102326,-1.766161,-0.008453000000000002,0.039550999999999996,-0.154083
541,5.41,-0.378444,1.291727,-1.882869,0.01178,-0.033966,-0.17965699999999998
542,5.42,-0.6658649999999999,1.298401,-1.852208,0.0054020000000000006,-0.093613,-0.197769
543,5.43,-0.990002,1.266691,-1.7412860000000001,-0.022308,-0.122375,-0.213745
544,5.44,-1.344635,1.165797,-1.508716,-0.057449,-0.109589,-0.23611500000000002
545,5.45,-1.760741,0.875676,-1.2530709999999998,-0.079834,-0.063782,-0.248901
546,5.46,-2.041482,0.487975,-1.045587,-0.085159,-0.004135,-0.254227
547,5.47,-2.215265,0.11490899999999997,-0.916849,-0.07449299999999999,0.054459,-0.254227
548,5.48,-2.1655450000000003,-0.210785,-0.939132,-0.059586,0.10665899999999999,-0.24569699999999997
549,5.49,-1.949616,-0.426993,-0.945608,-0.055327999999999995,0.154587,-0.230789
550,5.5,-1.6630779999999998,-0.5966819999999999,-0.9433440000000001,-0.053191999999999996,0.187622,-0.212677
551,5.51,-1.272808,-0.705519,-0.9921,-0.05851699999999999,0.21743800000000002,-0.192444
552,5.52,-0.896285,-0.8240719999999999,-1.086555,-0.07130399999999999,0.23555,-0.174332
553,5.53,-0.6635300000000001,-0.8398329999999999,-1.199659,-0.090485,0.228088,-0.158356
554,5.54,-0.519199,-0.8349049999999999,-1.240257,-0.108597,0.212112,-0.14238
555,5.55,-0.563945,-0.816634,-1.309144,-0.12350499999999999,0.189743,-0.118942
556,5.56,-0.665008,-0.592649,-1.425049,-0.135223,0.173767,-0.09550499999999999
557,5.57,-0.7122729999999999,-0.405078,-1.490032,-0.139481,0.159912,-0.076324
558,5.58,-0.71633,-0.292609,-1.4967409999999999,-0.143738,0.151398,-0.063538
559,5.59,-0.820348,-0.171078,-1.48517,-0.12883,0.14926099999999998,-0.047562
560,5.6,-0.7201069999999999,0.032193,-1.546089,-0.104324,0.14714100000000002,-0.042236
561,5.61,-0.751786,0.229261,-1.62299,-0.079834,0.132217,-0.043304
562,5.62,-0.8282379999999999,0.33686900000000003,-1.695677,-0.055327999999999995,0.09919700000000001,-0.047562
563,5.63,-0.9317620000000001,0.471879,-1.7791169999999998,-0.034026999999999995,0.067245,-0.041168
564,5.64,-0.999293,0.608023,-1.87438,-0.014846999999999999,0.018234,-0.035843
565,5.65,-0.9993770000000001,0.7256319999999999,-1.950857,-0.009521,-0.033966,-0.024124
566,5.66,-1.00807,0.8293010000000001,-2.046914,-0.016983,-0.091476,-0.012405
567,5.67,-0.889776,0.918586,-2.138566,-0.038284,-0.15646400000000002,0.005707
568,5.68,-0.812067,1.0063360000000001,-2.2559299999999998,-0.07130399999999999,-0.202271,0.030197
569,5.69,-0.684655,1.140363,-2.357106,-0.102203,-0.242752,0.050446
570,5.7,-0.456775,1.387421,-2.331501,-0.130966,-0.29388400000000003,0.065353
571,5.71,-0.24134299999999997,1.724936,-2.400902,-0.143738,-0.350342,0.077072
572,5.72,-0.131555,2.077168,-2.41348,-0.13841199999999998,-0.38656599999999997,0.069611
573,5.73,-0.163618,2.454556,-2.45487,-0.11604300000000001,-0.415329,0.057892
574,5.74,-0.282884,2.773544,-2.4706349999999997,-0.068115,-0.43344099999999997,0.041916
575,5.75,-0.484497,2.926367,-2.484224,-0.005263999999999998,-0.46006800000000003,0.035522000000000005
576,5.76,-0.741505,2.8486,-2.377304,0.07463099999999999,-0.484573,0.046173
577,5.77,-1.005789,2.540823,-2.2522450000000003,0.143875,-0.503738,0.071747
578,5.78,-1.386526,2.096089,-1.868422,0.19181800000000002,-0.506943,0.112228
579,5.79,-1.643055,1.7673439999999998,-1.413526,0.20033299999999998,-0.5112,0.151642
580,5.8,-1.7577990000000001,1.7233310000000002,-0.9151959999999999,0.141754,-0.538895,0.174011
581,5.81,-1.577143,1.987211,-0.34686300000000003,0.019240999999999998,-0.620926,0.169754
582,5.82,-1.225839,2.345596,0.317616,-0.135223,-0.72319,0.16761800000000002
583,5.83,-0.657141,2.254062,1.3375219999999999,-0.234283,-0.786041,0.18573
584,5.84,-0.07445000000000003,1.44397,2.345472,-0.235352,-0.761536,0.193192
585,5.85,0.839038,0.21280299999999985,3.136402,-0.167175,-0.6816409999999999,0.153778
586,5.86,1.719455,-0.968517,3.625611,-0.055327999999999995,-0.584702,0.062164
587,5.87,2.4178669999999998,-1.8826330000000002,3.5642,0.07463099999999999,-0.489899,-0.047562
588,5.88,2.6826209999999997,-2.209485,2.830075,0.153473,-0.41851800000000006,-0.150894
589,5.89,2.730542,-2.10803,1.9830869999999998,0.150269,-0.367386,-0.23397800000000002
590,5.9,2.245063,-1.6444849999999998,1.303944,0.091675,-0.34715300000000004,-0.290451
591,5.91,1.5543120000000001,-0.9481639999999999,0.94124,0.009659000000000008,-0.368454,-0.30217
592,5.92,0.8306129999999999,-0.22708300000000006,0.724535,-0.069168,-0.38656599999999997,-0.26806599999999997
593,5.93,0.24028500000000005,0.510329,0.7777310000000001,-0.14161700000000002,-0.372711,-0.200958
594,5.94,-0.22068000000000002,1.072439,0.837583,-0.204468,-0.34075900000000003,-0.09550499999999999
595,5.95,-0.46998199999999996,1.326811,0.980426,-0.237488,-0.304535,0.011032
596,5.96,-0.564646,1.314816,1.10627,-0.242813,-0.294952,0.093048
597,5.97,-0.514083,1.094256,1.322598,-0.188477,-0.305603,0.147385
598,5.98,-0.42771800000000004,0.658483,1.3364719999999999,-0.078766,-0.337555,0.161224
599,5.99,-0.353907,0.252643,1.043342,0.044815,-0.371643,0.161224
600,6.0,0.013327000000000006,-0.294608,0.706542,0.13961800000000002,-0.397217,0.159103
601,6.01,0.29318,-0.8946940000000001,0.31138299999999997,0.22697399999999998,-0.42598,0.13352999999999998
602,6.02,0.481447,-1.513639,-0.103072,0.286621,-0.444092,0.107971
603,6.03,0.5527880000000001,-2.169273,-0.46466899999999994,0.319641,-0.45367399999999997,0.09730499999999999
604,6.04,0.656461,-2.808094,-0.880618,0.31858800000000004,-0.454742,0.114349
605,6.05,0.581954,-3.0154799999999997,-1.1190360000000001,0.289825,-0.450485,0.137787
606,6.06,0.556517,-3.093403,-1.271682,0.23016399999999998,-0.402542,0.164429
607,6.07,0.46701400000000004,-3.047257,-1.218332,0.153473,-0.336502,0.16761800000000002
608,6.08,0.396469,-2.930611,-1.022893,0.086349,-0.267258,0.16229200000000002
609,6.09,0.26964299999999997,-2.729683,-0.8302149999999999,0.034149,-0.20652800000000002,0.143112
610,6.1,0.176137,-2.501227,-0.5830890000000001,0.004333,-0.160721,0.11116
611,6.11,0.149321,-2.3664099999999997,-0.456697,-0.00206,-0.127701,0.069611
612,6.12,0.081037,-1.9797330000000002,-0.47519700000000004,6.099999999999986e-05,-0.096817,0.034454000000000005
613,6.13,0.039313,-1.6880240000000002,-0.5836859999999999,0.0021969999999999997,-0.061661,0.015288999999999999
614,6.14,-0.08733099999999999,-1.551954,-0.589729,0.014984,-0.021179,-0.004959000000000001
615,6.15,-0.10276099999999999,-1.516319,-0.748463,0.034149,0.033157,-0.025192
616,6.16,-0.050844,-1.417275,-0.9605520000000001,0.055465999999999994,0.090683,-0.034775
617,6.17,0.029539,-1.2171889999999999,-1.150234,0.06930499999999999,0.15033,-0.042236
618,6.18,0.144583,-1.016548,-1.323199,0.079956,0.211044,-0.045441
619,6.19,0.233871,-0.749109,-1.4507809999999999,0.09274299999999999,0.267517,-0.042236
620,6.2,0.347693,-0.229282,-1.547799,0.11192300000000001,0.319702,-0.026260000000000002
621,6.21,0.424227,0.383923,-1.6294520000000001,0.134293,0.363388,-0.016678
622,6.22,0.269586,0.995735,-1.7196169999999997,0.161987,0.407059,-0.014542
623,6.23,0.17921800000000002,1.476604,-1.7781349999999998,0.189682,0.43156400000000006,-0.015609999999999999
624,6.24,0.089655,1.9409560000000001,-1.774787,0.20993,0.43688999999999995,-0.022003
625,6.25,0.109146,2.134353,-1.7103869999999999,0.244019,0.43156400000000006,-0.023056
626,6.26,0.200772,2.257966,-1.577931,0.291946,0.421967,-0.023056
627,6.27,0.27571599999999996,2.313187,-1.557115,0.333496,0.43368500000000004,-0.004959000000000001
628,6.28,0.406328,2.355492,-1.7656029999999998,0.353729,0.47949200000000003,0.022751
629,6.29,0.58931,2.463235,-1.9934349999999998,0.319641,0.543411,0.04512
630,6.3,0.865167,2.635724,-2.296821,0.240814,0.60733,0.051498
631,6.31,0.9198200000000001,2.848494,-2.508197,0.147079,0.651001,0.041916
632,6.32,0.7703760000000001,2.955499,-2.550128,0.06930499999999999,0.666977,0.011032
633,6.33,0.723533,2.96921,-2.201099,0.022446,0.637161,-0.023056
634,6.34,0.481048,3.091201,-1.28417,0.013916,0.623306,-0.080582
635,6.35,0.080709,3.6485540000000003,-0.64082,6.099999999999856e-05,0.653137,-0.0923
636,6.36,0.454192,4.292102,0.26226900000000003,-0.103256,0.6297,-0.068863
637,6.37,1.33257,4.555244,1.924663,-0.225769,0.503998,-0.030518000000000007
638,6.38,2.069225,4.212344,3.6518699999999997,-0.22683699999999998,0.330368,0.04512
639,6.39,2.0307470000000003,2.7347650000000003,5.062118,-0.1203,0.178024,0.151642
640,6.4,1.549418,0.85654,5.613213,0.024567,0.089615,0.25177
641,6.41,0.740788,-0.784043,5.5072209999999995,0.164124,0.022507,0.33805799999999997
642,6.42,0.11433500000000002,-2.038777,4.8513660000000005,0.313263,0.003326,0.43287700000000007
643,6.43,-0.301034,-2.586018,3.6785949999999996,0.460266,-0.0030669999999999994,0.485062
644,6.44,-0.646505,-2.648715,2.151023,0.52951,-0.020111,0.475479
645,6.45,-1.0387709999999999,-2.168365,0.92417,0.485825,-0.031830000000000004,0.407303
646,6.46,-1.524789,-1.47609,0.293319,0.336685,-0.056335,0.316757
647,6.47,-2.0590990000000002,-0.49929700000000005,0.197053,0.10446199999999999,-0.102142,0.19958499999999998
648,6.48,-2.38203,0.5699029999999999,0.5891930000000001,-0.16078199999999998,-0.128769,0.085587
649,6.49,-2.008616,1.7190740000000002,1.210018,-0.38449099999999997,-0.118118,-0.034775000000000014
650,6.5,-1.6288770000000001,2.19842,1.9377529999999998,-0.493149,-0.056335,-0.144501
651,6.51,-0.8629900000000001,2.151827,2.697767,-0.434555,0.026764000000000003,-0.23611500000000002
652,6.52,-0.379297,1.543807,2.8014759999999996,-0.23216199999999998,0.11624100000000001,-0.29577600000000004
653,6.53,0.23813299999999998,0.7078260000000001,2.372861,-0.005264000000000005,0.188675,-0.319214
654,6.54,0.564599,-0.285912,1.844137,0.172638,0.19613599999999998,-0.333054
655,6.55,0.5998220000000001,-1.3207440000000001,1.3249520000000001,0.30580100000000005,0.158859,-0.319214
656,6.56,0.5287310000000001,-2.4154430000000002,0.644835,0.41552700000000004,0.120499,-0.29577600000000004
657,6.57,0.431435,-3.286172,-0.04254200000000002,0.45599399999999995,0.089615,-0.291504
658,6.58,0.17471099999999998,-4.055369000000001,-0.575925,0.45387299999999997,0.073639,-0.29470799999999997
659,6.59,0.054454999999999996,-4.509983,-0.993865,0.404861,0.086411,-0.306427
660,6.6,-0.362614,-4.7162809999999995,-1.218548,0.322845,0.104523,-0.353302
661,6.61,-0.704343,-4.957257,-1.412874,0.245071,0.14819300000000002,-0.380997
662,6.62,-0.9386639999999999,-4.84553,-1.392298,0.137482,0.179092,-0.394836
663,6.63,-1.214329,-4.264343,-1.240165,0.033096,0.189743,-0.377792
664,6.64,-1.49359,-3.56468,-0.9161159999999999,-0.041473,0.19506800000000002,-0.32453899999999997
665,6.65,-1.4136229999999999,-2.690126,-0.543617,-0.07130399999999999,0.186554,-0.24037199999999997
666,6.66,-1.251089,-1.664295,-0.216034,-0.06704700000000001,0.141815,-0.167938
667,6.67,-1.153774,-0.9766360000000001,-0.045793,-0.018036000000000003,0.071503,-0.098694
668,6.68,-0.989052,-0.421278,-0.014095999999999997,0.054398,0.005462999999999999,-0.046494
669,6.69,-0.856188,0.00032199999999998896,-0.099229,0.134293,-0.036087,-0.006012
670,6.7,-0.667841,0.351005,-0.173297,0.2323,-0.054199000000000004,0.028076
671,6.71,-0.408139,0.44613800000000003,-0.26663000000000003,0.367584,-0.049942,0.047241000000000005
672,6.72,-0.276206,0.12921400000000002,-0.460188,0.502869,-0.035019,0.06749
673,6.73,-0.239314,-0.39277199999999995,-0.7325,0.6019439999999999,-0.017975,0.10051
674,6.74,-0.323714,-0.9465290000000001,-1.125062,0.6488189999999999,-0.010529,0.137787
675,6.75,-0.634524,-1.420311,-1.750417,0.6456149999999999,-0.014786,0.160156
676,6.76,-0.916939,-1.6536919999999997,-2.513615,0.579575,-0.039291,0.171875
677,6.77,-1.006194,-1.593134,-3.222862,0.44641099999999995,-0.077637,0.155899
678,6.78,-0.821599,-1.033397,-3.6032059999999997,0.25679,-0.13942000000000002,0.115417
679,6.79,-0.483674,0.673549,-3.5298410000000002,-0.075562,-0.23422199999999999,0.038727
680,6.8,-0.22248099999999998,1.980491,-3.000033,-0.248138,-0.281097,-0.00708
681,6.81,-0.33478600000000003,3.434958,-2.274033,-0.328033,-0.311996,-0.042236
682,6.82,-0.651568,4.82793,-1.4083510000000001,-0.31205700000000003,-0.350342,-0.070999
683,6.83,-1.120215,5.85726,-0.631876,-0.206589,-0.395081,-0.086975
684,6.84,-1.7461119999999999,6.361307,-0.05377300000000002,-0.046799000000000014,-0.43237299999999995,-0.083786
685,6.85,-2.363998,6.2622230000000005,0.169105,0.1492,-0.420654,-0.066742
686,6.86,-2.751534,5.452637999999999,-0.154313,0.368652,-0.37696799999999997,-0.043304
687,6.87,-2.745263,4.246393,-0.901452,0.579575,-0.329041,-0.01561
688,6.88,-2.384371,2.773043,-1.139799,0.70314,-0.286423,0.025939999999999998
689,6.89,-1.713732,1.7185529999999998,-0.804512,0.642426,-0.29388400000000003,0.048309
690,6.9,-1.4482899999999999,0.9311450000000001,0.017333000000000043,0.348404,-0.391891,0.038727
691,6.91,-1.05925,0.20612,1.6229049999999998,-0.02442900000000001,-0.49095200000000006,0.054702999999999995
692,6.92,-0.389345,-0.6280640000000001,3.2853510000000004,-0.26411399999999996,-0.526108,0.06428500000000001
693,6.93,0.185,-1.719284,4.733798999999999,-0.329102,-0.40679899999999997,0.006760000000000002
694,6.94,1.200687,-2.0222759999999997,5.1254919999999995,-0.30140700000000004,-0.20013399999999998,-0.14238
695,6.95,1.8053099999999997,-1.683232,4.56732,-0.272644,-0.0233,-0.372467
696,6.96,1.596862,-0.587321,3.819005,-0.190613,0.071503,-0.524796
697,6.97,2.005774,0.657936,2.981615,-0.09474200000000002,0.155655,-0.542908
698,6.98,2.489847,1.7462790000000001,2.533968,-0.063843,0.237686,-0.498169
699,6.99,2.8919479999999997,2.4418860000000002,2.611108,-0.11392200000000001,0.24940500000000002,-0.39271500000000004
700,7.0,2.683494,2.849787,3.02114,-0.21086100000000002,0.101334,-0.23825100000000002
701,7.01,2.067729,2.924985,3.283376,-0.256668,-0.195877,-0.05076600000000002
702,7.02,0.896968,2.774033,2.659123,-0.22683699999999998,-0.474976,0.140991
703,7.03,0.049169999999999985,2.306384,1.9878360000000002,-0.167175,-0.657135,0.316757
704,7.04,-0.44399399999999994,1.391987,1.598689,-0.070236,-0.711472,0.428604
705,7.05,-0.6926720000000001,0.400055,1.229531,0.040543,-0.66246,0.462692
706,7.06,-0.857455,-0.49134399999999995,0.869949,0.132156,-0.5570069999999999,0.442459
707,7.07,-0.9995069999999999,-1.282171,0.41294200000000003,0.18756099999999998,-0.43663,0.401978
708,7.08,-1.116048,-2.002295,0.086424,0.201401,-0.34075900000000003,0.373215
709,7.09,-0.907818,-2.8609709999999997,-0.15087899999999999,0.220581,-0.26619,0.343384
710,7.1,-0.411843,-3.5446470000000003,-0.464138,0.224838,-0.207596,0.310364
711,7.11,0.19067500000000004,-4.081231,-0.687968,0.21205100000000002,-0.170319,0.27413899999999997
712,7.12,0.53265,-4.70637,-0.9631430000000001,0.180099,-0.142624,0.24005100000000001
713,7.13,0.6123810000000001,-5.181961,-0.933831,0.132156,-0.118118,0.232605
714,7.14,0.708731,-5.6612160000000005,-0.9555540000000001,0.081024,-0.08509800000000001,0.26455700000000004
715,7.15,0.883451,-5.728942,-0.841449,0.010727,-0.056335,0.28480500000000003
716,7.16,0.949207,-5.516972,-0.689332,-0.04361,-0.048874,0.26455700000000004
717,7.17,0.936542,-5.008244,-0.494842,-0.092606,-0.062729,0.214493
718,7.18,0.790289,-4.1307540000000005,-0.354622,-0.124573,-0.086151,0.134598
719,7.19,0.559897,-3.3695720000000002,-0.253945,-0.135223,-0.08189400000000001,0.038727
720,7.2,0.22196100000000002,-2.261518,-0.33179699999999995,-0.119247,-0.045685,-0.018799
721,7.21,0.326481,-1.489876,-0.4285,-0.098999,0.031021000000000007,-0.04863
722,7.22,0.316127,-0.916273,-0.664814,-0.084091,0.11731,-0.079529
723,7.23,0.21937399999999999,-0.29705799999999993,-0.70143,-0.055327999999999995,0.20253,-0.112549
724,7.24,0.168203,0.46414799999999995,-0.802575,0.0064540000000000005,0.26857,-0.14238
725,7.25,0.144902,1.143933,-0.8412870000000001,0.091675,0.317581,-0.162613
726,7.26,0.045543,1.610415,-0.9460649999999999,0.18649300000000002,0.34314,-0.173264
727,7.27,-0.114383,1.617016,-1.2452969999999999,0.254669,0.36978099999999997,-0.161545
728,7.28,-0.322631,1.167119,-1.431678,0.268509,0.396408,-0.14238
729,7.29,-0.5662659999999999,0.67384,-1.6327610000000001,0.24720799999999998,0.437958,-0.11361700000000001
730,7.3,-0.6929850000000001,0.5567439999999999,-1.861921,0.189682,0.47843900000000006,-0.079529
731,7.31,-0.611538,0.8319,-2.144221,0.09487899999999999,0.5231779999999999,-0.039047000000000005
732,7.32,-0.321296,1.539552,-2.30737,-0.02656599999999999,0.571106,0.007828000000000002
733,7.33,0.19352800000000006,2.38728,-2.298536,-0.171432,0.594543,0.050446
734,7.34,0.632305,3.301307,-1.9278540000000002,-0.315247,0.602005,0.088791
735,7.35,1.031004,4.183311,-1.4488290000000001,-0.391953,0.591354,0.127136
736,7.36,1.2989899999999999,4.705317,-0.8785870000000001,-0.36425799999999997,0.540222,0.153778
737,7.37,1.328562,4.766039,-0.538032,-0.237488,0.468842,0.164429
738,7.38,0.973137,4.479468,-0.500362,-0.051071000000000005,0.41452,0.149506
739,7.39,0.7786770000000001,3.897671,-0.637883,0.13322400000000004,0.42303500000000005,0.12501500000000002
740,7.4,0.18150900000000006,3.295636,-0.59617,0.254669,0.564713,0.071747
741,7.41,-0.169026,3.105321,-0.614185,0.217377,0.668045,0.09730499999999999
742,7.42,0.641289,2.3432720000000002,0.17254099999999994,-0.008453000000000002,0.615845,0.149506
743,7.43,0.807552,1.29603,1.901011,-0.17996199999999998,0.484818,0.205963
744,7.44,0.928386,-0.13981,3.369247,-0.23642,0.439011,0.298645
745,7.45,0.36605,-1.5743,4.610569,-0.277969,0.450729,0.393448
746,7.46,-0.554511,-2.222912,5.199621,-0.31845100000000004,0.46777299999999994,0.509567
747,7.47,-1.203632,-1.885709,5.173033,-0.319519,0.46565200000000007,0.634201
748,7.48,-1.244947,-0.888546,4.289555,-0.23962399999999998,0.466721,0.672562
749,7.49,-1.369794,0.48249,3.136932,-0.12883,0.42623900000000003,0.6139680000000001
750,7.5,-2.037289,1.620227,2.4148650000000003,-0.061722000000000006,0.325027,0.47761499999999996
751,7.51,-3.027375,2.225664,2.204469,-0.044677999999999995,0.23129299999999997,0.34019499999999997
752,7.52,-3.279725,2.3538229999999998,2.411943,-0.075562,0.208923,0.202774
753,7.53,-3.106804,2.084867,2.583175,-0.140549,0.286682,0.061096000000000004
754,7.54,-2.128549,1.603316,2.565163,-0.190613,0.440079,-0.074188
755,7.55,-0.919904,0.958268,2.272207,-0.195938,0.604141,-0.212677
756,7.56,0.192155,0.287902,1.9082709999999998,-0.156525,0.721313,-0.323471
757,7.57,1.052563,-0.395365,1.5841809999999998,-0.08302300000000001,0.759659,-0.394836
758,7.58,1.591594,-0.997027,1.178146,-0.015915000000000002,0.71492,-0.43531800000000004
759,7.59,1.8590939999999998,-1.714117,1.047252,0.041611,0.582825,-0.437454
760,7.6,1.891002,-2.227244,0.81021,0.101273,0.41238400000000003,-0.40976
761,7.61,1.6238620000000001,-2.7543759999999997,0.363508,0.14813199999999999,0.238754,-0.37886
762,7.62,1.06074,-3.3620669999999997,-0.07593699999999999,0.15773,0.092804,-0.34903
763,7.63,0.657146,-3.851516,-0.510483,0.1492,0.003326000000000002,-0.34158299999999997
764,7.64,0.008253999999999984,-4.219088,-0.801925,0.099136,-0.06805399999999999,-0.351166
765,7.65,-0.598159,-4.432019,-0.848599,0.027771000000000004,-0.094681,-0.353302
766,7.66,-1.17213,-4.455953,-0.800794,-0.047867,-0.10426300000000001,-0.337311
767,7.67,-1.606942,-4.5280059999999995,-0.581862,-0.108597,-0.11598199999999999,-0.301102
768,7.68,-1.7855310000000002,-4.168747,-0.53479,-0.126694,-0.12344400000000001,-0.267014
769,7.69,-1.807121,-3.610924,-0.567398,-0.107529,-0.12558,-0.215881
770,7.7,-1.624334,-3.035123,-0.646545,-0.07449299999999999,-0.12451199999999998,-0.149826
771,7.71,-1.38984,-2.628347,-0.758795,-0.053191999999999996,-0.12451199999999998,-0.089111
772,7.72,-1.048441,-2.197752,-0.8492700000000001,-0.031891,-0.111725,-0.043304
773,7.73,-0.763261,-1.708119,-0.980519,-0.013779,-0.09787,-0.017730999999999997
774,7.74,-0.534844,-1.238546,-0.9415459999999999,0.017105000000000002,-0.08935499999999999,-0.0006870000000000001
775,7.75,-0.126863,-0.964802,-0.9308790000000001,0.07144199999999999,-0.102142,0.005707
776,7.76,0.06090000000000001,-0.6625260000000001,-0.9854959999999999,0.13003499999999998,-0.14688099999999998,0.022751
777,7.77,0.21628200000000003,-0.449416,-0.993399,0.185425,-0.218246,0.061096000000000004
778,7.78,0.272989,-0.282078,-1.188632,0.225906,-0.314117,0.11329700000000001
779,7.79,0.189493,-0.126091,-1.463811,0.233368,-0.416397,0.161224
780,7.8,0.151373,0.045343,-1.918653,0.20565799999999998,-0.485626,0.192123
781,7.81,0.064242,0.523424,-2.3801069999999998,0.14068599999999998,-0.526108,0.186798
782,7.82,-0.24780700000000003,1.457064,-2.8530189999999997,0.045868,-0.532501,0.147385
783,7.83,-0.5800390000000001,2.563286,-3.193268,-0.077698,-0.538895,0.087723
784,7.84,-0.974965,3.594896,-3.0739360000000002,-0.195938,-0.550613,0.020615
785,7.85,-1.4385569999999999,4.4568449999999995,-2.56526,-0.258789,-0.553802,-0.030518000000000007
786,7.86,-1.8877380000000001,5.121861,-1.79115,-0.238556,-0.553802,-0.05927999999999999
787,7.87,-2.299974,5.380614,-0.981317,-0.14268499999999998,-0.526108,-0.07206699999999999
788,7.88,-2.676279,5.100415,-0.482388,0.0043330000000000035,-0.464325,-0.065674
789,7.89,-3.1075,4.566604,-0.408163,0.180099,-0.36952199999999996,-0.044373
790,7.9,-3.254233,3.776475,-0.291851,0.324966,-0.245941,-0.013474000000000002
791,7.91,-2.870498,3.463392,-0.16958800000000002,0.359055,-0.170319,0.015288999999999999
792,7.92,-2.559327,3.4249970000000003,0.272796,0.21844499999999997,-0.18948399999999999,0.004638999999999999
793,7.93,-2.1582939999999997,3.3934480000000002,1.316769,-0.048935000000000006,-0.240616,-0.0070799999999999995
794,7.94,-1.603533,2.8503849999999997,2.7130419999999997,-0.28329499999999996,-0.25660700000000003,0.009964
795,7.95,-0.746977,1.840542,4.007425,-0.413254,-0.250214,0.002501999999999999
796,7.96,0.3658329999999999,0.30180100000000004,5.2746319999999995,-0.435623,-0.23422199999999999,-0.04009999999999999
797,7.97,1.8527639999999999,-0.464395,5.500821,-0.353607,-0.187363,-0.17965699999999998
798,7.98,2.564598,-0.741875,4.887044,-0.188477,-0.143677,-0.338379
799,7.99,3.222426,-0.6879270000000001,3.590699,0.028824,-0.06591799999999999,-0.43106099999999997
800,8.0,3.9508099999999997,-0.26237,2.323545,0.173706,-0.024368,-0.451294
801,8.01,4.32224,0.33684400000000003,1.466393,0.180099,-0.027573,-0.41294899999999995
802,8.02,4.2700510000000005,1.016591,1.260821,0.078903,-0.102142,-0.328796
803,8.03,3.537714,1.662348,1.4637040000000001,-0.056396,-0.250214,-0.215881
804,8.04,2.556423,1.8929369999999999,1.6624849999999998,-0.175705,-0.43663,-0.083786
805,8.05,1.32943,1.463322,1.707086,-0.22683699999999998,-0.623047,0.038727
806,8.06,-0.055806000000000015,0.826924,1.461194,-0.230026,-0.739166,0.147385
807,8.07,-1.113537,0.09446300000000002,1.397745,-0.20979299999999998,-0.787094,0.245377
808,8.08,-1.946965,-0.7375149999999999,1.448117,-0.16185,-0.7657930000000001,0.29652399999999995
809,8.09,-2.660172,-1.4642549999999999,1.485475,-0.083023,-0.695496,0.327408
810,8.1,-2.740201,-2.231331,1.478393,0.017104999999999995,-0.5900270000000001,0.34552
811,8.11,-2.658223,-2.608043,1.1250959999999999,0.09699999999999999,-0.467529,0.348709
812,8.12,-2.240397,-3.313014,0.6951470000000001,0.169449,-0.320511,0.348709
813,8.13,-1.51235,-3.8942050000000004,0.05247000000000002,0.20672600000000002,-0.187363,0.329544
814,8.14,-0.635409,-4.238111,-0.509239,0.217377,-0.071243,0.295456
815,8.15,0.186418,-4.580857,-0.9217120000000001,0.193939,0.010788,0.25709499999999996
816,8.16,0.798646,-4.703533,-1.229209,0.1492,0.071503,0.22728
817,8.17,1.322179,-4.545604,-1.40846,0.087418,0.12796,0.21235700000000002
818,8.18,1.641764,-4.222362,-1.405489,0.0064540000000000005,0.172699,0.188919
819,8.19,1.8716,-3.726312,-1.184023,-0.079834,0.201462,0.159103
820,8.2,1.854177,-2.99134,-0.8857309999999999,-0.140549,0.216385,0.11648599999999999
821,8.21,1.624752,-2.412793,-0.703333,-0.151199,0.212112,0.052566999999999996
822,8.22,1.256823,-2.12613,-0.641072,-0.143738,0.191879,-0.013474000000000002
823,8.23,0.917523,-1.8792919999999997,-0.504373,-0.12350499999999999,0.159912,-0.05927999999999999
824,8.24,0.679559,-1.6849180000000001,-0.5730729999999999,-0.085159,0.133286,-0.083786
825,8.25,0.621188,-1.54406,-0.762302,-0.042542,0.12796,-0.090179
826,8.26,0.621326,-1.355859,-1.06681,0.033096,0.13009600000000002,-0.09123200000000001
827,8.27,0.572163,-1.229184,-1.274155,0.086349,0.140747,-0.098694
828,8.28,0.45870500000000003,-0.9718100000000001,-1.418331,0.123642,0.163116,-0.111481
829,8.29,0.256103,-0.46153900000000003,-1.705443,0.151337,0.208923,-0.128525
830,8.3,0.10313599999999999,0.092787,-2.0542700000000003,0.1492,0.293076,-0.145569
831,8.31,0.136551,0.488785,-2.30241,0.12470999999999999,0.397476,-0.160477
832,8.32,0.18928299999999998,0.95258,-2.343186,0.060791,0.5008090000000001,-0.17965699999999998
833,8.33,-0.08548700000000001,1.589302,-2.179837,-0.018036000000000003,0.542343,-0.205231
834,8.34,-0.546722,2.352512,-2.0851900000000003,-0.094742,0.5327609999999999,-0.215881
835,8.35,-0.801561,3.036532,-1.8863509999999999,-0.186356,0.53595,-0.191376
836,8.36,-0.575042,3.676933,-1.5631620000000002,-0.28009,0.591354,-0.154083
837,8.37,-0.08729700000000001,4.328457,-1.305709,-0.331223,0.665924,-0.112549
838,8.38,0.42223,4.767539,-1.005352,-0.315247,0.7032010000000001,-0.079529
839,8.39,0.8456969999999999,4.8284400000000005,-0.8482120000000001,-0.228958,0.691483,-0.058212
840,8.4,0.8559950000000001,4.675053,-0.851089,-0.09367400000000001,0.6126560000000001,-0.058212
841,8.41,0.9312520000000001,4.252926,-0.45156899999999994,0.041611,0.549805,-0.088043
842,8.42,-0.003276999999999975,4.31531,-0.466971,0.11511199999999999,0.5327609999999999,-0.11361700000000001
843,8.43,-0.296055,4.421775,-0.117487,-0.0009920000000000068,0.464584,-0.058212
844,8.44,0.662729,4.399446,1.578244,-0.204468,0.35379,-0.00708
845,8.45,1.274822,3.912265,3.662119,-0.272644,0.219574,0.061096000000000004
846,8.46,1.4292340000000001,2.441047,5.579584,-0.246002,0.08001699999999999,0.188919
847,8.47,0.8704399999999999,0.954565,6.5465160000000004,-0.198074,-0.049942,0.349777
848,8.48,0.225131,-0.311686,6.133973999999999,-0.103256,-0.102142,0.535141
849,8.49,0.154521,-1.206691,4.856073,0.078903,-0.008391999999999997,0.669357
850,8.5,-0.185211,-1.642266,3.198777,0.28022800000000003,0.14819300000000002,0.680008
851,8.51,-0.979526,-1.7101540000000002,1.558392,0.395279,0.27284200000000003,0.5777439999999999
852,8.52,-1.859186,-1.214472,0.895457,0.37397800000000003,0.327164,0.421158
853,8.53,-2.531171,-0.47813100000000003,0.748851,0.240814,0.27603099999999997,0.261368
854,8.54,-2.808106,0.465104,0.79583,0.032027999999999994,0.187622,0.102646
855,8.55,-2.512263,1.18618,0.804138,-0.216187,0.153534,-0.049698
856,8.56,-1.7135779999999998,1.4908489999999999,1.403918,-0.403671,0.184418,-0.163681
857,8.57,-0.53546,1.393282,1.9835459999999998,-0.461197,0.24940500000000002,-0.24144000000000002
858,8.58,0.8262280000000001,0.6652319999999999,2.562753,-0.32057199999999997,0.327164,-0.309616
859,8.59,1.345642,-0.15685699999999994,2.374726,-0.14161700000000002,0.333557,-0.31601
860,8.6,1.5627149999999999,-1.0802399999999999,1.8794520000000001,0.032028000000000015,0.292007,-0.31282
861,8.61,1.526498,-1.9326889999999999,1.190237,0.168381,0.225967,-0.300034
862,8.62,1.419449,-2.827362,0.542325,0.259995,0.145004,-0.284058
863,8.63,1.034586,-3.755211,0.04692099999999999,0.322845,0.088547,-0.281921
864,8.64,0.726589,-4.759816000000001,-0.488575,0.33989,0.055527,-0.31494099999999997
865,8.65,0.04377599999999998,-5.438042,-0.843944,0.285553,0.022507,-0.351166
866,8.66,-0.553401,-5.638780000000001,-1.017441,0.18649300000000002,0.00119,-0.371399
867,8.67,-1.152213,-5.6757029999999995,-1.074187,0.081024,-0.011597,-0.372467
868,8.68,-1.3022200000000002,-5.540765,-1.146161,-0.027633999999999995,-0.021179,-0.357559
869,8.69,-1.595184,-5.007969999999999,-0.990823,-0.140549,-0.045685,-0.325592
870,8.7,-1.810269,-4.081162,-0.710856,-0.212982,-0.069107,-0.270203
871,8.71,-1.750105,-3.057802,-0.35925100000000004,-0.224701,-0.06805399999999999,-0.190308
872,8.72,-1.480173,-2.01619,-0.101992,-0.173569,-0.052063,-0.124268
873,8.73,-1.3824020000000001,-1.254229,0.01976,-0.09793099999999999,-0.025436,-0.073135
874,8.74,-1.176871,-0.696205,0.028687999999999998,-0.008453000000000002,0.011840999999999999,-0.028397000000000002
875,8.75,-1.049725,-0.269397,-0.07800399999999999,0.095947,0.055526999999999986,0.0014339999999999995
876,8.76,-0.785276,-0.209081,-0.5288390000000001,0.20993,0.093872,0.019547
877,8.77,-0.48458100000000004,-0.191348,-0.783706,0.312195,0.09600800000000001,0.016357
878,8.78,-0.245666,-0.282158,-1.058331,0.387817,0.04274,0.023804
879,8.79,-0.155611,-0.411525,-1.420512,0.42511000000000004,-0.028641000000000007,0.069611
880,8.8,-0.061770000000000005,-0.517817,-1.859343,0.41125500000000004,-0.100006,0.142059
881,8.81,0.015049999999999994,-0.45976000000000006,-2.274989,0.359055,-0.138351,0.214493
882,8.82,0.273255,-0.341721,-2.80084,0.269577,-0.178833,0.25816300000000003
883,8.83,0.47952700000000004,0.17994300000000002,-3.169391,0.153473,-0.241684,0.256042
884,8.84,0.44695,1.148203,-3.2979839999999996,0.008591000000000001,-0.329041,0.214493
885,8.85,0.236765,2.475311,-3.018227,-0.134155,-0.430237,0.138855
886,8.86,-0.223996,3.837415,-2.482397,-0.220444,-0.50267,0.060028
887,8.87,-0.671496,5.0094,-1.742216,-0.20979299999999998,-0.535706,-0.003890999999999999
888,8.88,-1.162776,5.85427,-1.064123,-0.090485,-0.549545,-0.026260000000000002
889,8.89,-1.8031080000000002,5.998631,-0.5327689999999999,0.08528100000000001,-0.5303800000000001,-0.028397000000000002
890,8.9,-2.485019,5.44844,-0.340109,0.25892600000000005,-0.468582,-0.020935
891,8.91,-3.049893,4.481647,-0.529035,0.419785,-0.373779,-0.016678
892,8.92,-3.3555230000000003,3.2805480000000005,-0.869661,0.5699770000000001,-0.289627,-0.008148
893,8.93,-3.2816349999999996,1.994348,-1.079793,0.68396,-0.22784400000000002,0.012085
894,8.94,-2.147965,0.9846530000000001,-0.636418,0.686096,-0.207596,0.034454000000000005
895,8.95,-1.444695,0.480968,0.8919790000000001,0.255737,-0.353546,-0.013474000000000002
896,8.96,-0.667848,-0.04549700000000001,2.5421,-0.16398599999999994,-0.468582,-0.0070799999999999995
897,8.97,0.430443,-0.6471210000000001,3.986818,-0.41539,-0.506943,-0.028397000000000002
898,8.98,2.142521,-1.4444,5.113096,-0.378098,-0.13942000000000002,-0.322403
899,8.99,2.302686,-0.685945,4.285639,-0.240677,0.071503,-0.5674130000000001
900,9.0,1.702015,0.5449160000000001,3.199559,-0.089417,0.19081099999999998,-0.685654
901,9.01,1.807891,1.951053,2.525553,0.010727,0.26112399999999997,-0.63559
902,9.02,2.342882,2.894951,2.470208,0.019241,0.299469,-0.49391199999999996
903,9.03,2.962901,3.428544,2.8524119999999997,-0.050003,0.223831,-0.331985
904,9.04,3.017411,3.7691199999999996,3.225216,-0.139481,0.0011899999999999964,-0.15196199999999999
905,9.05,2.13382,3.585321,3.2559080000000002,-0.190613,-0.31092800000000004,0.037659
906,9.06,1.239971,2.981839,2.595555,-0.187424,-0.597488,0.21981799999999999
907,9.07,0.598715,1.954093,1.866787,-0.124573,-0.760468,0.357239
908,9.08,-0.020083000000000076,1.085479,1.326843,-0.022307999999999998,-0.7849729999999999,0.43820200000000004
909,9.09,-0.469001,-0.09464500000000008,1.0057040000000002,0.09699999999999999,-0.722122,0.459503
910,9.1,-0.7417050000000001,-1.030051,0.80705,0.197144,-0.624115,0.426483
911,9.11,-1.135462,-1.958796,0.46250399999999997,0.25892600000000005,-0.532501,0.36788899999999997
912,9.12,-1.3046309999999999,-2.906184,0.136267,0.274902,-0.45260600000000006,0.30503800000000003
913,9.13,-1.379864,-3.5005089999999996,-0.321186,0.23016399999999998,-0.371643,0.272018
914,9.14,-0.82634,-4.0054050000000005,-0.653774,0.176895,-0.27684000000000003,0.253906
915,9.15,-0.209999,-4.484525,-0.981915,0.12043800000000002,-0.202271,0.223007
916,9.16,0.287561,-4.903126,-1.1911690000000001,0.056534,-0.152206,0.21235700000000002
917,9.17,0.634918,-5.31105,-1.2460209999999998,-0.008453000000000002,-0.1064,0.216629
918,9.18,1.051145,-5.370215,-1.1360729999999999,-0.060654,-0.079773,0.22728
919,9.19,1.379011,-5.1755260000000005,-0.970469,-0.09581,-0.061661,0.220886
920,9.2,1.65828,-4.8269839999999995,-0.8827530000000001,-0.10646099999999999,-0.06805399999999999,0.186798
921,9.21,1.5795,-4.365659,-0.8768239999999999,-0.11604300000000001,-0.091476,0.11969
922,9.22,1.313004,-3.892907,-0.806986,-0.121368,-0.11065699999999999,0.053635
923,9.23,0.9130510000000001,-3.453617,-0.8636790000000001,-0.11711099999999999,-0.098938,-0.006012
924,9.24,0.526454,-2.9771810000000003,-0.9366180000000001,-0.12243699999999999,-0.05101,-0.05927999999999999
925,9.25,0.199271,-2.4808689999999998,-1.092325,-0.144806,0.033157,-0.096573
926,9.26,-0.023815000000000003,-2.058328,-1.1338110000000001,-0.178894,0.154587,-0.13385
927,9.27,-0.207796,-1.644361,-1.0385870000000001,-0.192749,0.29628000000000004,-0.170074
928,9.28,-0.398999,-1.149644,-0.967722,-0.165054,0.42836,-0.204163
929,9.29,-0.56094,-0.549197,-0.930896,-0.09474199999999999,0.527435,-0.226532
930,9.3,-0.6470859999999999,0.14618999999999996,-1.1991290000000001,-0.0009919999999999998,0.581757,-0.22332800000000003
931,9.31,-0.419789,0.767804,-1.543635,0.084229,0.584961,-0.202026
932,9.32,-0.125381,1.203893,-1.752028,0.127899,0.529572,-0.161545
933,9.33,0.22633000000000003,1.77099,-1.745585,0.110855,0.453934,-0.11573800000000001
934,9.34,0.581024,2.435029,-1.651202,0.057587,0.391083,-0.07206699999999999
935,9.35,0.748939,3.095149,-1.525932,-0.023361,0.379364,-0.034775
936,9.36,0.942674,3.6397779999999997,-1.4118389999999998,-0.11071800000000001,0.421967,-0.0017549999999999994
937,9.37,1.134525,4.192792,-1.385646,-0.189545,0.495483,0.01741
938,9.38,1.193191,4.562811,-1.453243,-0.237488,0.544479,0.019547
939,9.39,1.000497,4.6852849999999995,-1.525725,-0.23216199999999998,0.533829,0.002501999999999999
940,9.4,0.516634,5.031034,-1.7247880000000002,-0.171432,0.46777299999999994,-0.0006870000000000001
941,9.41,0.09136900000000003,4.651521,-1.8140740000000002,-0.065979,0.396408,-0.0070799999999999995
942,9.42,-0.161977,3.99166,-1.373637,0.02349900000000001,0.372971,-0.013474000000000002
943,9.43,-0.9218200000000001,3.993666,-1.0395370000000002,0.085281,0.47949200000000003,-0.032654
944,9.44,-0.652874,4.271123,-0.43973500000000004,0.013915999999999998,0.48376499999999995,0.012085
945,9.45,0.6772859999999999,4.167439,0.759522,-0.124573,0.3815,0.06642200000000001
946,9.46,1.3794879999999998,3.281471,2.262195,-0.172501,0.248337,0.142059
947,9.47,1.8045369999999998,1.6764710000000005,3.8424660000000004,-0.159729,0.164185,0.2603
948,9.48,1.570661,-0.03741000000000005,5.1062769999999995,-0.15545699999999998,0.192947,0.362564
949,9.49,0.76175,-1.246377,5.886737999999999,-0.132019,0.236618,0.488266
950,9.5,-0.0011939999999999726,-1.818528,5.709505,-0.038284,0.285614,0.6448520000000001
951,9.51,-0.126633,-1.561256,4.293181,0.09806799999999999,0.327164,0.73114
952,9.52,-0.259723,-0.795826,2.393826,0.18756099999999998,0.286682,0.684265
953,9.53,-0.9081739999999999,0.28023600000000004,1.126745,0.165176,0.158859,0.553238
954,9.54,-1.8768240000000003,1.291988,0.581228,0.046936000000000005,-0.024368,0.401978
955,9.55,-2.609601,2.05036,1.068757,-0.132019,-0.154327,0.263489
956,9.56,-2.684413,2.581974,1.889603,-0.274765,-0.160721,0.129272
957,9.57,-2.047671,2.547283,2.565136,-0.342941,-0.08403,-0.016678
958,9.58,-0.930233,1.8851360000000001,2.830532,-0.31205700000000003,0.051254,-0.157288
959,9.59,0.11015600000000003,0.9627690000000001,2.766003,-0.191681,0.180161,-0.286179
960,9.6,0.78895,-0.11964000000000002,2.265432,-0.010590000000000002,0.2771,-0.369278
961,9.61,1.201074,-1.1932610000000001,1.6388470000000002,0.155594,0.309052,-0.42573500000000003
962,9.62,1.4884709999999999,-2.238282,0.9016,0.277039,0.255798,-0.43531800000000004
963,9.63,1.81637,-3.224777,0.335032,0.354797,0.11731,-0.406555
964,9.64,2.28819,-4.309437,-0.28970999999999997,0.380371,-0.039291000000000006,-0.396973
965,9.65,1.936757,-5.052606,-1.092263,0.32603499999999996,-0.19801300000000002,-0.40976
966,9.66,1.2211049999999999,-5.318983,-1.4261030000000001,0.188614,-0.303467,-0.386322
967,9.67,0.707883,-5.524036,-1.482679,0.06823699999999999,-0.358871,-0.37886
968,9.68,0.102225,-5.647096,-1.400974,-0.036148,-0.390823,-0.372467
969,9.69,-0.652261,-5.598459,-1.0975840000000001,-0.119247,-0.41851800000000006,-0.356491
970,9.7,-1.379333,-4.967074,-0.8304600000000001,-0.191681,-0.437698,-0.31601
971,9.71,-1.901734,-4.088118,-0.5959369999999999,-0.235352,-0.435562,-0.24569699999999997
972,9.72,-2.154693,-3.096063,-0.36904499999999996,-0.228958,-0.420654,-0.17219500000000001
973,9.73,-2.139288,-2.294784,-0.16456700000000002,-0.171432,-0.402542,-0.090179
974,9.74,-1.889055,-1.473484,-0.134892,-0.06704700000000001,-0.381241,-0.047562
975,9.75,-1.756402,-1.151465,-0.122551,0.035217,-0.349274,-0.023056
976,9.76,-1.4701229999999998,-1.003447,-0.201902,0.114044,-0.294952,-0.006012
977,9.77,-1.100875,-0.9283680000000001,-0.307032,0.193939,-0.223572,-0.004959000000000001
978,9.78,-0.591711,-0.8653420000000001,-0.511109,0.295151,-0.144745,-0.025192
979,9.79,-0.164804,-0.9267219999999999,-0.907164,0.41020200000000007,-0.080826,-0.049698
980,9.8,-0.050546,-1.0692959999999998,-1.4959,0.47731,-0.040344,-0.05927999999999999
981,9.81,-0.136186,-0.8294309999999999,-1.9289330000000002,0.507141,-0.0030670000000000003,-0.023056
982,9.82,-0.596039,-0.410801,-2.464413,0.49221800000000004,0.027832,0.055771
983,9.83,-1.1012170000000001,0.07180800000000001,-3.075638,0.43150299999999997,0.041672,0.140991
984,9.84,-1.634236,0.5637270000000001,-3.420813,0.328171,0.019302,0.188919
985,9.85,-1.9075229999999999,1.257668,-3.339075,0.19500699999999999,-0.055267,0.210236
986,9.86,-1.9400060000000001,2.183478,-3.237015,0.058655,-0.147949,0.191055
987,9.87,-1.658997,3.022208,-2.967816,-0.07662999999999999,-0.231033,0.153778
988,9.88,-1.349305,3.6406199999999997,-2.380577,-0.169312,-0.28323400000000004,0.109024
989,9.89,-0.911257,4.143796,-1.8165,-0.177826,-0.327972,0.076004
990,9.9,-0.591734,4.577153,-1.4173719999999999,-0.111786,-0.337555,0.046173
991,9.91,-0.259466,4.775104,-1.15685,-0.011658000000000002,-0.305603,0.013152999999999998
992,9.92,-0.346543,4.648334999999999,-0.851017,0.11085499999999998,-0.25660700000000003,-0.013474000000000002
993,9.93,-0.635206,4.3731029999999995,-0.804493,0.255737,-0.167114,-0.029449
994,9.94,-1.129024,3.81437,-0.513588,0.39209,-0.056335,-0.039047000000000005
995,9.95,-1.2530290000000002,3.6354379999999997,-0.188223,0.43362399999999995,0.021439,-0.050766000000000006
996,9.96,-1.55584,3.5725,0.587997,0.291946,-0.023300000000000005,-0.10508699999999999
997,9.97,-1.706924,3.423251,2.242803,0.02563499999999999,-0.09787,-0.134918
998,9.98,-1.7602209999999998,2.8925009999999998,3.999851,-0.152267,-0.041412,-0.148758
999,9.99,-1.635294,1.568151,5.433076,-0.22683699999999998,0.068298,-0.22013899999999997
1000,10.0,-0.427379,0.25513300000000005,6.014772,-0.221512,0.089615,-0.38205
1001,10.01,0.14820500000000006,-0.40074699999999996,5.43538,-0.13841199999999998,0.031020999999999996,-0.546112
1002,10.02,1.027316,-0.625273,4.280032,0.06930499999999999,-0.004135000000000001,-0.6015010000000001
1003,10.03,2.4934119999999997,-0.455399,2.738312,0.282364,0.002258,-0.579132
1004,10.04,3.896406,-0.10335,1.5593549999999998,0.332428,0.003326,-0.484329
1005,10.05,5.013644,0.466025,1.0915059999999999,0.222702,-0.071243,-0.327728
1006,10.06,5.562533,1.099607,1.181167,0.049072000000000005,-0.258728,-0.163681
1007,10.07,5.015069,1.4346370000000002,1.110175,-0.110718,-0.5186609999999999,-0.013474000000000014
1008,10.08,3.565784,1.241775,1.037353,-0.243881,-0.758347,0.122879
1009,10.09,1.67802,0.964261,1.091879,-0.313126,-0.903214,0.24005100000000001
1010,10.1,0.09902600000000006,0.575882,1.524636,-0.31845100000000004,-0.942627,0.31143200000000004
1011,10.11,-1.2403429999999998,0.267958,1.8748040000000001,-0.2556,-0.885101,0.335938
1012,10.12,-2.169995,-0.223206,1.9157549999999999,-0.14694200000000002,-0.768997,0.315689
1013,10.13,-2.938447,-0.721251,1.9236919999999997,-0.031891,-0.640091,0.308228
1014,10.14,-3.293617,-1.369726,1.606499,0.06930499999999999,-0.503738,0.32634
1015,10.15,-2.9755700000000003,-2.22215,1.1636959999999998,0.147079,-0.362061,0.346588
1016,10.16,-2.245162,-3.063532,0.528752,0.217377,-0.23210100000000003,0.355103
1017,10.17,-1.157986,-3.667714,-0.098969,0.25679,-0.13942000000000002,0.356171
1018,10.18,-0.14172600000000002,-4.386302,-0.718496,0.26318400000000003,-0.071243,0.35936
1019,10.19,0.602345,-4.9318290000000005,-1.2216639999999999,0.244019,-0.033966,0.35936
1020,10.2,1.153583,-5.195199,-1.364087,0.18756099999999998,-0.011597,0.36788899999999997
1021,10.21,1.499566,-5.178221,-1.3530719999999998,0.128967,0.0043950000000000005,0.368958
1022,10.22,1.6957209999999998,-4.733994,-1.2714860000000001,0.060791,0.015045,0.349777
1023,10.23,1.8980990000000002,-4.076258999999999,-1.214297,-0.016983,0.018234,0.29438800000000004
1024,10.24,1.7767279999999999,-3.3298919999999996,-1.116903,-0.090485,0.027832,0.197449
1025,10.25,1.522203,-2.739048,-1.0564559999999998,-0.149063,0.054459,0.09730499999999999
1026,10.26,1.13622,-2.347139,-1.014235,-0.190613,0.10240199999999999,0.002501999999999997
1027,10.27,0.772929,-2.115914,-1.099636,-0.221512,0.153534,-0.068863
1028,10.28,0.472029,-1.8040650000000003,-1.038239,-0.238556,0.198273,-0.076324
1029,10.29,0.20983200000000002,-1.657246,-1.1560629999999998,-0.195938,0.250473,-0.10082999999999999
1030,10.3,0.004549999999999999,-1.35715,-1.163463,-0.144806,0.27603099999999997,-0.11467000000000001
1031,10.31,-0.165265,-0.9568610000000001,-1.285179,-0.069168,0.281357,-0.135986
1032,10.32,-0.215423,-0.526075,-1.424733,0.0075229999999999984,0.28775,-0.156219
1033,10.33,-0.25961100000000004,-0.13393799999999995,-1.687202,0.057587,0.31864899999999996,-0.160477
1034,10.34,-0.18474100000000002,0.08619299999999999,-1.820758,0.06930499999999999,0.39534,-0.154083
1035,10.35,-0.16395,0.406864,-1.990229,0.060791,0.521042,-0.148758
1036,10.36,-0.162546,1.140463,-2.1767279999999998,0.034149,0.649933,-0.147705
1037,10.37,-0.325375,1.9508580000000002,-2.380254,-0.016983,0.720245,-0.147705
1038,10.38,-0.315053,2.815295,-2.359222,-0.086212,0.7415470000000001,-0.135986
1039,10.39,-0.11944,3.449575,-2.027675,-0.168243,0.739426,-0.11467000000000001
1040,10.4,0.32159299999999996,4.034552,-1.467782,-0.241745,0.724503,-0.080582
1041,10.41,0.833808,4.501396,-1.071008,-0.276901,0.7415470000000001,-0.029449
1042,10.42,1.299587,4.6526309999999995,-1.00167,-0.246002,0.740494,0.030197
1043,10.43,1.519223,4.43176,-0.862036,-0.16078199999999998,0.666977,0.06749
1044,10.44,0.9723280000000001,4.379068,-0.1373439999999999,-0.039352,0.624374,0.054702999999999995
1045,10.45,-0.16798699999999994,5.198745,-0.200676,0.05014,0.619049,0.071747
1046,10.46,0.08666699999999998,5.840381,0.317515,-0.046799,0.47843900000000006,0.12181099999999999
1047,10.47,1.340494,5.671988,2.0871310000000003,-0.135223,0.24408000000000002,0.161224
1048,10.48,2.136527,5.071671,3.648569,-0.065979,0.04806500000000001,0.245377
1049,10.49,2.767752,3.765769,4.586428,-0.072372,-0.102142,0.37854
1050,10.5,1.8574870000000003,1.821591,5.636299,-0.188477,-0.18629500000000002,0.5106350000000001
1051,10.51,0.3462200000000001,0.2957700000000001,5.83094,-0.23216199999999998,-0.12558,0.6651
1052,10.52,-0.284377,-0.7247239999999999,5.0068779999999995,-0.098999,0.013977000000000005,0.771622
1053,10.53,-1.0211860000000001,-1.457802,3.281654,0.13536099999999998,0.083221,0.762039
1054,10.54,-1.943342,-1.792082,1.511012,0.272781,0.07257100000000001,0.650177
1055,10.55,-2.596753,-1.391659,0.572986,0.269577,0.036345999999999996,0.484009
1056,10.56,-2.928804,-0.400882,0.459767,0.159851,0.0043950000000000005,0.298645
1057,10.57,-2.971348,0.597529,0.518005,-0.02336100000000001,-0.016922,0.11969
1058,10.58,-2.762101,1.103819,0.5872689999999999,-0.225769,0.005463000000000001,-0.04223600000000001
1059,10.59,-1.225218,0.8214670000000001,1.15275,-0.446274,0.14393599999999998,-0.22013899999999997
1060,10.6,-0.08686899999999997,0.282738,1.566426,-0.47824099999999997,0.282425,-0.323471
1061,10.61,0.805225,-0.42986199999999997,2.038545,-0.42497299999999993,0.370834,-0.38205
1062,10.62,1.47243,-1.024678,2.0108479999999997,-0.30885300000000004,0.404922,-0.43638599999999994
1063,10.63,1.3953,-1.8303880000000001,1.8592650000000002,-0.17038,0.38255300000000003,-0.460892
1064,10.64,1.304122,-2.513847,1.550748,-0.02230800000000001,0.286682,-0.43638599999999994
1065,10.65,1.1649450000000001,-3.2940089999999995,1.028341,0.112991,0.164185,-0.396973
1066,10.66,1.0554569999999999,-4.2551120000000004,0.48178000000000004,0.224838,0.052322,-0.367142
1067,10.67,0.364523,-4.910947,-0.24772399999999997,0.252533,-0.031830000000000004,-0.34584000000000004
1068,10.68,-0.017017000000000004,-5.242491,-0.694929,0.217377,-0.069107,-0.31494099999999997
1069,10.69,-0.43983999999999995,-5.383064,-0.867014,0.142807,-0.10746800000000001,-0.291504
1070,10.7,-0.696768,-5.250852,-0.9830270000000001,0.059723000000000005,-0.141556,-0.267014
1071,10.71,-1.146892,-4.7881290000000005,-1.033034,-0.032958999999999995,-0.179901,-0.237183
1072,10.72,-1.5017049999999998,-4.192219000000001,-1.003825,-0.11817899999999999,-0.21398899999999998,-0.200958
1073,10.73,-1.800646,-3.344925,-0.9602069999999999,-0.166107,-0.231033,-0.160477
1074,10.74,-1.714329,-2.434659,-0.817388,-0.154388,-0.22677600000000003,-0.12213099999999999
1075,10.75,-1.5892950000000001,-1.591316,-0.685656,-0.086212,-0.19162,-0.102951
1076,10.76,-1.343206,-1.155707,-0.40117800000000003,0.01178,-0.13409400000000002,-0.09123200000000001
1077,10.77,-1.184099,-0.687786,-0.446453,0.11511199999999999,-0.046738,-0.08590700000000001
1078,10.78,-1.049088,-0.291621,-0.602567,0.222702,0.052322,-0.08165
1079,10.79,-0.937794,-0.09246,-1.111412,0.324966,0.129028,-0.074188
1080,10.8,-0.774875,0.12445,-1.369691,0.400604,0.164185,-0.061417
1081,10.81,-0.6965319999999999,0.24460700000000002,-1.811616,0.45706199999999997,0.154587,-0.016678
1082,10.82,-0.737729,0.185113,-2.0520150000000004,0.45919799999999994,0.115173,0.06428500000000001
1083,10.83,-0.785224,-0.056672,-2.292769,0.41658,0.036345999999999996,0.147385
1084,10.84,-0.771045,-0.3467,-2.620398,0.33989,-0.0755,0.216629
1085,10.85,-0.504267,-0.506976,-3.005641,0.22376999999999997,-0.179901,0.245377
1086,10.86,-0.197192,-0.12111400000000001,-3.315897,0.07569899999999999,-0.29281599999999997,0.22195399999999998
1087,10.87,-0.02393800000000001,0.712952,-3.488524,-0.10965,-0.40467800000000004,0.151642
1088,10.88,0.07759400000000001,1.9077560000000002,-3.142023,-0.30140700000000004,-0.49415600000000004,0.07067899999999999
1089,10.89,-0.06349500000000001,3.310651,-2.462772,-0.41218599999999994,-0.5154569999999999,0.024872
1090,10.9,-0.26706799999999997,4.518572,-1.661772,-0.400467,-0.500549,0.025939999999999998
1091,10.91,-0.842418,5.4975,-0.536071,-0.175705,-0.46646099999999996,0.040848
1092,10.92,-1.492504,5.377537,-0.260374,0.026703000000000005,-0.43344099999999997,0.049377
1093,10.93,-2.392949,4.866295,-0.18068199999999998,0.22697399999999998,-0.37059000000000003,0.044052
1094,10.94,-3.112922,4.076679,-0.532768,0.419785,-0.27684000000000003,0.024872
1095,10.95,-3.2161299999999997,3.100718,-0.7383390000000001,0.561462,-0.185226,0.0014340000000000006
1096,10.96,-2.640448,2.382781,-0.49702399999999997,0.5880890000000001,-0.162857,-0.013474000000000002
1097,10.97,-2.259468,2.054624,-0.018208,0.391022,-0.265121,-0.063538
1098,10.98,-1.9714470000000002,1.577782,1.2552649999999999,0.01710500000000001,-0.31839,-0.068863
1099,10.99,-1.669473,0.8595,2.945553,-0.30885300000000004,-0.254471,-0.043304
1100,11.0,-1.20638,-0.206722,4.6472690000000005,-0.517654,-0.12451199999999998,-0.065674
1101,11.01,-0.02662100000000001,-0.835929,5.748337,-0.616714,0.056594999999999986,-0.18605
1102,11.02,1.209352,-0.723083,5.975512999999999,-0.586899,0.212112,-0.407623
1103,11.03,1.661732,-0.16984900000000006,5.394413,-0.382355,0.317581,-0.574875
1104,11.04,3.271929,1.3391170000000001,2.660644,0.101273,0.44647200000000004,-0.552505
1105,11.05,4.358468,1.9578369999999998,2.069886,0.13003499999999998,0.439011,-0.424667
1106,11.06,4.9405269999999994,2.4032720000000003,2.230439,0.040543,0.29628000000000004,-0.272339
1107,11.07,4.650256,2.638411,2.296201,-0.06279,0.016112999999999992,-0.11361700000000001
1108,11.08,3.072881,2.454684,1.969811,-0.152267,-0.372711,0.03979500000000001
1109,11.09,1.208291,1.7560069999999999,1.4156520000000001,-0.22258000000000003,-0.655014,0.210236
1110,11.1,-0.390404,0.893076,0.9414399999999999,-0.240677,-0.7753909999999999,0.33699
1111,11.11,-1.285783,-0.14831100000000005,0.816643,-0.211914,-0.742355,0.404114
1112,11.12,-2.119964,-1.030123,0.9445709999999999,-0.14268499999999998,-0.628372,0.42008999999999996
1113,11.13,-2.589207,-1.7365259999999998,0.968266,-0.05851699999999999,-0.493088,0.406235
1114,11.14,-2.5540380000000003,-2.4331959999999997,0.9078430000000001,0.022446000000000004,-0.345016,0.38706999999999997
1115,11.15,-2.189188,-3.147302,0.540967,0.088486,-0.211853,0.355103
1116,11.16,-1.482975,-3.754683,-0.102119,0.102341,-0.093613,0.32847600000000005
1117,11.17,-0.665154,-4.080794999999999,-0.5894050000000001,0.10553,0.017165999999999994,0.28160100000000005
1118,11.18,0.163177,-4.47515,-1.089901,0.089554,0.107727,0.252838
1119,11.19,0.667391,-4.8393489999999995,-1.357872,0.04907199999999999,0.189743,0.24964899999999998
1120,11.2,1.159517,-4.870547,-1.498948,0.0075229999999999984,0.23555,0.247513
1121,11.21,1.497682,-4.62498,-1.519711,-0.044677999999999995,0.25473,0.233673
1122,11.22,1.709452,-4.252130999999999,-1.442041,-0.092606,0.265381,0.202774
1123,11.23,1.7203549999999999,-3.695529,-1.267988,-0.13308699999999998,0.267517,0.149506
1124,11.24,1.5090459999999999,-2.970491,-1.033555,-0.159729,0.266449,0.109024
1125,11.25,1.115848,-2.512641,-0.893336,-0.144806,0.279221,0.050446
1126,11.26,0.766151,-2.085632,-0.861941,-0.158661,0.303726,-0.0017549999999999994
1127,11.27,0.477656,-1.8005740000000001,-0.886315,-0.163986,0.341019,-0.037979
1128,11.28,0.186428,-1.5311059999999999,-1.0225540000000002,-0.17038,0.397476,-0.055023
1129,11.29,-0.002986999999999997,-1.347162,-1.142045,-0.158661,0.45819099999999996,-0.07206699999999999
1130,11.3,-0.079891,-1.227402,-1.261474,-0.119247,0.505066,-0.102951
1131,11.31,-0.204246,-0.938999,-1.435684,-0.055327999999999995,0.540222,-0.134918
1132,11.32,-0.248962,-0.551229,-1.72715,0.010726999999999995,0.5657810000000001,-0.147705
1133,11.33,-0.21246199999999998,-0.08983899999999997,-2.008038,0.062912,0.589218,-0.146637
1134,11.34,0.013749000000000013,0.184702,-2.1507680000000002,0.093811,0.598801,-0.127457
1135,11.35,0.475747,0.520123,-2.111585,0.088486,0.582825,-0.09336900000000001
1136,11.36,0.80777,0.9410709999999999,-2.009616,0.05014,0.5231779999999999,-0.070999
1137,11.37,0.976736,1.70225,-1.90485,-0.007384999999999998,0.42303500000000005,-0.055023
1138,11.38,1.0039,2.40896,-1.607772,-0.06704700000000001,0.337814,-0.029449
1139,11.39,1.3205959999999999,3.105828,-1.2475450000000001,-0.135223,0.27603099999999997,-0.0006870000000000001
1140,11.4,1.72177,3.8967660000000004,-0.8790399999999999,-0.197006,0.252594,0.011032
1141,11.41,2.187766,4.772285,-0.616104,-0.22258000000000003,0.27603099999999997,0.033401
1142,11.42,2.3212189999999997,5.376915,-0.494126,-0.169312,0.300537,0.041916
1143,11.43,1.9342529999999998,5.426418,-0.7594569999999999,-0.029755000000000007,0.27816799999999997,0.028076
1144,11.44,1.317926,4.937718,-1.1813770000000001,0.141754,0.208923,-0.0006870000000000001
1145,11.45,0.69479,4.222451,-1.594036,0.285553,0.104523,-0.034775
1146,11.46,-0.08054400000000006,3.576081,-1.696741,0.37397800000000003,0.076828,-0.08590700000000001
1147,11.47,-0.657828,3.44949,-1.651621,0.31858800000000004,0.071503,-0.055023
1148,11.48,-0.059975,2.934369,-0.5304300000000001,0.07037400000000002,-0.057388,0.014220999999999998
1149,11.49,0.692994,2.086058,1.309893,-0.12243700000000003,-0.216125,0.114349
1150,11.5,0.764357,0.619312,2.973643,-0.21086100000000002,-0.26405300000000004,0.25177
1151,11.51,0.446542,-0.7127180000000001,4.331768,-0.258789,-0.247009,0.405167
1152,11.52,-0.34954300000000005,-1.2599280000000002,5.2056830000000005,-0.273712,-0.245941,0.5734859999999999
1153,11.53,-0.512053,-1.020723,5.1969389999999995,-0.21405,-0.145813,0.72049
1154,11.54,0.09654700000000002,-0.226346,4.416396,-0.083023,-0.024368,0.729019
1155,11.55,0.07954800000000001,0.7740549999999999,3.40769,0.054398000000000016,-0.046738,0.5777439999999999
1156,11.56,-1.146316,1.518512,2.937932,0.106598,-0.162857,0.362564
1157,11.57,-2.453496,2.177775,2.895469,0.09487899999999999,-0.319458,0.205963
1158,11.58,-2.857185,2.676475,2.9180759999999997,0.06504800000000001,-0.395081,0.07814
1159,11.59,-2.899731,2.8104310000000003,2.65124,-0.0020599999999999998,-0.32264699999999996,-0.046494000000000014
1160,11.6,-2.267962,2.273231,2.257774,-0.083023,-0.154327,-0.167938
1161,11.61,-1.315763,1.482105,1.934118,-0.104324,0.034210000000000004,-0.269135
1162,11.62,-0.476779,0.50895,1.603472,-0.05212399999999999,0.216385,-0.342636
1163,11.63,0.3580180000000001,-0.4261280000000001,1.109094,0.062912,0.330368,-0.40123000000000003
1164,11.64,0.81176,-1.312051,0.586884,0.181168,0.341019,-0.44278
1165,11.65,1.154308,-2.266115,0.03474100000000002,0.26532,0.267517,-0.439575
1166,11.66,1.420407,-3.085013,-0.395673,0.312195,0.151398,-0.410812
1167,11.67,1.677216,-3.773461,-0.888949,0.32603499999999996,0.035278,-0.377792
1168,11.68,1.606654,-4.29833,-1.284704,0.27915999999999996,-0.074432,-0.380997
1169,11.69,1.227659,-4.865417,-1.397551,0.183289,-0.168182,-0.394836
1170,11.7,0.767195,-5.21378,-1.249121,0.068237,-0.241684,-0.419342
1171,11.71,-0.099852,-5.518594,-0.9266530000000001,-0.030823,-0.306671,-0.44917299999999993
1172,11.72,-0.939837,-5.602759,-0.60724,-0.103256,-0.35780300000000004,-0.44384799999999996
1173,11.73,-1.574142,-5.340013,-0.43976800000000005,-0.159729,-0.383362,-0.403366
1174,11.74,-1.760052,-4.60839,-0.382693,-0.186356,-0.395081,-0.352234
1175,11.75,-1.8977560000000002,-3.7072199999999995,-0.266862,-0.17038,-0.382294,-0.30749499999999996
1176,11.76,-1.8112580000000003,-2.871656,-0.197497,-0.11392200000000001,-0.333298,-0.24144000000000002
1177,11.77,-1.491977,-2.0729889999999997,-0.117566,-0.013779,-0.28323400000000004,-0.191376
1178,11.78,-1.25956,-1.3941299999999999,-0.252054,0.082092,-0.222519,-0.149826
1179,11.79,-1.0503120000000001,-0.8007270000000001,-0.344856,0.177963,-0.154327,-0.118942
1180,11.8,-0.739398,-0.5531229999999999,-0.5498069999999999,0.281296,-0.093613,-0.104019
1181,11.81,-0.571943,-0.48432299999999995,-0.883185,0.398483,-0.066986,-0.0923
1182,11.82,-0.498879,-0.658087,-1.189608,0.48263500000000004,-0.063782,-0.05714400000000001
1183,11.83,-0.390805,-1.046331,-1.658412,0.5103300000000001,-0.06591799999999999,0.013152999999999998
1184,11.84,-0.435404,-1.21123,-2.1688330000000002,0.47731,-0.08403,0.099442
1185,11.85,-0.464095,-1.253628,-2.7913349999999997,0.378235,-0.111725,0.168686
1186,11.86,-0.43518199999999996,-0.9921700000000001,-3.315972,0.23016399999999998,-0.153275,0.210236
1187,11.87,-0.548588,-0.183561,-3.529689,0.055465999999999994,-0.22464,0.215561
1188,11.88,-0.599554,1.1666219999999998,-3.478268,-0.100067,-0.285355,0.187866
1189,11.89,-0.759526,2.757448,-3.154296,-0.240677,-0.308792,0.13352999999999998
1190,11.9,-0.921108,4.204425,-2.37688,-0.315247,-0.30027800000000004,0.084534
1191,11.91,-1.2394290000000001,5.291124,-1.461036,-0.272644,-0.270447,0.06428500000000001
1192,11.92,-1.505166,5.928272,-0.717067,-0.13841199999999998,-0.240616,0.050446
1193,11.93,-1.674537,5.931856,-0.293754,0.036285000000000005,-0.222519,0.038727
1194,11.94,-1.8249819999999999,5.368426,-0.42571,0.22164899999999998,-0.19375599999999998,0.031265
1195,11.95,-1.7266549999999998,4.489273000000001,-1.090649,0.391022,-0.131958,0.027007999999999997
1196,11.96,-1.535788,3.5001339999999996,-1.3405,0.505005,-0.044617000000000004,0.030197
1197,11.97,-0.966454,3.112125,-1.069207,0.509262,0.027832,0.033401
1198,11.98,-0.710588,3.144075,-0.5323640000000001,0.319641,-0.032898000000000004,-0.025192
1199,11.99,-0.56424,2.974599,0.9367719999999999,-0.045746000000000016,-0.13942000000000002,-0.05714400000000001
1200,12.0,-0.547728,2.684075,2.915998,-0.33761599999999997,-0.133026,-0.058212
1201,12.01,-0.619603,1.6851740000000002,4.9616489999999995,-0.485687,-0.027573,-0.13703900000000002
1202,12.02,0.1466,0.5684719999999999,6.3635,-0.521912,0.02037,-0.300034
1203,12.03,0.6974090000000001,-0.03803500000000001,6.382194,-0.407928,-0.020111,-0.484329
1204,12.04,1.201095,-0.20026,5.471864,-0.129898,-0.022247,-0.573807
1205,12.05,2.2286799999999998,-0.159832,3.6777629999999997,0.20565800000000006,0.008652,-0.583389
1206,12.06,3.525186,-0.145796,2.076145,0.391022,0.036345999999999996,-0.516281
1207,12.07,4.450246,0.181207,1.249833,0.389954,-0.0009310000000000012,-0.38739
1208,12.08,4.834878,0.8071470000000001,0.973673,0.25679,-0.143677,-0.23397800000000002
1209,12.09,4.404911,1.262207,0.8349850000000001,0.07357799999999999,-0.40679899999999997,-0.08590700000000001
1210,12.1,3.116616,1.356819,0.541408,-0.10646099999999999,-0.702942,0.07067899999999999
1211,12.11,1.397526,1.041144,0.413152,-0.252396,-0.895752,0.20490999999999998
1212,12.12,-0.4084329999999999,0.725734,0.639113,-0.333359,-0.9490200000000001,0.30396999999999996
1213,12.13,-1.576441,0.365848,1.154336,-0.334427,-0.917068,0.370026
1214,12.14,-2.253403,-0.11667199999999997,1.6061459999999999,-0.2556,-0.8297120000000001,0.37535100000000005
1215,12.15,-2.7372490000000003,-0.690062,1.8191599999999999,-0.114975,-0.680573,0.361496
1216,12.16,-3.04564,-1.200922,1.635418,0.036285000000000005,-0.5175930000000001,0.348709
1217,12.17,-2.612079,-2.106161,1.35115,0.170517,-0.333298,0.347656
1218,12.18,-1.87353,-2.783186,0.7632329999999999,0.257858,-0.170319,0.333801
1219,12.19,-0.949001,-3.365757,0.138901,0.30687,-0.029694,0.306107
1220,12.2,-0.048987999999999976,-4.119447,-0.5716939999999999,0.303665,0.069366,0.289062
1221,12.21,0.731294,-4.6010860000000005,-0.903327,0.252533,0.124771,0.302902
1222,12.22,1.322414,-4.864455,-1.177708,0.176895,0.14926099999999998,0.310364
1223,12.23,1.729473,-4.8931510000000005,-1.39049,0.091675,0.156723,0.314621
1224,12.24,1.9888849999999998,-4.63166,-1.350615,0.007523000000000002,0.15779100000000001,0.307175
1225,12.25,2.193362,-4.19551,-1.204281,-0.065979,0.14393599999999998,0.263489
1226,12.26,2.121626,-3.6073419999999996,-1.094903,-0.130966,0.133286,0.178268
1227,12.27,1.9452770000000001,-3.240522,-0.908732,-0.182098,0.11091600000000001,0.081329
1228,12.28,1.471434,-2.7015119999999997,-0.874676,-0.2034,0.092804,-0.0017549999999999994
1229,12.29,1.268249,-2.272625,-0.8791459999999999,-0.20553600000000002,0.089615,-0.028397000000000002
1230,12.3,0.9788600000000001,-2.128747,-1.0320049999999998,-0.17996199999999998,0.100266,-0.052887
1231,12.31,0.784072,-2.049915,-1.089949,-0.16078199999999998,0.104523,-0.066742
1232,12.32,0.582489,-1.964489,-1.167824,-0.11711099999999999,0.124771,-0.07206699999999999
1233,12.33,0.34960399999999997,-1.7519650000000002,-1.304594,-0.065979,0.139679,-0.084854
1234,12.34,0.116791,-1.470007,-1.3978190000000001,-0.014847,0.16951,-0.10934400000000001
1235,12.35,-0.10594400000000001,-0.9734799999999999,-1.7528869999999999,0.017105000000000002,0.228088,-0.13278199999999998
1236,12.36,-0.319101,-0.393453,-2.136739,0.007523,0.327164,-0.15196199999999999
1237,12.37,-0.49140200000000006,0.007640999999999981,-2.2358580000000003,-0.050003,0.448608,-0.158356
1238,12.38,-0.7605770000000001,0.587316,-2.098119,-0.125641,0.5540619999999999,-0.163681
1239,12.39,-0.901883,1.511727,-1.8268779999999998,-0.201263,0.6009369999999999,-0.159424
1240,12.4,-0.775463,2.64427,-1.5061360000000001,-0.256668,0.590286,-0.155151
1241,12.41,-0.381371,3.7254480000000005,-1.264723,-0.292877,0.559387,-0.139175
1242,12.42,0.025946,4.504346,-0.9701850000000001,-0.316315,0.557266,-0.119995
1243,12.43,0.506204,5.091947,-0.772981,-0.295013,0.589218,-0.0923
1244,12.44,1.038106,5.475862,-0.853474,-0.206589,0.606262,-0.050766000000000006
1245,12.45,1.612781,5.428996,-0.812923,-0.090485,0.552994,-0.011353
1246,12.46,1.244112,5.455584,-0.37907399999999997,0.029891999999999995,0.476303,0.012085000000000002
1247,12.47,0.852389,6.204954,-0.226692,0.093811,0.401733,0.077072
1248,12.48,0.957291,6.687922,0.43244399999999994,0.014983999999999997,0.20039400000000002,0.143112
1249,12.49,1.51809,6.193122,2.152607,-0.085159,-0.059525,0.183594
1250,12.5,1.962894,5.7492849999999995,3.3771769999999997,-0.089417,-0.274704,0.28373699999999996
1251,12.51,2.602632,4.213301,4.690289,-0.182098,-0.48030100000000003,0.473343
1252,12.52,1.449627,2.2262060000000004,5.30015,-0.30885300000000004,-0.578308,0.617157
1253,12.53,0.751646,0.43045,5.075761,-0.251328,-0.49415600000000004,0.711975
1254,12.54,0.044769999999999976,-0.9453159999999999,4.149633000000001,-0.0031279999999999923,-0.329041,0.722626
1255,12.55,-1.11681,-2.077456,2.8069830000000002,0.27597,-0.170319,0.6480560000000001
1256,12.56,-2.070312,-2.523684,1.4831370000000001,0.41658,-0.092545,0.497849
1257,12.57,-2.628926,-2.079989,0.846601,0.37290999999999996,-0.039290999999999986,0.29652399999999995
1258,12.58,-3.154241,-1.124687,0.648438,0.207794,0.02356,0.093048
1259,12.59,-3.3046559999999996,0.047011000000000025,0.5537489999999999,0.018172999999999998,0.10345499999999999,-0.069931
1260,12.6,-2.7167529999999998,0.9003860000000001,0.386962,-0.157593,0.165237,-0.190308
1261,12.61,-1.549676,1.008281,0.358646,-0.292877,0.20466600000000001,-0.287247
1262,12.62,-0.271721,0.5878260000000001,0.854298,-0.34721399999999997,0.250473,-0.350098
1263,12.63,0.550192,0.005998000000000003,1.436536,-0.314178,0.303726,-0.37886
1264,12.64,1.4032069999999999,-0.38707600000000003,1.8131509999999997,-0.230026,0.300537,-0.38739
1265,12.65,1.6303219999999998,-0.8993459999999999,1.926766,-0.114975,0.223831,-0.386322
1266,12.66,1.6749450000000001,-1.5141870000000002,1.7897669999999999,0.012848000000000005,0.091736,-0.355423
1267,12.67,1.666378,-2.1369,1.395514,0.14494300000000002,-0.05101,-0.339447
1268,12.68,1.180374,-3.037082,0.837061,0.26532,-0.177765,-0.333054
1269,12.69,0.8392809999999999,-3.909811,0.112029,0.355865,-0.268311,-0.342636
1270,12.7,0.246499,-4.769607,-0.5555829999999999,0.344147,-0.33010900000000004,-0.374603
1271,12.71,-0.35093300000000005,-5.137366,-0.798408,0.27171300000000004,-0.353546,-0.390579
1272,12.72,-0.876567,-5.357267,-0.987641,0.179031,-0.35780300000000004,-0.380997
1273,12.73,-1.064781,-5.265553,-1.064558,0.06185899999999999,-0.345016,-0.355423
1274,12.74,-1.242685,-4.946467,-0.993189,-0.06704700000000001,-0.34075900000000003,-0.310684
1275,12.75,-1.461738,-4.269814,-0.73052,-0.154388,-0.34288,-0.258484
1276,12.76,-1.647789,-3.399625,-0.532039,-0.172501,-0.324783,-0.202026
1277,12.77,-1.519744,-2.4411549999999997,-0.309228,-0.149063,-0.316254,-0.148758
1278,12.78,-1.262456,-1.869967,-0.009760999999999992,-0.09153700000000001,-0.31092800000000004,-0.10934400000000001
1279,12.79,-1.03346,-1.445727,0.131607,-0.016982999999999998,-0.287491,-0.0923
1280,12.8,-0.805353,-1.1659959999999998,0.083376,0.081024,-0.25553899999999996,-0.09550499999999999
1281,12.81,-0.61631,-0.866132,-0.226857,0.19075,-0.218246,-0.10829200000000001
1282,12.82,-0.353455,-0.7628159999999999,-0.771315,0.313263,-0.19801300000000002,-0.116806
1283,12.83,-0.06943700000000003,-0.71709,-1.134847,0.419785,-0.19375599999999998,-0.11361700000000001
1284,12.84,0.020274,-0.723267,-1.759408,0.497543,-0.20973200000000003,-0.083786
1285,12.85,-0.022458000000000002,-0.693823,-2.303813,0.514587,-0.22464,-0.017730999999999997
1286,12.86,-0.370693,-0.463491,-2.755293,0.46878100000000006,-0.245941,0.074936
1287,12.87,-0.874067,-0.167687,-3.09939,0.36972,-0.265121,0.164429
1288,12.88,-1.40365,0.262417,-3.213373,0.238693,-0.280029,0.231537
1289,12.89,-1.688559,1.045404,-3.057588,0.09699999999999999,-0.314117,0.259232
1290,12.9,-1.9694349999999998,1.9568330000000003,-2.850948,-0.034026999999999995,-0.372711,0.24005100000000001
1291,12.91,-1.860559,2.744163,-2.489897,-0.14694200000000002,-0.438766,0.202774
1292,12.92,-1.610454,3.3738699999999997,-2.017878,-0.201263,-0.485626,0.171875
1293,12.93,-1.299264,4.0259279999999995,-1.5999700000000001,-0.172501,-0.49095200000000006,0.159103
1294,12.94,-1.141694,4.493977,-1.417673,-0.07662999999999999,-0.43237299999999995,0.159103
1295,12.95,-1.092578,4.691998,-1.224669,0.045868000000000006,-0.33010900000000004,0.151642
1296,12.96,-1.328799,4.622342,-1.111094,0.18649300000000002,-0.19480899999999998,0.136734
1297,12.97,-1.703827,4.309398000000001,-1.278,0.345215,-0.059525000000000015,0.112228
1298,12.98,-2.213289,3.490588,-1.4682709999999999,0.49008199999999996,0.050200999999999996,0.088791
1299,12.99,-1.7887509999999998,2.271282,-1.001131,0.574249,0.14714100000000002,0.085587
1300,13.0,-1.785871,1.75069,0.20979699999999998,0.19075,0.008651999999999993,0.048309
1301,13.01,-1.546849,1.267168,2.281675,-0.171432,-0.086151,0.069611
1302,13.02,-1.01641,0.4899399999999999,4.064107,-0.379166,-0.054199000000000004,0.048309
1303,13.03,-0.18210000000000004,-0.66381,5.590358,-0.47824099999999997,0.081085,-0.05181899999999999
1304,13.04,1.192636,-0.907958,5.876649,-0.50061,0.219574,-0.286179
1305,13.05,1.632352,-0.24075100000000002,5.024416,-0.41218599999999994,0.283493,-0.540787
1306,13.06,1.6701080000000001,0.703813,3.603946,-0.211914,0.344208,-0.662216
1307,13.07,2.2356529999999997,1.489117,2.385694,-0.025496999999999992,0.41238400000000003,-0.63559
1308,13.08,2.973463,2.004881,1.8483630000000002,0.052261,0.47843900000000006,-0.5237430000000001
1309,13.09,3.5665489999999997,2.392305,2.193032,0.029892000000000002,0.439011,-0.350098
1310,13.1,3.837975,2.623349,2.480529,-0.034026999999999995,0.23129299999999997,-0.156219
1311,13.11,3.095724,2.630245,2.475635,-0.10539200000000001,-0.10426299999999998,0.041916000000000016
1312,13.12,1.7436040000000002,2.1397180000000002,2.17688,-0.130966,-0.415329,0.230469
1313,13.13,0.347525,1.265798,1.509496,-0.114975,-0.5996090000000001,0.380676
1314,13.14,-0.686319,0.44370699999999996,1.3089959999999998,-0.092606,-0.673111,0.495728
1315,13.15,-1.4335229999999999,-0.49909,1.1414799999999998,-0.040405,-0.647552,0.5266109999999999
1316,13.16,-2.2490639999999997,-1.119707,1.12701,0.010727,-0.55275,0.5393979999999999
1317,13.17,-2.512203,-1.694852,1.010722,0.06504800000000001,-0.410004,0.5212859999999999
1318,13.18,-2.851196,-2.27543,0.749656,0.101273,-0.252335,0.507446
1319,13.19,-2.448442,-2.996734,0.459776,0.126831,-0.09787,0.49145500000000003
1320,13.2,-1.5972520000000001,-3.5440709999999997,0.034173000000000016,0.13855,0.012908999999999995,0.457367
1321,13.21,-0.478451,-4.1394910000000005,-0.479418,0.134293,0.091736,0.42221099999999995
1322,13.22,0.41977700000000007,-4.703811,-0.6892010000000001,0.118317,0.164185,0.37854
1323,13.23,0.9114030000000001,-5.074656,-0.986841,0.10553,0.233429,0.354034
1324,13.24,1.3524399999999999,-5.192141,-1.159986,0.07463099999999999,0.295212,0.332733
1325,13.25,1.519409,-5.004642,-1.1713790000000002,0.029892000000000002,0.346344,0.315689
1326,13.26,1.7045299999999999,-4.646262999999999,-1.221942,-0.012711000000000002,0.375107,0.27413899999999997
1327,13.27,1.6790470000000002,-3.9309559999999997,-1.301088,-0.072372,0.396408,0.202774
1328,13.28,1.347027,-2.977989,-1.2244709999999999,-0.136292,0.399597,0.14418
1329,13.29,0.9442229999999999,-2.38488,-1.194125,-0.167175,0.421967,0.071747
1330,13.3,0.58355,-1.934881,-1.181386,-0.17996199999999998,0.44647200000000004,0.009964
1331,13.31,0.249894,-1.6449,-1.133233,-0.186356,0.48056000000000004,-0.033722
1332,13.32,0.107182,-1.3994209999999998,-1.219279,-0.162918,0.5199739999999999,-0.058212
1333,13.33,0.139268,-1.1563430000000001,-1.302139,-0.104324,0.546616,-0.076324
1334,13.34,0.10630799999999999,-0.733272,-1.4174639999999998,6.099999999999856e-05,0.5540619999999999,-0.086975
1335,13.35,0.17238399999999998,-0.294179,-1.58505,0.125763,0.547668,-0.090179
1336,13.36,0.140869,0.187327,-1.9011240000000003,0.23974600000000001,0.524246,-0.09123200000000001
1337,13.37,0.051758000000000005,0.498262,-2.272005,0.311127,0.48269700000000004,-0.08590700000000001
1338,13.38,0.18584900000000001,0.49639700000000003,-2.279824,0.328171,0.466721,-0.079529
1339,13.39,0.441985,0.455513,-2.255449,0.297272,0.46032700000000004,-0.07525599999999999
1340,13.4,0.7835529999999999,0.6903819999999999,-2.18166,0.215256,0.44647200000000004,-0.084854
1341,13.41,1.034032,1.0470760000000001,-2.125354,0.088486,0.42410299999999995,-0.089111
1342,13.42,1.050589,1.566735,-2.092159,-0.05851699999999999,0.430496,-0.084854
1343,13.43,1.085157,2.169671,-2.0063880000000003,-0.211914,0.45605500000000004,-0.078461
1344,13.44,1.114341,3.0986830000000003,-1.9447720000000002,-0.34721399999999997,0.46777299999999994,-0.078461
1345,13.45,0.775713,3.958849,-1.794087,-0.423904,0.453934,-0.080582
1346,13.46,0.214469,4.537478,-1.675425,-0.39621,0.408127,-0.089111
1347,13.47,-0.38525,4.95903,-1.589312,-0.281158,0.328232,-0.090179
1348,13.48,-0.803425,4.884987000000001,-1.449486,-0.125641,0.263245,-0.08590700000000001
1349,13.49,-1.376906,4.326084,-1.146466,0.044815,0.267517,-0.084854
1350,13.5,-1.7187830000000002,3.790318,-0.7979510000000001,0.179031,0.378296,-0.084854
1351,13.51,-2.182266,3.581491,-0.564763,0.207794,0.538086,-0.058212
1352,13.52,-1.475855,3.16625,0.399228,0.06398,0.5657810000000001,0.033401
1353,13.53,-0.00116000000000005,2.328011,1.889315,-0.11817899999999999,0.498672,0.136734
1354,13.54,0.774089,1.198699,3.564863,-0.217239,0.42303500000000005,0.262421
1355,13.55,1.15024,0.01509499999999997,5.238853,-0.258789,0.361252,0.437134
1356,13.56,0.878581,-0.825782,6.141001,-0.24494899999999997,0.43582200000000004,0.633133
1357,13.57,0.771031,-1.0264719999999998,6.057143,-0.18103,0.598801,0.774826
1358,13.58,0.978583,-0.717689,4.898147,-0.060654,0.677643,0.7875979999999999
1359,13.59,0.781255,0.044769999999999976,3.385847,0.07357799999999999,0.59668,0.653381
1360,13.6,-0.4219830000000001,0.753563,2.1939040000000003,0.156662,0.430496,0.43820200000000004
1361,13.61,-1.8370349999999998,1.310463,1.6686150000000002,0.161987,0.229156,0.24644499999999997
1362,13.62,-2.769325,1.609686,1.66894,0.09806799999999999,0.10133400000000001,0.087723
1363,13.63,-2.905077,1.67377,1.438591,-0.048934999999999985,0.11731,-0.0401
1364,13.64,-2.4043799999999997,1.321844,1.7723689999999999,-0.223633,0.24408000000000002,-0.148758
1365,13.65,-1.273844,0.882555,1.934653,-0.31845100000000004,0.445404,-0.224396
1366,13.66,-0.183785,0.48994899999999997,1.8213549999999998,-0.314178,0.632889,-0.281921
1367,13.67,0.8581639999999999,-0.050931999999999984,1.53857,-0.250275,0.715988,-0.320267
1368,13.68,1.491707,-0.6250899999999999,1.283454,-0.14161700000000002,0.675507,-0.339447
1369,13.69,1.839905,-1.271025,0.946908,-0.030823000000000007,0.526367,-0.337311
1370,13.7,2.116592,-1.787864,0.45471999999999996,0.055466000000000015,0.31864899999999996,-0.319214
1371,13.71,1.9743389999999998,-2.540147,-0.308632,0.110855,0.0054629999999999965,-0.317078
1372,13.72,1.6134879999999998,-2.95715,-0.750533,0.09487899999999999,-0.15966800000000006,-0.340515
1373,13.73,0.799185,-3.420268,-0.9616520000000001,0.05014,-0.30241399999999996,-0.369278
1374,13.74,0.138712,-3.8306730000000004,-0.977718,-0.010590000000000002,-0.400406,-0.388443
1375,13.75,-0.541525,-3.961824,-0.821989,-0.070236,-0.47604399999999997,-0.396973
1376,13.76,-1.156876,-4.037653,-0.654652,-0.103256,-0.5218510000000001,-0.395905
1377,13.77,-1.594555,-4.008264,-0.562923,-0.121368,-0.541031,-0.37886
1378,13.78,-1.583299,-3.700932,-0.49779799999999996,-0.1203,-0.534637,-0.342636
1379,13.79,-1.480075,-3.232879,-0.452927,-0.086212,-0.527176,-0.303223
1380,13.8,-1.252418,-2.9447419999999997,-0.413318,-0.027634,-0.516525,-0.255295
1381,13.81,-0.9189360000000001,-2.730464,-0.47286300000000003,0.026702999999999998,-0.493088,-0.204163
1382,13.82,-0.618352,-2.648229,-0.738865,0.066116,-0.471786,-0.163681
1383,13.83,-0.341413,-2.441274,-1.0113530000000002,0.106598,-0.454742,-0.129593
1384,13.84,-0.07883000000000001,-2.205105,-1.251262,0.163055,-0.444092,-0.106155
