,ts,ax,ay,az,wx,wy,wz
0,0.0,0.013047999999999995,0.023496,0.036699,0.022919,0.048431,0.0006410000000000001
1,0.01,0.022781,-0.001072,0.017669,0.028244,0.0495,-0.00148
2,0.02,0.027644,-0.006848999999999999,-0.011231000000000005,0.030364999999999996,0.045242000000000004,-0.003616
3,0.03,0.014847,-0.014802000000000001,-0.033054,0.032501,0.047363,-0.004684000000000001
4,0.04,0.028248000000000002,0.022752,-0.01645,0.033569,0.044174,-0.004684000000000001
5,0.05,0.033098,-0.028821,-0.009467,0.032501,0.039917,-0.002548
6,0.06,0.019313999999999998,-0.00881,0.011782000000000004,0.032501,0.036713,-0.000412
7,0.07,0.031491000000000005,0.009212999999999999,0.006925000000000001,0.034622,0.032455,-0.002548
8,0.08,0.030356,-0.0020680000000000004,0.048581,0.033569,0.028198,-0.000412
9,0.09,0.041616,0.035977999999999996,0.037219,0.03569,0.028198,-0.000412
10,0.1,0.031769,0.011961,0.0595,0.034622,0.026062000000000002,0.0006409999999999999
11,0.11,-0.017859000000000003,-0.007781000000000001,0.041864,0.039963,0.021805,-0.003616
12,0.12,0.041495,0.006962,0.048369999999999996,0.041016000000000004,0.022872999999999998,-0.003616
13,0.13,0.016769,-0.007158000000000001,0.056019000000000006,0.043151999999999996,0.019669,-0.002548
14,0.14,0.013586999999999998,-0.00036199999999999985,0.053980999999999994,0.042083999999999996,0.020737000000000002,-0.002548
15,0.15,0.025388,0.007572,0.050566,0.044219999999999995,0.016479,-0.003616
16,0.16,0.043066,0.003522,0.011849,0.043151999999999996,0.016479,-0.004684000000000001
17,0.17,0.016097,-0.0052250000000000005,0.06663,0.042083999999999996,0.013275,-0.003616
18,0.18,0.048614,-0.035808,0.06174400000000001,0.041016000000000004,0.012206999999999999,-0.003616
19,0.19,0.021351,-0.005126000000000002,0.059647000000000006,0.037827,0.011154,-0.002548
20,0.2,0.015480999999999996,-0.01997,0.050779000000000005,0.039963,0.00795,-0.004684000000000001
21,0.21,0.009506,-0.015909,0.051926,0.041016000000000004,0.003693,-0.00148
22,0.22,-0.008683999999999997,-0.016127000000000002,0.06185,0.037827,0.000488,0.001709
23,0.23,0.007686,-0.021461,0.042823,0.039963,0.000488,0.001709
24,0.24,0.010376999999999999,-0.023956,0.016835,0.036758,-0.006958,-0.000412
25,0.25,0.017103999999999998,-0.0016809999999999985,0.019678,0.037827,-0.006958,0.001709
26,0.26,0.009636,-0.016753999999999998,0.029817000000000003,0.038895,-0.009094,-0.000412
27,0.27,0.029526,-0.011525,0.031305,0.03569,-0.01123,0.004913
28,0.28,0.0016190000000000026,-0.059485,0.018123,0.033569,-0.009094,-0.0004119999999999996
29,0.29,0.022979,-0.05364,0.001523,0.031432999999999996,-0.009094,0.002777
30,0.3,-0.014697,-0.047706,-0.011281,0.023972,-0.01123,0.002777
31,0.31,0.001949,-0.06253,-0.055059000000000004,0.020782,-0.014419999999999999,0.002777
32,0.32,0.0003890000000000005,-0.060388,-0.039469,0.015456999999999999,-0.015488,0.002777
33,0.33,0.00601,-0.042755,-0.038583,0.0112,-0.015488,0.004913
34,0.34,0.014135000000000003,-0.025958999999999996,-0.037725999999999996,0.004807,-0.018677000000000003,0.0006410000000000001
35,0.35,0.014716,-0.027877999999999997,-0.016783000000000003,0.001602,-0.018677000000000003,0.001709
36,0.36,0.016268,-0.029720999999999997,-0.011314,-0.005843999999999999,-0.016556,0.000641
37,0.37,-0.010116,-0.0017910000000000011,-0.028277,-0.009048,-0.017609,0.001709
38,0.38,0.025428,-0.007697,-0.009998,-0.014374000000000001,-0.016556,-0.000412
39,0.39,0.005301,-0.028947000000000004,-0.033036,-0.018631,-0.014419999999999999,0.0017089999999999994
40,0.4,-0.041526,-0.008367,-0.028535,-0.022888,-0.017609,0.001709
41,0.41,-0.048783,-0.011544,-0.00021799999999999988,-0.025024,-0.019745,0.005981
42,0.42,-0.048169,-0.00032799999999999995,0.013267,-0.028229,-0.017609,0.002777
43,0.43,-0.033576,0.012633000000000002,0.036153,-0.023956,-0.016556,0.0038450000000000003
44,0.44,-0.019172,-0.005309,-0.036864999999999995,-0.026093,-0.015488,0.004913
45,0.45,-0.041026,-0.034883,-0.073773,-0.031418,-0.016556,0.0038450000000000003
46,0.46,-0.013505000000000001,-0.039025,-0.093224,-0.038879000000000004,-0.017609,0.004913
47,0.47,-0.006678000000000001,-0.011895000000000001,-0.02159800000000001,-0.043137,-0.019745,0.005981
48,0.48,-0.029437999999999995,0.031183,0.052073000000000015,-0.039932,-0.016556,0.0038450000000000003
49,0.49,-0.023297,0.067039,0.08511,-0.034607,-0.016556,0.0038450000000000003
50,0.5,-0.032389999999999995,0.11276900000000001,0.11641900000000001,-0.023956,-0.016556,-0.0004119999999999996
51,0.51,-0.038446,0.15403499999999998,0.21130100000000002,-0.009048,-0.018677000000000003,0.002777
52,0.52,-0.016247,0.175769,0.247792,0.013321000000000001,-0.015488,-0.003616
53,0.53,-0.012016,0.191315,0.21858200000000003,0.036758,-0.019745,-0.003616
54,0.54,-0.033423,0.143702,0.190124,0.05806,-0.024002000000000002,-0.002548
55,0.55,-0.069701,0.09984,0.214455,0.079376,-0.026137999999999998,-0.00148
56,0.56,-0.060869000000000006,0.10526700000000001,0.189808,0.098541,-0.026137999999999998,0.002777
57,0.57,-0.10668499999999999,0.08304600000000001,0.15092,0.11879,-0.032532,0.005981
58,0.58,-0.13742000000000001,0.095389,0.096982,0.136902,-0.037857,0.011307
59,0.59,-0.08968,0.08401499999999999,-0.024936,0.147552,-0.031464,0.010239
60,0.6,-0.073257,0.07900599999999999,-0.15895399999999998,0.146484,-0.020812999999999998,0.010239
61,0.61,-0.041881,-0.033829000000000005,-0.28631799999999996,0.137955,-0.006958,0.005981
62,0.62,0.018747,-0.11415,-0.325712,0.11985799999999999,0.002625,0.002777
63,0.63,0.077269,-0.14396199999999998,-0.296489,0.086823,0.015411000000000001,-0.006804999999999999
64,0.64,0.10376099999999999,-0.14282899999999998,-0.270505,0.06552100000000001,0.019669,-0.013199
65,0.65,0.094661,-0.130874,-0.194461,0.048477,0.024994,-0.016403
66,0.66,0.091193,-0.117318,-0.09272799999999999,0.034622,0.034575999999999996,-0.018524000000000002
67,0.67,0.075239,-0.10805,-0.060297,0.026108,0.037781,-0.020659999999999998
68,0.68,0.030568,-0.092282,-0.0015259999999999994,0.021851,0.037781,-0.018524000000000002
69,0.69,-0.010527999999999996,-0.077199,0.026007,0.014388999999999999,0.035644999999999996,-0.016403
70,0.7,0.005535000000000003,-0.061513,-0.027074,0.0112,0.034575999999999996,-0.012131
71,0.71,-0.006954000000000001,-0.077572,-0.042866,0.005875,0.02713,-0.006804999999999999
72,0.72,0.035328,-0.043341000000000005,-0.09633,0.00267,0.021805,-0.005737
73,0.73,0.009736,-0.068965,-0.08801,-0.0015869999999999999,0.017532,-0.002548
74,0.74,0.05140700000000001,-0.068254,-0.118434,-0.005843999999999999,0.019669,0.0006410000000000001
75,0.75,0.083354,-0.032337,-0.10814700000000001,-0.013306,0.017532,0.001709
76,0.76,0.092998,-0.043102,-0.081112,-0.018631,0.0186,0.001709
77,0.77,0.073349,-0.044011,-0.078427,-0.021835,0.017532,0.002777
78,0.78,0.092682,-0.021,-0.012287000000000001,-0.021835,0.016479,0.0038450000000000003
79,0.79,0.030456,-0.029666,0.006360000000000003,-0.019699,0.014343,0.002777
80,0.8,0.029581,0.006214000000000001,-0.0004679999999999997,-0.017563,0.006882000000000001,0.007034
81,0.81,0.008957,0.021230000000000002,0.011358,-0.015441999999999999,0.001556,0.005981
82,0.82,-0.013642,0.013302000000000001,0.0025379999999999986,-0.014374000000000001,-0.0027010000000000003,0.009170999999999999
83,0.83,-0.000637,0.008995,-0.006667999999999997,-0.013306,-0.0037689999999999998,0.008102
84,0.84,-0.019615999999999998,-0.023653,0.004743,-0.012237999999999999,-0.004837,0.008102
85,0.85,-0.0003349999999999998,0.0007850000000000001,0.020903,-0.010117000000000001,-0.001633,0.0038450000000000003
86,0.86,-0.0038640000000000002,0.033993999999999996,0.009415,-0.012237999999999999,0.000488,0.007034
87,0.87,-0.0138,0.018581,0.053221,-0.011184999999999999,0.002625,0.004913
88,0.88,0.026739,0.011812000000000001,0.005224,-0.00798,0.006881999999999999,0.0038450000000000003
89,0.89,0.019865999999999998,0.02226,0.029497000000000002,-0.00798,0.011154,0.004913
90,0.9,0.016309,0.016656,-0.013052000000000001,-0.006912000000000001,0.011154,0.0006410000000000001
91,0.91,-0.008896000000000001,0.008177,0.004102999999999999,-0.0037229999999999997,0.012206999999999999,-0.0004119999999999999
92,0.92,-0.016452,0.030674,0.009166,-0.0026550000000000002,0.009018,-0.000412
93,0.93,-0.013791999999999999,0.010092,0.000165,0.000534,0.002625,-0.00148
94,0.94,0.004822000000000003,-0.003559000000000001,0.0014009999999999995,0.000534,0.002625,0.0006410000000000001
95,0.95,-0.01651,0.020182,-0.018182,0.00267,-0.0027010000000000003,0.0006409999999999999
96,0.96,-0.010012999999999998,0.010694999999999996,-0.017398,0.005875,-0.004837,-0.0004119999999999999
97,0.97,-0.002207,0.0021849999999999994,-0.040133999999999996,0.0037380000000000004,-0.0005650000000000001,-0.0004119999999999999
98,0.98,0.005163999999999999,-0.012619,-0.0055119999999999995,0.0037380000000000004,-0.001633,-0.002548
99,0.99,0.012208000000000002,-0.026595999999999998,-0.017782,0.005875,-0.004837,-0.00148
100,1.0,0.004453,-0.041631,-0.005514,0.005875,-0.00589,-0.00148
101,1.01,0.028835000000000003,-0.040489,-0.014916999999999996,0.005875,-0.009094,-0.000412
102,1.02,-0.005483999999999999,0.007012000000000001,-0.012029999999999999,0.010131999999999999,-0.01123,0.0006410000000000001
103,1.03,0.019041,-0.006006,0.005751000000000001,0.007996,-0.012283,-0.000412
104,1.04,0.002969000000000001,0.026697000000000002,0.008478,0.0112,-0.017609,0.001709
105,1.05,-0.030273999999999995,0.035799,0.028157000000000005,0.010131999999999999,-0.019745,-0.000412
106,1.06,-0.017359,0.013437000000000001,0.026286,0.009064000000000001,-0.018677000000000003,0.001709
107,1.07,-0.042450999999999996,0.015788999999999997,0.020475,0.016525,-0.024002000000000002,-0.000412
108,1.08,-0.014643000000000002,-0.004961999999999999,0.044916000000000005,0.018646,-0.026137999999999998,0.0006410000000000001
109,1.09,-0.022031,5.1999999999999956e-05,0.022135,0.019714,-0.024002000000000002,0.001709
110,1.1,-0.012814999999999998,0.0015860000000000006,0.039001,0.021851,-0.022934,0.000641
111,1.11,-0.021296000000000002,0.012943000000000001,-0.012997,0.020782,-0.018677000000000003,0.0006409999999999999
112,1.12,-0.015684,-0.014719,0.014737,0.019714,-0.015488,0.002777
113,1.13,0.002851,-0.010717999999999998,-0.010975,0.019714,-0.014419999999999999,0.001709
114,1.14,-0.000728,-0.036403,-0.048509,0.016525,-0.014419999999999999,-0.0004119999999999996
115,1.15,-0.040066999999999985,-0.026785000000000003,-0.07841000000000001,0.0112,-0.013350999999999998,0.002777
116,1.16,-0.037624,-0.035523,-0.05608099999999999,0.006927,-0.012283,-0.0004119999999999999
117,1.17,-0.070046,-0.055666999999999994,-0.043601,0.001602,-0.009094,0.002777
118,1.18,-0.080162,-0.004541,-0.014015000000000001,-0.002655,-0.009094,0.0006410000000000001
119,1.19,-0.056172,-0.017338,-0.047211,-0.0026550000000000002,-0.00589,0.001709
120,1.2,-0.037028,-0.008117999999999998,-0.075408,-0.005843999999999999,-0.00589,0.001709
121,1.21,-0.0431,-0.03200900000000001,-0.13933399999999999,-0.015441999999999999,-0.004837,0.004913
122,1.22,-0.061309,-0.056327999999999996,-0.106118,-0.026093,-0.009094,0.004913
123,1.23,-0.028312999999999998,-0.026601,-0.089119,-0.035675,-0.00589,0.005981
124,1.24,-0.05051,-0.033536,-0.0072959999999999995,-0.035675,-0.00589,0.009170999999999999
125,1.25,-0.042154000000000004,0.025387,0.044177,-0.035675,-0.0037689999999999998,0.007034
126,1.26,-0.052832000000000004,0.021369,0.042054,-0.03035,0.0004880000000000002,0.007034
127,1.27,-0.026367,0.095228,0.086262,-0.025024,-0.001633,0.004913
128,1.28,0.030687,0.068284,0.041858,-0.014374000000000001,0.000488,0.0006410000000000001
129,1.29,0.058384000000000005,0.060663,0.027576000000000003,-0.006912000000000001,0.002625,0.0006410000000000001
130,1.3,0.024598,-0.021347,-0.00799,-0.00798,0.010086,-0.002548
131,1.31,0.017945,-0.069012,-0.059904,-0.013306,0.010086,-0.00148
132,1.32,-0.032182999999999996,-0.084736,-0.07964500000000001,-0.020766999999999997,0.001556,0.0006409999999999999
133,1.33,0.005912000000000001,-0.03203099999999999,-0.050275,-0.023956,-0.00589,0.002777
134,1.34,-0.034157,-0.029789,-0.019712,-0.025024,-0.010162000000000001,0.004913
135,1.35,-0.013933000000000001,0.016546,-0.007969,-0.022888,-0.006958,0.002777
136,1.36,-0.044572,0.028543000000000002,0.015414999999999996,-0.019699,-0.004837,0.0006410000000000001
137,1.37,-0.007642000000000003,0.059148,-0.015185000000000002,-0.018631,0.0004880000000000002,-0.000412
138,1.38,-0.007502,0.043712,0.000444,-0.01651,0.002625,0.000641
139,1.39,0.0012050000000000012,0.031066000000000003,0.018133000000000003,-0.012237999999999999,0.003693,-0.0004119999999999999
140,1.4,0.014195,0.034206,0.053089,-0.006912000000000001,0.0004880000000000002,-0.000412
141,1.41,0.019966,0.031145,0.033517,-0.0037229999999999997,-0.0027010000000000003,-0.000412
142,1.42,0.0219,0.029918,0.029071000000000007,0.0005340000000000002,-0.006958,0.001709
143,1.43,-0.008461999999999999,0.020681,0.080808,0.005875,-0.012283,0.0006410000000000001
144,1.44,-0.009646,0.009717,0.064846,0.005875,-0.013350999999999998,0.0006410000000000001
145,1.45,-0.04444,0.036736000000000005,0.068909,0.012253,-0.016556,0.0038450000000000003
146,1.46,-0.041070999999999996,0.053388,0.12620499999999998,0.016525,-0.014419999999999999,0.0038450000000000003
147,1.47,-0.059024,0.090375,0.143568,0.026108,-0.008026,0.002777
148,1.48,-0.040063999999999995,0.141201,0.231067,0.039963,-0.001633,0.004913
149,1.49,-0.046617,0.192549,0.279967,0.063385,0.004761,0.001709
150,1.5,-0.037648,0.172129,0.261627,0.088959,0.019669,0.000641
151,1.51,-0.022642,0.258363,0.211677,0.11026,0.029251,-0.004684000000000001
152,1.52,-0.013978,0.216885,0.12067699999999999,0.127304,0.028198,-0.007873999999999999
153,1.53,-0.014971,0.0794,0.043308,0.136902,0.032455,-0.015335
154,1.54,-0.00563,-0.008676999999999997,-0.074518,0.137955,0.031387,-0.016403
155,1.55,0.031964,-0.134725,-0.195797,0.128372,0.030319,-0.016403
156,1.56,0.057096,-0.192384,-0.213527,0.11026,0.026062000000000002,-0.019592
157,1.57,0.093159,-0.25853400000000004,-0.262484,0.087891,0.020737000000000002,-0.018524000000000002
158,1.58,0.082737,-0.223108,-0.206946,0.066589,0.019669,-0.019592
159,1.59,0.089805,-0.187323,-0.14695,0.051666,0.019669,-0.020659999999999998
160,1.6,0.099647,-0.158817,-0.055251,0.043151999999999996,0.020737000000000002,-0.021729
161,1.61,0.051798000000000004,-0.071009,0.008811,0.036758,0.024994,-0.025986000000000002
162,1.62,0.013584,-0.074015,0.03959,0.037827,0.030319,-0.019592
163,1.63,-0.020022,-0.097375,0.027828,0.026108,0.033524,-0.022781
164,1.64,-0.052502999999999994,-0.12276400000000001,0.035756,0.016525,0.033524,-0.014266999999999998
165,1.65,-0.038332,-0.129052,-0.008493,0.009064000000000001,0.034575999999999996,-0.01001
166,1.66,0.0009679999999999966,-0.10485599999999999,-0.032943,0.001602,0.030319,-0.004684000000000001
167,1.67,0.05143,-0.067631,-0.015531999999999999,-0.004790999999999999,0.028198,-0.003616
168,1.68,0.088896,-0.060384,-0.078587,-0.00798,0.026062000000000002,-0.00148
169,1.69,0.103469,-0.016145,-0.058336,-0.012237999999999999,0.026062000000000002,-0.000412
170,1.7,0.096329,-0.006654000000000001,-0.026931000000000004,-0.014374000000000001,0.019669,0.001709
171,1.71,0.08095,-0.010921,-0.020062,-0.014374000000000001,0.017532,0.001709
172,1.72,0.07649700000000001,0.004078999999999999,-0.005417,-0.014374000000000001,0.013275,0.0038450000000000003
173,1.73,0.035826,0.015241,-0.012095999999999999,-0.013306,0.010086,0.004913
174,1.74,0.041523000000000004,0.016673,-0.045336,-0.013306,0.002625,0.008102
175,1.75,0.060834000000000006,0.016334,-0.050377000000000005,-0.013306,0.003693,0.008102
176,1.76,-0.008567999999999992,0.029223000000000002,-0.028232,-0.014374000000000001,-0.001633,0.009170999999999999
177,1.77,0.014299000000000001,0.021177,0.0014790000000000011,-0.01651,-0.004837,0.010239
178,1.78,-0.014319000000000004,0.027431999999999998,-0.017503,-0.011184999999999999,-0.006958,0.010239
179,1.79,0.05809200000000001,-0.015717999999999996,0.044885,-0.012237999999999999,-0.00589,0.01236
180,1.8,0.022153,-0.004911,0.017935,-0.00798,-0.006958,0.010239
181,1.81,0.033873,-0.003353000000000002,0.031354,-0.004790999999999999,-0.006958,0.010239
182,1.82,0.0034670000000000013,-0.027469999999999998,-0.008813000000000001,-0.004790999999999999,-0.006958,0.008102
183,1.83,0.028810000000000002,-0.016434999999999998,-0.034406,-0.0026550000000000002,-0.006958,0.005981
184,1.84,0.018528,0.010368,-0.040165,-0.006912000000000001,-0.009094,0.008102
185,1.85,0.022238,0.024013999999999997,-0.070576,-0.00798,-0.016556,0.009170999999999999
186,1.86,0.042834,0.020547,-0.062932,-0.010117000000000001,-0.022934,0.005981
187,1.87,0.044056,0.037480999999999993,-0.033743,-0.011184999999999999,-0.027206,0.008102
188,1.88,0.030701999999999997,0.043262,-0.006737000000000001,-0.010117000000000001,-0.029327,0.008102
189,1.89,0.026433,0.014392000000000004,0.034628000000000006,-0.004790999999999999,-0.028275,0.005981
190,1.9,0.024871,0.028339999999999997,0.01436,-0.0005190000000000001,-0.030396,0.0038450000000000003
191,1.91,0.00018999999999999573,0.0006010000000000007,-0.008589,0.0005340000000000001,-0.0336,0.001709
192,1.92,0.021667,-0.008187,-0.026898000000000002,-0.0005190000000000001,-0.034652999999999996,-0.0004119999999999999
193,1.93,0.005861,-0.016276,-0.004871,-0.001587,-0.037857,-0.002548
194,1.94,0.015169000000000004,0.006993999999999999,-0.035755,-0.0015869999999999999,-0.039978,-0.000412
195,1.95,0.020791999999999998,0.022553,0.0029250000000000005,-0.0026550000000000002,-0.04425,-0.002548
196,1.96,-0.015021000000000001,0.025146,0.031885000000000004,-0.005843999999999999,-0.050644,-0.002548
197,1.97,-0.04571,0.026661,0.014288000000000004,-0.010117000000000001,-0.053833000000000006,0.0006409999999999999
198,1.98,-0.031752999999999997,0.031938999999999995,-0.0027719999999999997,-0.018631,-0.059158,0.0027770000000000004
199,1.99,0.051507000000000004,0.026629000000000003,-0.030705,-0.028229,-0.062363,0.004913
200,2.0,0.025115000000000002,0.047337,0.0014359999999999998,-0.039932,-0.058089999999999996,0.007034
201,2.01,0.043852999999999996,0.020941,0.046644,-0.045273,-0.043182,0.013428
202,2.02,0.035268000000000015,0.030527999999999996,0.079015,-0.045273,-0.034652999999999996,0.020888999999999998
203,2.03,-0.018613000000000005,0.0012870000000000034,0.101754,-0.053787,-0.032532,0.029404000000000003
204,2.04,-0.041549,-0.047886,0.127381,-0.055923,-0.020812999999999998,0.037933
205,2.05,-0.066096,-0.090898,0.059815999999999994,-0.054854999999999994,-0.013350999999999998,0.043259
206,2.06,-0.031595,-0.115842,0.016172,-0.047394,0.0004879999999999997,0.052841
207,2.07,-0.057274,-0.07508300000000001,-0.063195,-0.049530000000000005,0.014343,0.06881699999999999
208,2.08,-0.08694500000000001,-0.08207,-0.132932,-0.067642,0.02713,0.096527
209,2.09,-0.13296,-0.008528,-0.14952100000000002,-0.092133,0.033524,0.127411
210,2.1,-0.109234,0.036263,-0.126808,-0.11450199999999999,0.033524,0.15298499999999998
211,2.11,-0.108974,0.135578,-0.033738000000000004,-0.132614,0.024994,0.171097
212,2.12,-0.086233,0.22179400000000002,0.174119,-0.145401,0.013275000000000002,0.181747
213,2.13,0.109625,0.275881,0.303027,-0.137939,0.0004880000000000006,0.181747
214,2.14,0.187973,0.313213,0.42364700000000005,-0.103851,-0.014419999999999999,0.17215
215,2.15,0.266183,0.258807,0.41047100000000003,-0.059113,-0.038925,0.161499
216,2.16,0.358091,0.140381,0.36841,-0.017563,-0.048507999999999996,0.14765899999999998
217,2.17,0.348302,0.072668,0.17686400000000002,0.031432999999999996,-0.026137999999999998,0.141266
218,2.18,0.341483,-0.090908,-0.041063,0.06977799999999999,0.00795,0.129547
219,2.19,0.296817,-0.31614000000000003,-0.172734,0.100677,0.054825,0.10929900000000001
220,2.2,0.18076,-0.47118999999999994,-0.353035,0.126236,0.121933,0.062439
221,2.21,-0.026156999999999986,-0.535049,-0.742672,0.142227,0.214615,0.005981
222,2.22,-0.253979,-0.518161,-1.241866,0.15181,0.31901599999999997,-0.052612
223,2.23,-0.510001,-0.42498,-1.811177,0.14009100000000002,0.414886,-0.106949
224,2.24,-0.5865640000000001,-0.36089899999999997,-2.090102,0.10493499999999999,0.49585,-0.148483
225,2.25,-0.433497,-0.348394,-2.087877,0.057007,0.551239,-0.167664
226,2.26,-0.13701300000000002,-0.353761,-1.833975,0.0016019999999999993,0.588516,-0.171921
227,2.27,0.270754,-0.230908,-1.502995,-0.040999999999999995,0.588516,-0.157013
228,2.28,0.773365,-0.079711,-1.007963,-0.07296799999999999,0.560822,-0.139969
229,2.29,1.172021,0.01579699999999999,-0.585485,-0.08680700000000001,0.5192720000000001,-0.11013800000000001
230,2.3,1.4573200000000002,0.06475399999999999,-0.317189,-0.087875,0.470276,-0.081375
231,2.31,1.5190290000000002,0.0010640000000000007,-0.24000700000000003,-0.087875,0.4021,-0.059005999999999996
232,2.32,1.433783,-0.051592,-0.319811,-0.098526,0.315811,-0.04303
233,2.33,1.31261,-0.132149,-0.343578,-0.112381,0.231659,-0.037704
234,2.34,1.21694,-0.11993399999999999,-0.377736,-0.125168,0.163483,-0.033447000000000005
235,2.35,1.093123,-0.126366,-0.368788,-0.13475,0.117676,-0.037704
236,2.36,1.0256120000000002,-0.11074200000000001,-0.317741,-0.136871,0.07933,-0.041962
237,2.37,0.947714,-0.08089500000000001,-0.179515,-0.131546,0.047363,-0.055817
238,2.38,0.8891190000000001,-0.004643999999999997,-0.151057,-0.113449,0.023926,-0.071793
239,2.39,0.8421280000000001,0.040833000000000015,-0.16992000000000002,-0.08255,0.003693,-0.099487
240,2.4,0.7133510000000001,0.11063800000000001,-0.199641,-0.042068,-0.01123,-0.12931800000000002
241,2.41,0.583852,0.187377,-0.286229,0.0005339999999999998,-0.036788999999999995,-0.15062
242,2.42,0.46996899999999997,0.298697,-0.281698,0.032501,-0.07833899999999999,-0.16127
243,2.43,0.456704,0.37814200000000003,-0.26819899999999997,0.062332000000000005,-0.135864,-0.168732
244,2.44,0.396539,0.511376,-0.162913,0.099609,-0.197647,-0.175125
245,2.45,0.43751,0.49269399999999997,-0.11014700000000001,0.139023,-0.25303600000000004,-0.18364
246,2.46,0.381351,0.327858,-0.10993699999999999,0.175247,-0.295654,-0.196426
247,2.47,0.31556,0.076488,-0.049499,0.19761700000000001,-0.327606,-0.200684
248,2.48,0.274144,-0.126476,-0.115852,0.19761700000000001,-0.33825700000000003,-0.20814499999999997
249,2.49,0.238573,-0.34279499999999996,-0.254166,0.176315,-0.332932,-0.212402
250,2.5,0.138595,-0.576662,-0.301487,0.136902,-0.303101,-0.210281
251,2.51,-0.08332900000000001,-0.8921120000000001,-0.28399,0.078308,-0.25196799999999997,-0.21133400000000002
252,2.52,-0.418166,-1.265158,-0.2131,0.005874999999999997,-0.192322,-0.20282
253,2.53,-0.934911,-1.610806,0.050251,-0.062317,-0.11668399999999997,-0.197495
254,2.54,-1.699916,-1.803575,0.23902600000000002,-0.119827,0.0004880000000000023,-0.186844
255,2.55,-2.453136,-1.996005,0.356931,-0.15925599999999998,0.14856,-0.17619300000000002
256,2.56,-3.040367,-1.868214,0.5036189999999999,-0.16351300000000002,0.281723,-0.157013
257,2.57,-3.393654,-1.385417,0.448011,-0.128357,0.34671,-0.13250699999999999
258,2.58,-3.275052,-0.572706,0.19250499999999998,-0.075089,0.333923,-0.09523
259,2.59,-2.750278,0.5965399999999998,-0.3932140000000001,-0.013305999999999998,0.249771,-0.055817
260,2.6,-2.003166,1.780245,-0.9450559999999999,0.02504,0.14430199999999999,-0.013199000000000002
261,2.61,-1.1444459999999999,2.546027,-1.214284,0.007996,0.077194,0.019821000000000002
262,2.62,-0.426015,2.786885,-1.140796,-0.048461999999999984,0.058013999999999996,0.016632
263,2.63,0.16980599999999998,2.336205,-0.812176,-0.081482,0.032455,-0.05686999999999999
264,2.64,0.203248,1.7589650000000001,-0.709691,-0.054854999999999994,0.039917,-0.136765
265,2.65,0.132883,1.150041,-0.693872,-0.007980000000000001,0.078262,-0.207077
266,2.66,-0.199344,0.609378,-0.79937,0.043151999999999996,0.129395,-0.275253
267,2.67,-0.729718,-0.07639499999999999,-0.9407270000000001,0.064453,0.17839100000000002,-0.315735
268,2.68,-1.486431,-1.198423,-0.8380350000000001,0.052734,0.22845500000000002,-0.312546
269,2.69,-1.401704,-2.479995,-0.990241,0.027176,0.27533,-0.21453899999999998
270,2.7,0.08303899999999986,-1.7667950000000001,-1.7913849999999998,-0.015442000000000003,0.180527,-0.13250699999999999
271,2.71,0.061007000000000006,-1.0736,-2.010904,-0.059113,0.071869,-0.13783299999999998
272,2.72,0.7687789999999999,-0.549179,-1.947186,-0.10173,0.096375,-0.135712
273,2.73,0.576695,-0.502574,-1.43397,-0.225296,0.212479,-0.21133400000000002
274,2.74,0.358029,-0.320552,-0.7358600000000001,-0.332886,0.32113600000000003,-0.296555
275,2.75,-0.568118,-0.173433,0.3256660000000001,-0.322235,0.371201,-0.344498
276,2.76,-1.440775,-0.41297799999999996,0.881381,-0.208252,0.406357,-0.315735
277,2.77,-1.7735560000000001,-0.660188,0.44906,-0.085739,0.415955,-0.24009699999999998
278,2.78,-1.8478029999999999,-0.95835,-0.543546,-0.029282,0.342438,-0.152756
279,2.79,-1.6531790000000002,-1.064707,-1.416315,-0.043137,0.223129,-0.067535
280,2.8,-1.3820290000000002,-0.913285,-1.966218,-0.102783,0.118744,-0.014267000000000004
281,2.81,-1.134366,-0.7235729999999999,-2.075078,-0.15818800000000002,0.064407,0.014496000000000004
282,2.82,-0.954066,-0.48313900000000004,-1.7107400000000001,-0.191208,0.08677699999999999,0.010239
283,2.83,-0.908075,-0.330677,-1.2981530000000001,-0.19653299999999999,0.17627,-0.004684000000000001
284,2.84,-0.8903909999999999,-0.26766999999999996,-0.930483,-0.189072,0.293442,-0.024918
285,2.85,-0.928325,-0.248942,-0.711357,-0.16351300000000002,0.391449,-0.039825
286,2.86,-1.023227,-0.203226,-0.64488,-0.131546,0.461761,-0.050491
287,2.87,-1.0865209999999998,-0.144929,-0.740766,-0.087875,0.500107,-0.052612
288,2.88,-1.0777649999999999,-0.125383,-0.8867299999999999,-0.048462,0.518219,-0.047287
289,2.89,-1.045951,-0.209006,-1.1008950000000002,-0.01651,0.518219,-0.039825
290,2.9,-0.9396639999999999,-0.346614,-1.356026,0.007996,0.504364,-0.022781
291,2.91,-0.851209,-0.5112300000000001,-1.62625,0.020782,0.475601,-0.007873999999999999
292,2.92,-0.736599,-0.62937,-1.896381,0.020782,0.439377,0.004913000000000001
293,2.93,-0.710547,-0.789578,-2.197517,0.0005339999999999998,0.399963,0.016632
294,2.94,-0.590316,-0.9686440000000001,-2.275658,-0.034607,0.363754,0.024078
295,2.95,-0.50669,-1.039334,-2.26229,-0.08255,0.332855,0.028350999999999998
296,2.96,-0.460304,-1.090291,-2.184731,-0.127289,0.296646,0.03154
297,2.97,-0.386544,-0.948896,-2.069067,-0.170959,0.259354,0.04007
298,2.98,-0.38498899999999997,-0.8259340000000001,-1.9850139999999998,-0.203995,0.202896,0.039001
299,2.99,-0.48674700000000004,-0.580846,-1.881678,-0.22316,0.146439,0.042191
300,3.0,-0.546629,-0.314341,-1.749437,-0.237015,0.08998099999999999,0.039001
301,3.01,-0.64567,-0.05380000000000002,-1.5619459999999998,-0.24340799999999999,0.044174,0.042191
302,3.02,-0.700922,0.165517,-1.412256,-0.241272,-0.001632999999999999,0.042191
303,3.03,-0.813283,0.303645,-1.216768,-0.234879,-0.043182,0.036864999999999995
304,3.04,-0.9990680000000001,0.47560699999999995,-1.114889,-0.20506300000000002,-0.092178,0.036864999999999995
305,3.05,-1.199497,0.653841,-1.0724209999999998,-0.169907,-0.114548,0.037933
306,3.06,-1.330677,0.809709,-1.209371,-0.133682,-0.13053900000000002,0.046448
307,3.07,-1.494701,1.0083739999999999,-1.513939,-0.094269,-0.142258,0.056046000000000006
308,3.08,-1.62358,1.197719,-1.9278650000000002,-0.07083099999999999,-0.153961,0.069885
309,3.09,-1.739104,1.3849690000000001,-2.37672,-0.06337000000000001,-0.15823399999999999,0.08906599999999999
310,3.1,-1.8312549999999999,1.5192860000000001,-2.718398,-0.069763,-0.146515,0.11143499999999999
311,3.11,-2.018815,1.61815,-2.958955,-0.068695,-0.13372799999999999,0.143387
312,3.12,-2.084663,1.807752,-3.042435,-0.056976,-0.12200899999999999,0.173218
313,3.13,-2.3593830000000002,2.0001580000000003,-3.086888,-0.021835,-0.10282899999999999,0.201981
314,3.14,-2.604664,2.1128400000000003,-3.07,0.020782,-0.073013,0.222229
315,3.15,-2.7703290000000003,2.2249939999999997,-2.957948,0.076172,-0.057022,0.23500100000000002
316,3.16,-2.9340349999999997,2.31681,-2.786762,0.126236,-0.045319,0.245651
317,3.17,-2.942787,2.327414,-2.369391,0.172043,-0.029327,0.24992399999999998
318,3.18,-2.908041,2.295794,-1.8214970000000001,0.199753,-0.017609,0.24992399999999998
319,3.19,-2.791991,2.170573,-1.160181,0.208267,0.001556000000000001,0.25311300000000003
320,3.2,-2.801202,1.960361,-0.10587199999999997,0.196548,0.037781,0.256317
321,3.21,-2.8589330000000004,1.911386,1.0390409999999999,0.156067,0.114471,0.255249
322,3.22,-3.062601,2.378996,2.08802,0.078308,0.240173,0.246719
323,3.23,-3.031313,2.1278509999999997,3.19824,-0.031418,0.41914399999999996,0.23820500000000003
324,3.24,-2.275719,0.894135,4.338545,-0.113449,0.60556,0.229675
325,3.25,-0.9721290000000001,-0.615336,5.001365,-0.119827,0.739792,0.233948
326,3.26,0.4420390000000001,-1.555593,4.690005,-0.06337000000000001,0.744049,0.217957
327,3.27,1.714609,-2.069356,4.28561,0.03143300000000001,0.592789,0.178543
328,3.28,2.92397,-2.458066,3.934746,0.15074200000000001,0.407425,0.130615
329,3.29,3.658497,-2.343897,3.37943,0.274307,0.28279099999999996,0.06456
330,3.3,3.879233,-1.4620360000000001,2.513102,0.358475,0.20822100000000002,-0.016403000000000008
331,3.31,3.369422,-0.563728,1.831245,0.37657199999999996,0.13472,-0.08244299999999999
332,3.32,2.344494,0.209419,1.540434,0.34462,0.129395,-0.127182
333,3.33,0.930156,0.8715510000000001,1.335844,0.287094,0.24231,-0.15062
334,3.34,-0.7280699999999999,1.3842020000000002,1.192534,0.22212199999999999,0.448975,-0.155945
335,3.35,-2.2263990000000002,1.707297,1.256168,0.161392,0.698242,-0.12506099999999998
336,3.36,-3.125531,1.748346,1.448695,0.12197899999999999,0.934738,-0.067535
337,3.37,-3.6625690000000004,1.519183,1.772793,0.11665299999999999,1.1413879999999998,0.005981
338,3.38,-3.860462,0.9644209999999999,2.0984689999999997,0.12944,1.32782,0.072021
339,3.39,-3.4991120000000002,0.314834,2.27252,0.167786,1.478012,0.12529
340,3.4,-2.76131,-0.279198,2.224357,0.23063699999999998,1.5877379999999999,0.175354
341,3.41,-1.930162,-0.850184,1.992056,0.291351,1.6623080000000001,0.196655
342,3.42,-1.46376,-1.25685,1.6390330000000002,0.33610500000000004,1.725159,0.207306
343,3.43,-1.073401,-1.484725,1.312726,0.35740700000000003,1.781616,0.215836
344,3.44,-0.861777,-1.6234520000000001,1.0368,0.366989,1.84021,0.219025
345,3.45,-0.665221,-1.668437,0.8767809999999999,0.349945,1.909454,0.22648600000000002
346,3.46,-0.589126,-1.587863,0.7579239999999999,0.312668,1.9978639999999999,0.237137
347,3.47,-0.46023400000000003,-1.503857,0.789604,0.26365700000000003,2.087341,0.260574
348,3.48,-0.440514,-1.3452879999999998,0.721255,0.225311,2.157654,0.284012
349,3.49,-0.29575500000000005,-1.249097,0.711071,0.193359,2.2258299999999998,0.305313
350,3.5,-0.18953,-1.131613,0.701923,0.159271,2.284424,0.314896
351,3.51,-0.051861999999999985,-1.091438,0.671603,0.13050799999999999,2.327026,0.31703200000000004
352,3.52,0.125699,-1.14536,0.61187,0.107071,2.348343,0.301056
353,3.53,0.2287,-1.112162,0.487389,0.106003,2.34407,0.274414
354,3.54,0.364349,-1.046376,0.40712800000000005,0.111328,2.321701,0.24992399999999998
355,3.55,0.45578500000000005,-1.010899,0.32363200000000003,0.11985799999999999,2.296143,0.22116100000000002
356,3.56,0.517877,-1.095308,0.178981,0.12944,2.262054,0.196655
357,3.57,0.610812,-1.281786,-0.047133,0.14541600000000002,2.210922,0.178543
358,3.58,0.741695,-1.5402639999999999,-0.338789,0.146484,2.1501919999999997,0.165756
359,3.59,0.895534,-1.6626490000000003,-0.600899,0.14009100000000002,2.067108,0.15298499999999998
360,3.6,1.0205549999999999,-1.620643,-0.770754,0.126236,1.9733580000000002,0.138062
361,3.61,1.0164739999999999,-1.512879,-0.891001,0.11451700000000001,1.8838810000000001,0.103973
362,3.62,0.869556,-1.427608,-0.8770100000000001,0.099609,1.803986,0.060302999999999995
363,3.63,0.50347,-1.342154,-0.949009,0.093216,1.733673,0.0038450000000000008
364,3.64,0.127073,-1.148353,-1.1397629999999999,0.080429,1.6676330000000001,-0.035568
365,3.65,-0.22852399999999998,-1.0983450000000001,-1.314353,0.055938999999999996,1.5983889999999998,-0.056870000000000004
366,3.66,-0.264052,-1.177245,-1.472493,0.014388999999999997,1.52063,-0.071793
367,3.67,-0.137155,-1.239851,-1.465484,-0.021835,1.4460600000000001,-0.067535
368,3.68,-0.072766,-1.021112,-1.373989,-0.053787,1.388535,-0.07605
369,3.69,-0.030583999999999997,-0.8322379999999999,-1.125783,-0.09106399999999999,1.339539,-0.069656
370,3.7,-0.159355,-0.318803,-0.9841850000000001,-0.144333,1.3267520000000002,-0.065399
371,3.71,-0.533705,0.10203999999999998,-0.9715799999999999,-0.197601,1.34166,-0.049423
372,3.72,-0.9810209999999999,0.577008,-0.9257549999999999,-0.234879,1.336334,-0.04303
373,3.73,-1.1831969999999998,1.079511,-0.844949,-0.251923,1.31929,-0.039825
374,3.74,-1.2489780000000001,1.4495850000000001,-0.754706,-0.250854,1.290527,-0.028122
375,3.75,-1.014023,1.7998299999999998,-0.5952609999999999,-0.20185899999999998,1.228745,0.005980999999999999
376,3.76,-0.755007,1.985069,-0.611531,-0.10173,1.2085110000000001,0.023025999999999998
377,3.77,-0.69235,2.143456,-0.891383,0.054871,1.2095639999999999,0.017685
378,3.78,-0.8216629999999999,2.118835,-1.551709,0.227448,1.219162,-0.0014800000000000006
379,3.79,-0.8662700000000001,1.7564240000000002,-2.082906,0.380844,1.242599,-0.023849000000000002
380,3.8,-1.110354,1.543261,-2.515434,0.500153,1.2979889999999998,-0.060074
381,3.81,-1.426136,1.2393040000000002,-2.908605,0.581116,1.4055790000000001,-0.111206
382,3.82,-1.7263849999999998,1.1238190000000001,-3.2756060000000002,0.6471560000000001,1.55365,-0.164474
383,3.83,-1.961848,0.9606290000000001,-3.6159980000000003,0.688705,1.726227,-0.19961500000000001
384,3.84,-1.803911,0.9277610000000001,-3.7529220000000003,0.7004239999999999,1.900925,-0.207077
385,3.85,-1.123022,1.107431,-3.4050800000000003,0.667389,2.031952,-0.19856300000000002
386,3.86,-0.05761499999999997,1.430817,-2.4868080000000004,0.584305,2.036209,-0.212402
387,3.87,1.252883,2.874905,-1.093742,0.408539,1.878555,-0.22837800000000003
388,3.88,2.1491119999999997,4.286059,1.373734,0.012252999999999986,1.633545,-0.187897
389,3.89,2.240094,4.505891,4.038288,-0.353134,1.432205,-0.0867
390,3.9,1.281276,3.7763,5.966118,-0.33075,1.30545,-0.045166000000000005
391,3.91,-0.5127899999999999,2.9524939999999997,6.718267,-0.07083099999999999,1.132874,-0.033447000000000005
392,3.92,-2.581066,2.725813,7.026522,0.199753,1.003967,0.054977
393,3.93,-3.593226,2.320433,6.840558000000001,0.445816,1.055099,0.186005
394,3.94,-3.845533,1.2397209999999999,5.678984,0.654617,1.139267,0.263763
395,3.95,-4.022099,0.842925,3.6762120000000005,0.793091,1.226608,0.24246199999999998
396,3.96,-3.8987489999999996,0.8133699999999999,1.77193,0.7941590000000001,1.4013209999999998,0.167892
397,3.97,-3.188482,0.768559,0.4758640000000001,0.6450199999999999,1.580276,0.08267200000000001
398,3.98,-1.7026189999999999,0.928942,-0.219979,0.395752,1.6868130000000001,0.0006410000000000028
399,3.99,0.055474999999999934,1.030192,-0.101971,0.13583399999999998,1.734741,-0.092026
400,4.0,1.248337,1.17289,0.511552,-0.05059799999999999,1.700653,-0.18896500000000002
401,4.01,1.6309120000000001,1.29388,1.334557,-0.127289,1.5983889999999998,-0.291229
402,4.02,1.33999,1.243476,1.8826060000000002,-0.125168,1.4599,-0.398819
403,4.03,0.638193,0.883975,2.37569,-0.09106399999999999,1.323547,-0.47766099999999995
404,4.04,-0.379902,0.2453309999999999,2.37415,-0.031418,1.2489780000000001,-0.5362399999999999
405,4.05,-1.417162,-0.335009,2.0636259999999997,0.029297000000000004,1.23407,-0.5628810000000001
406,4.06,-2.298941,-0.880049,1.6506490000000003,0.099609,1.2564389999999999,-0.5628810000000001
407,4.07,-2.905611,-1.370689,1.10311,0.153946,1.31929,-0.547958
408,4.08,-3.185547,-1.901991,0.7149270000000001,0.177368,1.395996,-0.5287930000000001
409,4.09,-3.117257,-2.645216,0.359617,0.166718,1.486542,-0.494705
410,4.1,-2.75573,-3.21694,0.039628,0.126236,1.554718,-0.46273800000000004
411,4.11,-2.3782799999999997,-3.61476,-0.206496,0.066589,1.591995,-0.439301
412,4.12,-1.9760790000000001,-3.766886,-0.382427,0.010132000000000002,1.597321,-0.40734899999999996
413,4.13,-1.634343,-3.727692,-0.431187,-0.054854999999999994,1.573883,-0.37858600000000003
414,4.14,-1.267192,-3.623669,-0.370394,-0.14221199999999998,1.532349,-0.334915
415,4.15,-0.9197190000000001,-3.3849139999999998,-0.249677,-0.230621,1.4673610000000001,-0.266739
416,4.16,-0.612556,-3.0307049999999998,-0.1024,-0.28389000000000003,1.385345,-0.178314
417,4.17,-0.376938,-2.629537,-0.075786,-0.304123,1.280945,-0.09629800000000001
418,4.18,-0.246408,-2.147401,-0.11772,-0.319046,1.175476,-0.020660000000000005
419,4.19,-0.27226999999999996,-1.6432330000000002,-0.187227,-0.326492,1.087067,0.033676
420,4.2,-0.45921000000000006,-1.160855,-0.196776,-0.32009899999999997,1.030609,0.081604
421,4.21,-0.6577149999999999,-0.6972550000000001,-0.27423600000000004,-0.29133600000000004,0.997589,0.118896
422,4.22,-1.06618,-0.33378,-0.376538,-0.234879,0.974152,0.138062
423,4.23,-1.536389,-0.069844,-0.617037,-0.174164,0.944321,0.143387
424,4.24,-2.026748,-0.083803,-0.952723,-0.11024500000000001,0.905975,0.15724200000000002
425,4.25,-2.138375,-0.287752,-1.239552,-0.067642,0.876144,0.17002899999999999
426,4.26,-2.3339090000000002,-0.616689,-1.501527,-0.028229,0.856964,0.176422
427,4.27,-2.197057,-0.823422,-1.7840049999999998,0.021850999999999995,0.8399200000000001,0.19133
428,4.28,-1.968234,-0.913301,-2.110097,0.080429,0.818619,0.197723
429,4.29,-1.628266,-0.922384,-2.468797,0.124115,0.7823939999999999,0.20837399999999998
430,4.3,-1.417299,-1.029353,-2.5343400000000003,0.128372,0.7547,0.20837399999999998
431,4.31,-1.2960770000000001,-1.057022,-2.3682950000000003,0.09535199999999999,0.763229,0.20944200000000002
432,4.32,-1.541902,-0.889769,-2.1773990000000003,0.033569,0.817551,0.20837399999999998
433,4.33,-1.697962,-0.603173,-1.929314,-0.039932,0.822876,0.217957
434,4.34,-1.494542,-0.177065,-1.690638,-0.11131300000000001,0.719543,0.24778699999999998
435,4.35,-0.825224,0.5174880000000001,-1.577149,-0.16030899999999998,0.562958,0.290405
436,4.36,0.008396000000000016,1.6873900000000002,-1.7440650000000002,-0.178421,0.394638,0.308502
437,4.37,0.336253,3.068538,-2.00857,-0.184814,0.230591,0.25311300000000003
438,4.38,0.115877,3.8738269999999995,-2.0464580000000003,-0.15712,0.11981199999999999,0.171097
439,4.39,-0.209605,4.259951999999999,-1.8711400000000002,-0.06337000000000001,0.081451,0.124222
440,4.4,-0.8183189999999999,4.372515,-1.464324,0.114517,0.08998099999999999,0.10504200000000001
441,4.41,-1.632875,3.9761919999999997,-1.0960940000000001,0.345688,0.12725799999999998,0.090134
442,4.42,-2.55519,3.174461,-0.786801,0.547028,0.16667200000000001,0.043259
443,4.43,-3.6322449999999997,2.343093,-0.04058899999999999,0.6471560000000001,0.226334,-0.022781
444,4.44,-4.702614,1.494949,1.097883,0.630112,0.36055,-0.10055499999999999
445,4.45,-4.947455000000001,0.783022,2.2041020000000002,0.547028,0.486252,-0.192169
446,4.46,-4.618982,0.16797799999999996,3.45939,0.40321399999999996,0.6108859999999999,-0.276321
447,4.47,-3.18018,-0.6356079999999998,4.731708,0.25088499999999997,0.746185,-0.292297
448,4.48,-0.789992,-1.416428,5.403141000000001,0.164597,0.850571,-0.26886
449,4.49,0.923537,-1.151442,4.87737,0.15074200000000001,0.816483,-0.282715
450,4.5,1.6799490000000001,-0.005607000000000029,4.110309,0.22424299999999997,0.770676,-0.315735
451,4.51,2.643106,1.5153299999999998,3.3166230000000003,0.365921,0.911301,-0.344498
452,4.52,3.212475,2.909163,2.314279,0.48203999999999997,1.119019,-0.393494
453,4.53,2.578594,3.7875669999999997,1.6164290000000001,0.499084,1.2298129999999998,-0.44250500000000004
454,4.54,1.287767,4.142733,1.333224,0.447952,1.255371,-0.47659300000000004
455,4.55,-0.656247,3.824074,1.121173,0.366989,1.291595,-0.445694
456,4.56,-2.5175240000000003,3.140216,1.040835,0.287094,1.422623,-0.338104
457,4.57,-3.6869089999999995,2.3721959999999997,1.001339,0.241287,1.6037139999999999,-0.187897
458,4.58,-4.261215,1.609966,1.250607,0.23170500000000002,1.774155,-0.029174999999999993
459,4.59,-4.3094589999999995,0.9160950000000001,1.5583850000000001,0.23170500000000002,1.9169009999999997,0.12529
460,4.6,-3.495914,0.17452599999999996,1.744643,0.234894,2.022369,0.25204499999999996
461,4.61,-2.511762,-0.666883,1.6550080000000003,0.249817,2.056458,0.324493
462,4.62,-1.429864,-1.278042,1.212034,0.27111799999999997,2.048996,0.386276
463,4.63,-0.761267,-1.647096,0.704295,0.282837,2.0106509999999997,0.41716000000000003
464,4.64,-0.10593500000000006,-1.9049580000000002,0.347294,0.265793,1.98082,0.42782600000000004
465,4.65,0.281395,-2.139448,0.13634199999999996,0.2285,1.996796,0.413971
466,4.66,0.43628999999999996,-2.289246,-0.030919,0.173111,2.064972,0.38095100000000004
467,4.67,0.40073800000000004,-2.539709,-0.080106,0.11026,2.1459349999999997,0.359634
468,4.68,0.145939,-2.759264,-0.093805,0.043151999999999996,2.2162479999999998,0.34259
469,4.69,-0.14996099999999998,-2.9073279999999997,0.043125,-0.019699,2.269501,0.338333
470,4.7,-0.389927,-2.970666,0.21198499999999998,-0.080414,2.306793,0.341537
471,4.71,-0.462879,-2.840854,0.308952,-0.147537,2.3238369999999997,0.344727
472,4.72,-0.377236,-2.672991,0.324313,-0.19334400000000002,2.317444,0.34686300000000003
473,4.73,-0.17945,-2.405042,0.17426800000000006,-0.208252,2.294006,0.341537
474,4.74,0.095726,-2.063551,-0.042786999999999985,-0.197601,2.251404,0.32768200000000003
475,4.75,0.48536,-1.9009580000000001,-0.24661,-0.184814,2.180023,0.302124
476,4.76,0.879447,-1.6930669999999999,-0.457887,-0.173096,2.072433,0.264832
477,4.77,1.3192629999999999,-1.512743,-0.643759,-0.178421,1.9414060000000002,0.237137
478,4.78,1.727911,-1.419081,-0.773169,-0.192276,1.79866,0.215836
479,4.79,2.111475,-1.3603459999999998,-0.9163959999999999,-0.183746,1.6559139999999999,0.196655
480,4.8,2.122816,-1.254086,-1.151805,-0.169907,1.525955,0.178543
481,4.81,1.997264,-1.121532,-1.431263,-0.15498399999999998,1.409836,0.146591
482,4.82,1.493496,-0.980194,-1.6882,-0.131546,1.300125,0.107178
483,4.83,0.9299780000000001,-0.8893120000000001,-1.813205,-0.108124,1.202118,0.060302999999999995
484,4.84,0.403588,-0.752645,-1.8548790000000002,-0.080414,1.112625,0.027282999999999998
485,4.85,-0.017101,-0.59329,-1.828944,-0.046326,1.035934,0.008102
486,4.86,-0.228737,-0.362746,-1.7741619999999998,-0.011184999999999999,0.9549709999999999,0.016632
487,4.87,-0.628045,-0.234927,-1.577434,-0.009048,0.885727,0.029404000000000003
488,4.88,-0.651841,-0.429096,-1.1090870000000002,-0.032486,0.854843,0.05072
489,4.89,-0.810769,-0.30233499999999996,-0.880217,-0.009048,0.818619,0.066696
490,4.9,-0.699896,-0.3502,-0.6685479999999999,-0.018631,0.7823939999999999,0.077347
491,4.91,-0.427334,-0.07924099999999999,-0.43362399999999995,-0.048462,0.7973180000000001,0.08374
492,4.92,-0.07889600000000001,0.45344700000000004,-0.510235,-0.075089,0.812225,0.09120199999999999
493,4.93,0.330275,1.170168,-0.7645850000000001,-0.066574,0.7845310000000001,0.10504200000000001
494,4.94,0.761049,1.888247,-1.0824989999999999,-0.042068,0.716354,0.12529
495,4.95,0.8310209999999999,2.3948110000000002,-1.267128,0.018646,0.639648,0.145523
496,4.96,0.594454,2.551619,-1.418159,0.11985799999999999,0.620483,0.151917
497,4.97,0.318064,2.574152,-1.505264,0.284973,0.609833,0.135941
498,4.98,-0.14068600000000006,2.665542,-1.58499,0.48736599999999997,0.599167,0.101852
499,4.99,-0.620789,2.747867,-1.580274,0.6631319999999999,0.6481779999999999,0.041122000000000006
500,5.0,-0.905667,3.1150450000000003,-1.56844,0.777115,0.724869,-0.064331
501,5.01,-1.063625,3.66586,-0.637721,0.7164,0.804764,-0.209213
502,5.02,-1.110115,4.667288,1.193128,0.375519,0.854843,-0.25608800000000004
503,5.03,-1.3725319999999999,5.490035,2.639952,0.054871,0.8399200000000001,-0.157013
504,5.04,-1.440884,5.318124,3.313336,-0.037811000000000004,0.910233,0.011306999999999998
505,5.05,-1.2516610000000001,3.740726,3.5712589999999995,0.010132000000000002,0.9805450000000001,0.15724200000000002
506,5.06,-0.9083760000000001,1.8836580000000003,3.594438,0.158203,0.9432530000000001,0.217957
507,5.07,-1.165758,0.529921,3.3704160000000005,0.368057,0.854843,0.233948
508,5.08,-1.5551780000000002,-0.15858699999999998,2.70034,0.529984,0.799438,0.222229
509,5.09,-1.8103150000000001,-0.501496,2.2108529999999997,0.599213,0.81543,0.140198
510,5.1,-1.943028,-0.728791,1.863025,0.5715180000000001,0.944321,0.024078
511,5.11,-2.161807,-0.718437,1.384196,0.44262700000000005,1.191467,-0.09309400000000001
512,5.12,-2.086575,-0.627358,0.866431,0.239166,1.454575,-0.186844
513,5.13,-1.678498,-0.32507199999999997,0.604014,0.016524999999999998,1.6079860000000001,-0.24116500000000002
514,5.14,-1.295699,-0.024567000000000002,0.568177,-0.166702,1.6410060000000002,-0.276321
515,5.15,-1.041311,0.185024,0.793018,-0.27003499999999997,1.596268,-0.297623
516,5.16,-1.1885569999999999,0.324842,1.204205,-0.287079,1.523819,-0.31147800000000003
517,5.17,-1.556237,0.415896,1.556671,-0.262573,1.472687,-0.33171100000000003
518,5.18,-1.903872,0.280283,1.959516,-0.225296,1.437531,-0.350891
519,5.19,-2.21252,0.08349900000000003,2.319175,-0.19439700000000001,1.442856,-0.359406
520,5.2,-2.3201509999999996,-0.115711,2.3814889999999997,-0.135818,1.476944,-0.36473099999999997
521,5.21,-2.4595439999999997,-0.478837,2.077693,-0.051651,1.507843,-0.367935
522,5.22,-2.426589,-0.836341,1.496792,0.029297,1.542999,-0.363678
523,5.23,-2.156333,-1.308767,0.888971,0.082565,1.588806,-0.34130900000000003
524,5.24,-1.792368,-1.8335669999999997,0.464909,0.099609,1.631409,-0.31147800000000003
525,5.25,-1.3604180000000001,-2.3631349999999998,0.074852,0.090027,1.6591189999999998,-0.276321
526,5.26,-0.969447,-2.702656,-0.22946999999999998,0.047409000000000014,1.6654970000000002,-0.22837800000000003
527,5.27,-0.574401,-2.855526,-0.557802,-0.011185,1.6410060000000002,-0.185776
528,5.28,-0.311054,-2.693264,-0.681146,-0.064438,1.58667,-0.146362
529,5.29,-0.21388000000000001,-2.570402,-0.775442,-0.119827,1.502518,-0.11866800000000001
530,5.3,-0.24180300000000002,-2.3613180000000003,-0.807906,-0.169907,1.388535,-0.089905
531,5.31,-0.431699,-2.044785,-0.8327129999999999,-0.224228,1.280945,-0.060074
532,5.32,-0.648911,-1.615073,-0.808212,-0.259384,1.194656,-0.035568
533,5.33,-0.949633,-1.1294520000000001,-0.858822,-0.265778,1.125412,-0.018524000000000002
534,5.34,-1.218281,-0.7166819999999999,-0.770986,-0.245529,1.066818,-0.004684000000000001
535,5.35,-1.436623,-0.435183,-0.78069,-0.215714,1.024216,0.016632
536,5.36,-1.632387,-0.316286,-0.8953909999999999,-0.181625,0.983734,0.039001
537,5.37,-1.6656689999999998,-0.360272,-1.070267,-0.145401,0.944321,0.06562799999999999
538,5.38,-1.506979,-0.577466,-1.313174,-0.10173,0.916626,0.093323
539,5.39,-1.361132,-1.06607,-1.6519759999999999,-0.048462,0.884659,0.12101700000000001
540,5.4,-1.141964,-1.238277,-2.1271150000000003,0.011199999999999995,0.8420559999999999,0.138062
541,5.41,-0.9165110000000001,-1.1760620000000002,-2.696335,0.048477,0.760025,0.14871199999999998
542,5.42,-0.583476,-1.047825,-3.126605,0.07084700000000001,0.6481779999999999,0.15830999999999998
543,5.43,-0.306823,-0.975476,-3.216118,0.076172,0.5565640000000001,0.161499
544,5.44,-0.167568,-1.039427,-2.8676779999999997,0.059128,0.5320590000000001,0.161499
545,5.45,-0.343802,-1.096973,-2.26678,0.004807,0.5533600000000001,0.150848
546,5.46,-0.5497029999999999,-0.9001030000000001,-1.672467,-0.05271900000000001,0.533127,0.143387
547,5.47,-0.803198,-0.410704,-0.9920709999999999,-0.098526,0.411682,0.142334
548,5.48,-0.938681,0.32315900000000003,-0.5150020000000001,-0.10491900000000001,0.288116,0.143387
549,5.49,-0.896342,1.227167,-0.639941,-0.098526,0.26574699999999996,0.127411
550,5.5,-1.2008159999999999,2.6430000000000002,-1.229432,-0.08255,0.284927,0.067764
551,5.51,-1.985297,3.848872,-1.791132,-0.05271900000000001,0.29237399999999997,-0.018524
552,5.52,-2.4100509999999997,4.15355,-2.201025,0.04422000000000001,0.279587,-0.065399
553,5.53,-2.320453,4.071155,-2.474607,0.23170500000000002,0.248703,-0.047287
554,5.54,-2.238126,3.750838,-2.687653,0.468185,0.214615,0.021957000000000004
555,5.55,-2.046907,3.382966,-2.637635,0.6524810000000001,0.147507,0.09120199999999999
556,5.56,-2.226871,2.605611,-1.706598,0.649292,0.099564,0.123154
557,5.57,-2.797758,2.2510779999999997,-0.04880499999999988,0.483109,0.10488900000000001,0.08374
558,5.58,-3.6347150000000004,2.25435,1.856491,0.27111799999999997,0.16134600000000002,-0.033447000000000005
559,5.59,-3.502636,1.8012139999999999,3.712165,0.094284,0.259354,-0.13250699999999999
560,5.6,-2.3813150000000003,0.5905130000000001,5.35609,0.0016019999999999993,0.410629,-0.18045
561,5.61,-0.03785299999999992,-0.765579,6.241675,0.046341,0.636459,-0.160202
562,5.62,1.699598,-0.920773,5.683978,0.175247,0.727005,-0.166595
563,5.63,2.564308,0.09344799999999998,4.415538,0.305206,0.643921,-0.21453899999999998
564,5.64,3.3967870000000002,1.5350629999999998,3.143883,0.41600000000000004,0.631134,-0.272064
565,5.65,4.248485,2.7766900000000003,2.1036200000000003,0.520386,0.641785,-0.322128
566,5.66,4.001786,3.115724,1.210122,0.587494,0.634323,-0.37751799999999996
567,5.67,3.1363380000000003,2.641842,0.6989529999999999,0.6088100000000001,0.599167,-0.398819
568,5.68,1.972981,2.1529119999999997,0.386369,0.5853729999999999,0.591721,-0.372192
569,5.69,0.3239320000000001,1.474117,0.225863,0.503342,0.636459,-0.318939
570,5.7,-1.201562,0.9010799999999999,0.293979,0.390427,0.728073,-0.233704
571,5.71,-2.306861,0.392177,0.592951,0.286026,0.84845,-0.12078900000000001
572,5.72,-3.038007,0.009285999999999987,1.004434,0.202942,0.9848020000000001,-0.00041200000000000253
573,5.73,-3.209663,-0.283875,1.438021,0.144348,1.111572,0.11675999999999999
574,5.74,-2.815065,-0.665583,1.775191,0.13156099999999998,1.173355,0.20837399999999998
575,5.75,-2.0295,-1.046034,1.8062099999999999,0.154999,1.171219,0.28294400000000003
576,5.76,-1.104074,-1.39608,1.562176,0.19229100000000002,1.138199,0.32981900000000003
577,5.77,-0.46424,-1.8370099999999998,1.101076,0.212524,1.104111,0.344727
578,5.78,0.12541199999999994,-2.240262,0.7805350000000001,0.21785,1.085999,0.336212
579,5.79,0.62255,-2.5420540000000003,0.44803999999999994,0.20401,1.103043,0.3181
580,5.8,1.046555,-2.7254080000000003,0.177875,0.174179,1.1413879999999998,0.28294400000000003
581,5.81,1.1532950000000002,-2.896509,-0.003345000000000001,0.14115899999999998,1.174423,0.24246199999999998
582,5.82,1.276593,-2.860547,-0.067835,0.10813900000000001,1.191467,0.21369899999999997
583,5.83,1.194801,-2.835589,0.022744,0.086823,1.1999819999999999,0.178543
584,5.84,1.1894120000000001,-2.6148580000000003,0.013874999999999995,0.07191499999999999,1.210632,0.156174
585,5.85,1.106333,-2.412718,0.03986,0.059128,1.20105,0.130615
586,5.86,1.032281,-2.1706119999999998,-0.05996300000000001,0.044219999999999995,1.197845,0.10824600000000001
587,5.87,0.972031,-2.0170049999999997,-0.206958,0.030364999999999996,1.191467,0.094391
588,5.88,1.056489,-1.906263,-0.38853499999999996,0.017578,1.16803,0.08267200000000001
589,5.89,1.262936,-1.816761,-0.556876,0.005875,1.125412,0.076279
590,5.9,1.375627,-1.632486,-0.712171,-0.00798,1.055099,0.070953
591,5.91,1.643156,-1.473876,-0.8492149999999999,-0.029282,0.9645540000000001,0.062439
592,5.92,1.901932,-1.414291,-0.95301,-0.049530000000000005,0.8612209999999999,0.054977
593,5.93,1.9841419999999999,-1.357285,-1.0006030000000001,-0.054854999999999994,0.753632,0.045395
594,5.94,1.917631,-1.3273979999999999,-1.097613,-0.045273,0.650299,0.029404000000000003
595,5.95,1.63014,-1.2415260000000001,-1.183298,-0.01651,0.58107,0.013428
596,5.96,1.293133,-1.24985,-1.309709,0.019714,0.548035,-0.011078
597,5.97,0.788762,-1.360981,-1.520967,0.033569,0.5565640000000001,-0.032379000000000005
598,5.98,0.30749099999999996,-1.580812,-1.77627,0.013321000000000001,0.584259,-0.06221
599,5.99,-0.07316900000000003,-1.692738,-2.0609610000000003,-0.004790999999999999,0.606628,-0.09629800000000001
600,6.0,-0.135605,-1.6933200000000002,-2.200483,-0.025024,0.604507,-0.101624
601,6.01,-0.134509,-1.293632,-2.291986,-0.042068,0.555496,-0.097351
602,6.02,0.184615,-0.854182,-2.15395,-0.071899,0.481995,-0.060074
603,6.03,0.632193,-0.370614,-1.8323349999999998,-0.118774,0.394638,-0.017456
604,6.04,0.919035,0.694329,-1.7089590000000001,-0.19439700000000001,0.291306,0.027283
605,6.05,1.102347,1.2994139999999998,-1.409767,-0.284943,0.276398,0.078415
606,6.06,1.11942,1.96783,-1.194876,-0.322235,0.32113600000000003,0.085861
607,6.07,1.206389,2.656087,-1.039783,-0.29986599999999997,0.315811,0.076279
608,6.08,1.023247,3.166802,-0.894375,-0.232758,0.23805199999999999,0.053909000000000006
609,6.09,0.49172200000000005,3.368958,-0.797441,-0.125168,0.164551,0.028350999999999998
610,6.1,0.078071,3.359919,-0.979772,0.028243999999999988,0.20076,-0.012131
611,6.11,-0.138521,3.2416840000000002,-1.551025,0.23063699999999998,0.331787,-0.055817
612,6.12,-0.41611099999999995,3.0049930000000002,-2.328494,0.44262700000000005,0.48092700000000005,-0.103745
613,6.13,-0.8913909999999999,2.630143,-3.064449,0.637573,0.60556,-0.14743
614,6.14,-1.232002,2.300698,-3.5203379999999997,0.779251,0.7067720000000001,-0.19003299999999998
615,6.15,-1.246338,2.228872,-3.7221,0.825058,0.774948,-0.210281
616,6.16,-0.34480700000000003,2.780496,-3.3109910000000005,0.715332,0.767487,-0.192169
617,6.17,1.2131580000000002,3.7891440000000003,-2.010838,0.426651,0.6258090000000001,-0.094162
618,6.18,2.816558,4.413895,0.3750520000000001,-0.003723000000000004,0.40103099999999997,0.080536
619,6.19,4.491862,3.593144,3.3047059999999995,-0.311584,0.202896,0.25204499999999996
620,6.2,5.006021,1.620663,5.949489,-0.38722199999999996,0.048431,0.26908899999999997
621,6.21,3.1955,0.0863250000000001,7.288785000000001,-0.288147,-0.086853,0.186005
622,6.22,0.8509639999999999,-0.481634,7.068434,-0.07402000000000003,-0.13372799999999999,0.130615
623,6.23,-1.12142,-0.14296200000000006,6.08873,0.16246,-0.098572,0.12529
624,6.24,-1.9721919999999997,0.06361499999999999,4.906364,0.34782399999999997,-0.086853,0.118896
625,6.25,-2.6221229999999998,0.528729,3.397965,0.459671,-0.06662,0.10929900000000001
626,6.26,-2.704838,1.352947,2.018821,0.477783,0.10809300000000001,0.103973
627,6.27,-2.0612630000000003,1.482776,0.915243,0.39361599999999997,0.343506,0.101852
628,6.28,-0.6746220000000002,1.589904,0.04803000000000002,0.21891799999999997,0.493713,0.110367
629,6.29,0.8550180000000001,1.6066850000000001,-0.532963,0.023971999999999997,0.472412,0.10824600000000001
630,6.3,1.9488459999999999,1.4662680000000001,-0.56926,-0.129425,0.27426100000000003,0.080536
631,6.31,2.575168,0.9801850000000001,0.07305199999999999,-0.230621,-0.030396000000000006,0.019821000000000002
632,6.32,2.5665169999999997,0.326044,1.0945209999999999,-0.274292,-0.32014499999999996,-0.066467
633,6.33,2.214159,-0.426746,2.003584,-0.274292,-0.496979,-0.149551
634,6.34,1.7241900000000001,-1.2063139999999999,2.420264,-0.23381,-0.5875239999999999,-0.23265100000000002
635,6.35,1.063505,-1.9131220000000002,2.373703,-0.1763,-0.629074,-0.29443400000000003
636,6.36,0.520282,-2.574056,2.084743,-0.103851,-0.626953,-0.33064299999999996
637,6.37,-0.048096000000000035,-3.088099,1.603767,-0.026093,-0.6003109999999999,-0.350891
638,6.38,-0.475846,-3.211759,0.9533510000000001,0.034622,-0.554504,-0.359406
639,6.39,-0.8799610000000001,-3.345102,0.3137190000000001,0.049545,-0.49272200000000005,-0.35835300000000003
640,6.4,-1.097758,-3.265894,-0.177358,0.036758,-0.4384,-0.34130900000000003
641,6.41,-1.310567,-3.178929,-0.533409,0.012253,-0.407501,-0.325317
642,6.42,-1.534131,-3.112862,-0.631871,-0.015441999999999999,-0.3862,-0.302948
643,6.43,-1.64615,-2.873001,-0.812998,-0.062317,-0.3862,-0.278458
644,6.44,-1.6448009999999997,-2.588836,-0.775356,-0.120895,-0.406433,-0.257141
645,6.45,-1.450965,-2.446831,-0.702236,-0.15925599999999998,-0.428802,-0.24330100000000002
646,6.46,-1.2149370000000002,-2.222053,-0.635084,-0.177353,-0.465027,-0.22412100000000001
647,6.47,-0.927903,-2.04792,-0.532194,-0.178421,-0.49058500000000005,-0.203888
648,6.48,-0.6145010000000001,-1.835825,-0.5484939999999999,-0.177353,-0.49378999999999995,-0.18045
649,6.49,-0.359331,-1.61743,-0.51941,-0.16030899999999998,-0.482071,-0.14743
650,6.5,-0.26884600000000003,-1.392849,-0.555883,-0.130493,-0.451172,-0.10907
651,6.51,-0.28125100000000003,-1.246916,-0.662119,-0.095337,-0.40536500000000003,-0.07605
652,6.52,-0.503983,-1.208202,-0.8252149999999999,-0.054854999999999994,-0.34571799999999997,-0.05368
653,6.53,-0.772759,-1.344558,-1.110034,-0.012238,-0.273285,-0.028122
654,6.54,-1.056845,-1.68354,-1.397999,0.012253,-0.214691,-0.008942
655,6.55,-1.201108,-2.005486,-1.6553060000000002,0.021851,-0.185928,0.013428
656,6.56,-1.313776,-2.047548,-1.855566,0.023972,-0.16781600000000002,0.029404000000000003
657,6.57,-1.407058,-1.848053,-2.122764,0.020782,-0.144379,0.045395
658,6.58,-1.433429,-1.482444,-2.433173,0.02504,-0.12626600000000002,0.059235
659,6.59,-1.2170370000000001,-1.144659,-2.706886,0.021851,-0.13159200000000001,0.052841
660,6.6,-0.789397,-0.8543069999999999,-2.585836,-0.015441999999999999,-0.15184,0.035797
661,6.61,-0.280829,-0.650249,-2.144438,-0.09320099999999999,-0.139053,0.016632
662,6.62,0.043516,-0.22755300000000003,-1.650854,-0.219971,-0.086853,0.005981
663,6.63,0.092162,0.4668840000000001,-1.170966,-0.370178,-0.062363,-0.007873999999999999
664,6.64,-0.026846,1.265401,-0.661737,-0.46177700000000005,-0.088989,-0.014266999999999998
665,6.65,-0.214901,2.170225,-0.37951,-0.462845,-0.13159200000000001,-0.028122
666,6.66,-0.529601,3.467773,-0.264021,-0.38295,-0.16888399999999998,-0.072861
667,6.67,-1.149335,4.759374,-0.135324,-0.257248,-0.164627,-0.153809
668,6.68,-1.4476149999999999,5.103041999999999,0.03447,-0.10491900000000001,-0.098572,-0.222
669,6.69,-1.405613,4.9283779999999995,-0.32601399999999997,0.09642,0.012207000000000004,-0.222
670,6.7,-1.1087690000000001,4.452415,-0.917098,0.379776,0.029251,-0.164474
671,6.71,-0.547204,3.923638,-1.763234,0.668457,-0.064484,-0.083511
672,6.72,0.130959,3.346589,-2.361866,0.842102,-0.262619,-0.020659999999999998
673,6.73,0.304412,2.827998,-2.385111,0.8218540000000001,-0.47993500000000006,0.013428
674,6.74,-0.242504,2.785374,-1.3957629999999999,0.577911,-0.574753,-0.0036160000000000007
675,6.75,-1.540934,2.414557,0.37388499999999997,0.233841,-0.432007,-0.121857
676,6.76,-3.075323,1.491798,2.050919,0.019713999999999995,-0.139053,-0.252884
677,6.77,-3.254477,-0.052039000000000064,3.5781389999999997,-0.053787,0.08998099999999999,-0.283783
678,6.78,-1.937109,-1.2081620000000002,4.669784,-0.045273,0.264679,-0.269928
679,6.79,-0.3776059999999999,-1.3175219999999999,4.8033529999999995,-0.006912000000000005,0.31901599999999997,-0.285904
680,6.8,1.315973,-0.739348,4.550318,0.11026,0.196503,-0.30189499999999997
681,6.81,2.9432099999999997,0.2787350000000001,3.833041,0.266861,0.143234,-0.298691
682,6.82,4.25465,1.3753540000000002,2.481346,0.410675,0.147507,-0.308273
683,6.83,4.790469,2.089036,1.220699,0.45541400000000004,0.17413299999999998,-0.335983
684,6.84,4.193956,2.004019,0.18493099999999998,0.379776,0.21675100000000003,-0.351959
685,6.85,2.952557,1.6729349999999998,-0.358939,0.23170500000000002,0.24549899999999997,-0.333847
686,6.86,1.3577270000000001,1.423376,-0.54528,0.07724,0.251892,-0.292297
687,6.87,-0.12661900000000004,1.167294,-0.13800199999999999,-0.049530000000000005,0.28065500000000004,-0.20282
688,6.88,-1.072807,0.910716,0.4126639999999999,-0.152863,0.365875,-0.08244299999999999
689,6.89,-1.640697,0.391961,1.134336,-0.23381,0.486252,0.102921
690,6.9,-1.454345,0.00995399999999999,1.425067,-0.230621,0.521408,0.21369899999999997
691,6.91,-0.993668,-0.5227840000000001,1.551836,-0.191208,0.534195,0.297852
692,6.92,-0.372422,-1.254054,1.545266,-0.137939,0.52887,0.34259
693,6.93,0.13407999999999998,-1.8410549999999999,1.39504,-0.08680700000000001,0.505432,0.369232
694,6.94,0.44995,-2.472925,1.089835,-0.06018099999999999,0.49585,0.377747
695,6.95,0.796968,-3.043894,0.681401,-0.062317,0.49157700000000004,0.38307199999999997
696,6.96,1.121417,-3.336057,0.24014000000000002,-0.094269,0.488388,0.385208
697,6.97,1.570748,-3.5707169999999997,-0.06912599999999999,-0.136871,0.481995,0.378815
698,6.98,1.814186,-3.637486,-0.190462,-0.191208,0.47880600000000006,0.367096
699,6.99,1.9621990000000002,-3.6687790000000002,-0.23145300000000002,-0.248734,0.470276,0.344727
700,7.0,2.154118,-3.4789269999999997,-0.24465,-0.306259,0.474533,0.322357
701,7.01,2.17098,-3.2315709999999997,-0.248331,-0.356323,0.47773699999999997,0.29998800000000003
702,7.02,2.034368,-2.863451,-0.233537,-0.380829,0.472412,0.27015700000000004
703,7.03,1.830053,-2.5283990000000003,-0.30183699999999997,-0.394669,0.456421,0.23074299999999998
704,7.04,1.422533,-2.263442,-0.30135500000000004,-0.392548,0.450043,0.186005
705,7.05,1.129991,-2.06783,-0.290518,-0.379761,0.456421,0.144455
706,7.06,1.0043600000000001,-1.908425,-0.332899,-0.358459,0.448975,0.114624
707,7.07,0.931975,-1.708252,-0.3886,-0.32009899999999997,0.43193100000000006,0.08906599999999999
708,7.08,1.049079,-1.485293,-0.5557810000000001,-0.27003499999999997,0.415955,0.066696
709,7.09,1.283441,-1.3383479999999999,-0.8974770000000001,-0.213577,0.394638,0.044327
710,7.1,1.4888540000000001,-1.444542,-1.264402,-0.16030899999999998,0.34989899999999996,0.021957
711,7.11,1.6311,-1.490306,-1.6606400000000001,-0.11131300000000001,0.296646,-0.002548
712,7.12,1.500803,-1.3987049999999999,-2.02842,-0.07296799999999999,0.247635,-0.032379000000000005
713,7.13,1.05764,-1.379848,-2.2639549999999997,-0.049530000000000005,0.223129,-0.063263
714,7.14,0.7563300000000001,-1.3235860000000002,-2.579911,-0.031418,0.230591,-0.112274
715,7.15,0.5150560000000001,-1.07592,-2.798261,-0.009048,0.20929,-0.154877
716,7.16,0.327895,-0.918636,-3.14534,0.007996,0.20715300000000003,-0.167664
717,7.17,0.386128,-0.902625,-3.0783419999999997,0.006927,0.21141100000000002,-0.148483
718,7.18,0.505451,-0.682181,-2.734236,-0.03674299999999999,0.20503200000000002,-0.11866800000000001
719,7.19,0.6270680000000001,0.05189499999999991,-2.2820810000000002,-0.127289,0.16880799999999999,-0.07498200000000001
720,7.2,0.8345819999999999,1.2427320000000002,-1.728002,-0.25299099999999997,0.124069,-0.018524000000000002
721,7.21,1.127356,2.8229349999999998,-1.418567,-0.32969699999999996,0.117676,0.046448
722,7.22,1.6246459999999998,4.348079,-1.532777,-0.331818,0.13258399999999998,0.138062
723,7.23,2.13101,4.938353,-1.72098,-0.25405900000000003,0.110214,0.21690399999999999
724,7.24,1.850718,4.689514,-1.7155349999999998,-0.11131300000000001,0.051620000000000006,0.23500100000000002
725,7.25,1.486479,4.152326,-1.6998849999999999,0.09642,0.052689,0.20411700000000002
726,7.26,0.866555,3.485302,-1.902196,0.366989,0.110214,0.10824600000000001
727,7.27,-0.06522000000000006,2.725739,-2.21597,0.6290439999999999,0.22419699999999998,-0.044097999999999984
728,7.28,0.182625,2.658172,-2.387298,0.736633,0.31901599999999997,-0.24009699999999998
729,7.29,2.222641,3.5382190000000002,-1.348662,0.588562,0.311554,-0.334915
730,7.3,4.952064,4.399147,0.7216629999999999,0.18376199999999998,0.198639,-0.253952
731,7.31,6.416709,5.009966,3.3725129999999996,-0.255127,0.021805,-0.10588099999999999
732,7.32,5.216837,3.750429,6.0063379999999995,-0.492676,-0.13053900000000002,0.032608
733,7.33,2.434718,1.633026,7.6987,-0.45007299999999995,-0.339325,0.099716
734,7.34,-0.4835029999999999,0.7978729999999999,7.632478,-0.13261400000000004,-0.530014,0.115692
735,7.35,-2.086781,1.312725,5.879348,0.28923000000000004,-0.596054,0.21369899999999997
736,7.36,-3.268255,1.543334,4.084943,0.6407619999999999,-0.66423,0.27015700000000004
737,7.37,-3.5883529999999997,1.33352,2.940617,0.835709,-0.744125,0.271225
738,7.38,-3.5060879999999996,1.723993,1.609507,0.839966,-0.6471859999999999,0.23500100000000002
739,7.39,-2.420187,2.0320169999999997,0.567164,0.658875,-0.324417,0.20944200000000002
740,7.4,-1.0424799999999999,2.071015,-0.324523,0.398956,-0.013351000000000002,0.196655
741,7.41,0.29196599999999995,1.9250470000000002,-0.893625,0.158203,0.125137,0.194519
742,7.42,1.1119219999999999,1.448711,-0.75448,-0.047394,0.100632,0.173218
743,7.43,1.557313,0.84945,0.049929,-0.188004,-0.030396000000000006,0.129547
744,7.44,1.6995790000000002,0.279918,1.131895,-0.273239,-0.209366,0.06562799999999999
745,7.45,1.526649,-0.175784,2.163748,-0.284943,-0.37554899999999997,-0.033447000000000005
746,7.46,0.9681360000000001,-0.7085860000000002,2.7261130000000002,-0.23915100000000003,-0.46821599999999997,-0.130386
747,7.47,0.5224,-1.2553219999999998,2.696285,-0.156052,-0.500183,-0.19961500000000001
748,7.48,-0.053585,-1.999277,2.2143330000000003,-0.06337000000000001,-0.488464,-0.24969499999999997
749,7.49,-0.47923999999999994,-2.782695,1.7284490000000001,0.009064000000000001,-0.451172,-0.292297
750,7.5,-0.684137,-3.3699769999999996,1.3265129999999998,0.063385,-0.391525,-0.30722
751,7.51,-0.846025,-3.695841,0.775412,0.074051,-0.33825700000000003,-0.306152
752,7.52,-0.869499,-3.8265949999999997,0.345827,0.074051,-0.315887,-0.292297
753,7.53,-1.017311,-3.921557,-0.07073600000000001,0.054871,-0.29245,-0.27739
754,7.54,-1.0026979999999999,-3.797471,-0.42411000000000004,0.015457,-0.283936,-0.260345
755,7.55,-1.005733,-3.604345,-0.581054,-0.05165100000000001,-0.296707,-0.24542199999999997
756,7.56,-1.079982,-3.282628,-0.639943,-0.14646900000000002,-0.33399999999999996,-0.233704
757,7.57,-1.079952,-3.007006,-0.558403,-0.234879,-0.388321,-0.21560700000000002
758,7.58,-0.985613,-2.748713,-0.412577,-0.29347199999999996,-0.45970200000000006,-0.19429000000000002
759,7.59,-0.727375,-2.486046,-0.349506,-0.309448,-0.536392,-0.16127
760,7.6,-0.5013479999999999,-2.2483020000000002,-0.35604,-0.30838000000000004,-0.596054,-0.12078900000000001
761,7.61,-0.301066,-1.967354,-0.447639,-0.28282199999999996,-0.630142,-0.071793
762,7.62,-0.09618099999999999,-1.687513,-0.58733,-0.240204,-0.6407930000000001,-0.028122
763,7.63,-0.045516,-1.4818120000000001,-0.800952,-0.19334400000000002,-0.618423,0.004912999999999999
764,7.64,-0.189583,-1.351807,-1.013702,-0.145401,-0.569427,0.029404000000000003
765,7.65,-0.583547,-1.274704,-1.260664,-0.097458,-0.503372,0.05072
766,7.66,-1.059409,-1.154715,-1.540038,-0.03993200000000001,-0.451172,0.081604
767,7.67,-1.203022,-0.907169,-1.8423169999999998,0.035689999999999986,-0.43412799999999996,0.115692
768,7.68,-1.3472979999999999,-0.632779,-2.077021,0.128372,-0.433075,0.14765899999999998
769,7.69,-1.368995,-0.48808900000000005,-2.31962,0.208267,-0.407501,0.181747
770,7.7,-1.3075510000000001,-0.558713,-2.186937,0.245544,-0.363831,0.203049
771,7.71,-1.29715,-0.703082,-1.9700650000000002,0.24768099999999998,-0.267944,0.212631
772,7.72,-1.591624,-0.860715,-1.499495,0.201874,-0.169952,0.20837399999999998
773,7.73,-1.726345,-0.717366,-0.9073209999999999,0.124115,-0.147583,0.19985999999999998
774,7.74,-1.584,-0.28818299999999997,-0.260619,0.050613,-0.157166,0.194519
775,7.75,-1.198899,0.507903,0.201996,0.029297000000000004,-0.135864,0.180679
776,7.76,-0.627131,1.7136419999999999,0.296342,0.045288,-0.068741,0.159378
777,7.77,-0.443996,3.3300089999999996,-0.148478,0.106003,-0.045319,0.087997
778,7.78,-0.61321,3.8988519999999998,-0.513072,0.221054,-0.077271,0.011306999999999998
779,7.79,-0.411361,3.761598,-0.856316,0.41493199999999997,-0.100708,0.0006410000000000001
780,7.8,-0.038331,3.5338629999999998,-1.251285,0.656738,-0.112427,0.046448
781,7.81,0.478655,3.1055770000000003,-1.7426970000000002,0.9326479999999999,-0.161423,0.117828
782,7.82,1.025699,2.79678,-1.850932,1.141434,-0.329742,0.179611
783,7.83,0.6064689999999999,2.484299,-0.934968,1.112671,-0.549179,0.166824
784,7.84,-0.278904,2.649219,0.99463,0.760071,-0.682343,0.03154
785,7.85,-1.103438,2.015513,3.810628,0.239166,-0.572617,-0.17724600000000001
786,7.86,-1.47858,0.2439180000000001,5.84174,0.032501,-0.420288,-0.33064299999999996
787,7.87,-0.683384,-1.264565,6.023666,0.11879,-0.389389,-0.37751799999999996
788,7.88,0.12987000000000004,-0.653694,4.8719660000000005,0.273254,-0.356369,-0.46701000000000004
789,7.89,0.73424,0.653343,3.9795870000000004,0.385101,-0.186996,-0.5543520000000001
790,7.9,2.01293,2.166389,2.9025689999999997,0.45114099999999996,0.11235,-0.570328
791,7.91,2.8117970000000003,3.4963870000000004,1.7518490000000002,0.443695,0.392517,-0.5266569999999999
792,7.92,2.368958,4.529664,0.9747950000000001,0.359528,0.469208,-0.484055
793,7.93,0.659572,4.4884379999999995,0.818932,0.227448,0.483063,-0.44250500000000004
794,7.94,-1.387232,3.7568269999999995,0.916668,0.10919200000000001,0.560822,-0.36154200000000003
795,7.95,-2.739014,3.04929,1.253066,0.037827,0.686523,-0.24542199999999997
796,7.96,-3.347231,2.441395,1.760689,0.027176,0.8345950000000001,-0.123993
797,7.97,-3.5605260000000003,1.892534,2.4155330000000004,0.050613,0.9848020000000001,-0.00041200000000000253
798,7.98,-3.347039,1.285677,3.002447,0.10493499999999999,1.1073,0.098648
799,7.99,-2.591152,0.604442,3.189262,0.161392,1.195724,0.194519
800,8.0,-1.6110149999999999,-0.11815,3.079804,0.22212199999999999,1.2298129999999998,0.2659
801,8.01,-0.7616719999999999,-0.8508979999999999,2.737391,0.267929,1.2298129999999998,0.31596399999999997
802,8.02,-0.029741999999999987,-1.612916,2.202843,0.31053200000000003,1.2351379999999998,0.353256
803,8.03,0.718791,-2.228486,1.5603069999999999,0.340363,1.243652,0.369232
804,8.04,1.190762,-2.8369459999999997,1.005261,0.321182,1.259644,0.37348899999999996
805,8.05,1.681489,-3.359149,0.5543680000000001,0.274307,1.2798770000000002,0.36390700000000004
806,8.06,1.9369919999999998,-3.6964580000000002,0.26757,0.199753,1.291595,0.34259
807,8.07,2.027399,-3.9183220000000003,0.10842,0.101746,1.313965,0.320221
808,8.08,1.914279,-3.948229,0.120843,-0.004790999999999997,1.329941,0.29998800000000003
809,8.09,1.6642689999999998,-3.8176730000000005,0.18903699999999998,-0.099594,1.345917,0.26908899999999997
810,8.1,1.2995430000000001,-3.5962099999999997,0.32013,-0.185883,1.359772,0.24353000000000002
811,8.11,0.870721,-3.157325,0.423199,-0.256195,1.376816,0.21369899999999997
812,8.12,0.455323,-2.727214,0.47021599999999997,-0.303055,1.386398,0.184937
813,8.13,0.12810100000000002,-2.287106,0.47095200000000004,-0.33821100000000004,1.388535,0.159378
814,8.14,0.017746,-2.0214380000000003,0.49265299999999995,-0.361649,1.3949280000000002,0.140198
815,8.15,0.05739299999999999,-1.6840979999999999,0.464517,-0.35525500000000004,1.3991850000000001,0.126343
816,8.16,0.232215,-1.509958,0.23013700000000006,-0.339279,1.3991850000000001,0.11675999999999999
817,8.17,0.5175930000000001,-1.474561,0.012904,-0.315842,1.384277,0.113571
818,8.18,0.755592,-1.528604,-0.241632,-0.290283,1.355515,0.10929900000000001
819,8.19,0.846158,-1.547556,-0.548294,-0.258316,1.318222,0.099716
820,8.2,0.526273,-1.379665,-1.085037,-0.21783400000000003,1.264969,0.054977
821,8.21,0.14862300000000006,-1.2719040000000001,-1.469273,-0.19653299999999999,1.254318,0.005981
822,8.22,-0.24340799999999999,-1.217886,-1.7825509999999998,-0.182678,1.243652,-0.049423
823,8.23,-0.5192140000000001,-1.347244,-1.954062,-0.186951,1.227676,-0.11439500000000001
824,8.24,-0.515201,-1.337489,-1.9812290000000001,-0.188004,1.1935879999999999,-0.166595
825,8.25,-0.263393,-1.069184,-2.0079599999999997,-0.19014,1.138199,-0.181519
826,8.26,0.45385,-1.101378,-1.572637,-0.20506300000000002,1.03273,-0.153809
827,8.27,1.0184879999999998,-0.6006090000000001,-1.25727,-0.235947,0.874008,-0.089905
828,8.28,1.529659,0.456762,-0.893001,-0.30838000000000004,0.762161,0.0017090000000000024
829,8.29,2.035556,1.6433970000000002,-0.842266,-0.376556,0.729141,0.081604
830,8.3,2.424741,2.483514,-0.807401,-0.35525500000000004,0.692917,0.135941
831,8.31,2.503648,3.096879,-0.885603,-0.257248,0.565079,0.163635
832,8.32,2.222169,3.542535,-0.9214950000000001,-0.12303199999999999,0.378662,0.1828
833,8.33,1.667791,3.646839,-1.022866,0.046341,0.23698400000000003,0.171097
834,8.34,1.098358,3.3345480000000003,-1.128467,0.27218600000000004,0.177322,0.124222
835,8.35,0.433751,2.755516,-1.5096040000000002,0.544891,0.18371600000000002,0.057114
836,8.36,-0.190995,2.066607,-2.187368,0.8229219999999999,0.234848,-0.021729
837,8.37,-0.899719,1.365312,-2.767008,1.040237,0.343506,-0.11334200000000001
838,8.38,-1.281439,1.17331,-2.918689,1.137177,0.5065,-0.203888
839,8.39,-1.016224,1.6836229999999999,-2.258619,1.0562129999999998,0.720612,-0.274185
840,8.4,-0.293588,2.431419,-0.875,0.762207,0.911301,-0.247559
841,8.41,0.3640610000000001,2.7960119999999997,1.132541,0.366989,0.957108,-0.123993
842,8.42,0.926407,2.633223,3.436793,0.13156099999999998,0.916626,0.053909000000000006
843,8.43,0.821333,2.084034,5.284051,0.033569,0.789856,0.197723
844,8.44,-0.6807099999999999,1.352848,6.195115,0.0026700000000000005,0.635391,0.273361
845,8.45,-2.135222,1.282141,5.889972,0.086823,0.615158,0.31596399999999997
846,8.46,-2.935178,1.3482530000000001,5.125822,0.276443,0.621552,0.26269499999999996
847,8.47,-3.669863,1.877105,3.86268,0.458603,0.62793,0.14978
848,8.48,-3.9780050000000005,2.3537310000000002,2.458042,0.532104,0.617279,0.057114
849,8.49,-3.4667529999999998,2.573586,1.567283,0.507614,0.683334,-0.008941999999999999
850,8.5,-2.277103,2.441782,0.997375,0.38829,0.818619,-0.045166000000000005
851,8.51,-0.416661,1.9380680000000001,0.497346,0.23170500000000002,0.951782,-0.046219
852,8.52,1.252453,1.141014,0.170267,0.09214800000000001,0.976273,-0.044098000000000005
853,8.53,2.187435,0.525842,0.182093,-0.03035,0.8985139999999999,-0.072861
854,8.54,2.7717240000000003,0.115875,0.449661,-0.136871,0.731262,-0.108017
855,8.55,2.801383,-0.0045030000000000035,0.912724,-0.211441,0.518219,-0.170853
856,8.56,1.991177,-0.083838,1.500544,-0.247665,0.317947,-0.25501999999999997
857,8.57,0.6219770000000001,-0.259866,2.025401,-0.260452,0.181595,-0.326385
858,8.58,-0.401573,-0.562771,2.280673,-0.22636399999999998,0.11981199999999999,-0.355148
859,8.59,-1.11515,-0.979719,2.2091439999999998,-0.161377,0.11660799999999999,-0.36473099999999997
860,8.6,-1.653043,-1.576011,1.88473,-0.09320099999999999,0.138977,-0.366867
861,8.61,-1.961695,-2.176097,1.502142,-0.036743,0.193314,-0.356216
862,8.62,-2.03844,-2.576483,1.052359,-0.0037230000000000006,0.247635,-0.34024
863,8.63,-2.0398110000000003,-2.927107,0.5468689999999999,0.0037380000000000004,0.291306,-0.316803
864,8.64,-1.870948,-3.152411,0.113978,-0.011184999999999999,0.307297,-0.293365
865,8.65,-1.762348,-3.345389,-0.23337800000000003,-0.053787,0.306229,-0.260345
866,8.66,-1.454796,-3.443675,-0.341455,-0.137939,0.284927,-0.225189
867,8.67,-1.110801,-3.259509,-0.307882,-0.235947,0.23698400000000003,-0.19429000000000002
868,8.68,-0.7420680000000001,-2.9194869999999997,-0.25610900000000003,-0.324371,0.16134600000000002,-0.157013
869,8.69,-0.364709,-2.449615,-0.203326,-0.391479,0.075058,-0.11972000000000001
870,8.7,-0.105229,-1.990936,-0.091273,-0.42768900000000004,-0.002701000000000002,-0.073914
871,8.71,0.07840599999999999,-1.509044,-0.007650999999999998,-0.422363,-0.058089999999999996,-0.019592
872,8.72,0.09501799999999999,-1.201694,0.021467,-0.3936,-0.082596,0.025146
873,8.73,-0.032075,-1.015242,-0.11629500000000001,-0.34674099999999997,-0.083664,0.062439
874,8.74,-0.389094,-0.903553,-0.362408,-0.29133600000000004,-0.070877,0.08480800000000001
875,8.75,-0.718929,-0.859825,-0.512029,-0.22210700000000003,-0.046370999999999996,0.094391
876,8.76,-1.1904709999999998,-0.810473,-0.8372860000000001,-0.141144,-0.038925,0.09225499999999999
877,8.77,-1.6278219999999999,-0.55011,-1.189606,-0.07296799999999999,-0.04425,0.096527
878,8.78,-1.818682,-0.452578,-1.43669,-0.007980000000000001,-0.059158,0.127411
879,8.79,-1.8930639999999999,-0.33578,-1.6318139999999999,0.054871,-0.08046,0.15724200000000002
880,8.8,-1.860037,-0.334891,-1.743796,0.09214800000000001,-0.075134,0.175354
881,8.81,-1.7686849999999998,-0.585435,-1.757766,0.084702,-0.037857,0.178543
882,8.82,-1.6868889999999999,-0.965706,-1.486226,0.033569,0.0015560000000000018,0.16256700000000002
883,8.83,-1.6812619999999998,-1.064066,-1.015566,-0.056976,0.015411000000000001,0.127411
884,8.84,-1.7416880000000001,-0.816923,-0.539407,-0.15925599999999998,0.00795,0.070953
885,8.85,-1.4785780000000002,-0.12236300000000001,-0.17408399999999996,-0.237015,-0.016556,0.016632
886,8.86,-1.14844,0.837108,-0.098163,-0.273239,-0.050644,-0.031311
887,8.87,-1.124388,2.253896,-0.383526,-0.26364099999999996,-0.098572,-0.089905
888,8.88,-1.541928,3.120689,-0.48983000000000004,-0.24234,-0.12626600000000002,-0.16127
889,8.89,-1.4564139999999999,3.411736,-0.513411,-0.19014,-0.10282899999999999,-0.187897
890,8.9,-1.139142,3.0033,-0.546326,-0.100662,-0.07833899999999999,-0.17619300000000002
891,8.91,-0.8455229999999999,2.638493,-0.824757,0.080429,-0.077271,-0.12931800000000002
892,8.92,-0.43743699999999996,2.2867319999999998,-1.499005,0.296692,-0.153961,-0.069656
893,8.93,0.138059,1.90937,-2.194993,0.48203999999999997,-0.326538,-0.012131
894,8.94,0.5770430000000001,1.690307,-2.507525,0.558746,-0.55983,0.020888999999999998
895,8.95,0.11818099999999998,1.8783189999999998,-2.058062,0.493759,-0.7739560000000001,0.016632
896,8.96,-0.73474,2.5468740000000003,-0.880799,0.346756,-0.848526,-0.028122
897,8.97,-1.359232,3.114591,0.4549050000000001,0.18803400000000006,-0.751587,-0.117599
898,8.98,-2.0022599999999997,2.610944,2.029922,0.083633,-0.57048,-0.21453899999999998
899,8.99,-1.917948,1.32922,3.794836,0.061264,-0.39259299999999997,-0.27951
900,9.0,-1.092562,0.496342,4.876276,0.059128,-0.16781600000000002,-0.318939
901,9.01,0.580831,0.083235,5.152282,0.074051,0.02606200000000001,-0.34130900000000003
902,9.02,1.867949,0.032823000000000005,4.9180269999999995,0.149673,0.0186,-0.37858600000000003
903,9.03,2.997088,0.23473000000000002,3.7323230000000005,0.282837,-0.062363,-0.381775
904,9.04,4.099026,0.608345,1.8799400000000002,0.380844,-0.112427,-0.375397
905,9.05,4.900701000000001,0.8815069999999999,0.4353420000000001,0.35633899999999996,-0.128403,-0.366867
906,9.06,4.615354,0.821976,-0.25858400000000004,0.21998600000000001,-0.075134,-0.359406
907,9.07,3.4194199999999997,0.7923279999999999,-0.48818,0.052734,0.0015560000000000018,-0.323196
908,9.08,1.414355,0.717155,-0.576959,-0.090012,0.08252000000000001,-0.26779200000000003
909,9.09,-0.512983,0.74692,-0.343702,-0.179489,0.170944,-0.167664
910,9.1,-1.839394,0.759145,0.075862,-0.23915100000000003,0.306229,-0.045166000000000005
911,9.11,-2.804384,0.628564,0.623926,-0.266846,0.472412,0.06456
912,9.12,-3.2656400000000003,0.3605320000000001,1.193709,-0.262573,0.628998,0.176422
913,9.13,-2.96758,-0.034141000000000005,1.74236,-0.20185899999999998,0.7376560000000001,0.27655
914,9.14,-2.043968,-0.6506050000000001,2.020022,-0.112381,0.767487,0.353256
915,9.15,-1.048065,-1.277903,1.8480880000000002,-0.019699,0.755768,0.410782
916,9.16,0.011538000000000048,-1.920321,1.356607,0.057007,0.723816,0.441666
917,9.17,0.904525,-2.3461380000000003,0.793675,0.101746,0.673737,0.44805900000000004
918,9.18,1.637612,-2.762302,0.279794,0.107071,0.640717,0.421432
919,9.19,2.209754,-2.936766,-0.12601600000000002,0.07724,0.6194149999999999,0.376678
920,9.2,2.6418,-2.9282060000000003,-0.43749,0.034622,0.60556,0.323425
921,9.21,2.731974,-2.8448,-0.625783,-0.018631,0.597046,0.266968
922,9.22,2.7045220000000003,-2.695115,-0.626131,-0.07296799999999999,0.587448,0.22541799999999998
923,9.23,2.5067880000000002,-2.481041,-0.601575,-0.131546,0.562958,0.19558699999999998
924,9.24,2.24947,-2.1615450000000003,-0.494393,-0.188004,0.540588,0.17002899999999999
925,9.25,1.839535,-1.8311419999999998,-0.413484,-0.22743200000000002,0.523544,0.146591
926,9.26,1.38695,-1.4880360000000001,-0.306348,-0.255127,0.511826,0.11675999999999999
927,9.27,1.039857,-1.098131,-0.390362,-0.257248,0.49690200000000007,0.08267200000000001
928,9.28,0.797782,-0.6997899999999999,-0.401699,-0.240204,0.470276,0.047516
929,9.29,0.790768,-0.45306599999999997,-0.428922,-0.21464499999999997,0.43086199999999997,0.017685
930,9.3,0.893893,-0.402911,-0.46519499999999997,-0.173096,0.378662,-0.004684000000000001
931,9.31,1.18613,-0.577438,-0.5446340000000001,-0.137939,0.315811,-0.018524000000000002
932,9.32,1.466628,-0.8507170000000001,-0.715599,-0.10491900000000001,0.244446,-0.031311
933,9.33,1.611783,-1.193184,-0.927003,-0.083618,0.17413299999999998,-0.037704
934,9.34,1.7419509999999998,-1.503623,-1.189347,-0.064438,0.12619,-0.040894
935,9.35,1.73058,-1.610875,-1.5637459999999999,-0.056976,0.09317,-0.057937999999999996
936,9.36,1.52518,-1.6750610000000001,-1.900671,-0.06018099999999999,0.077194,-0.085632
937,9.37,1.135153,-1.76925,-2.239077,-0.084686,0.068665,-0.12506099999999998
938,9.38,0.751942,-1.7899080000000003,-2.456544,-0.11450199999999999,0.069733,-0.159149
939,9.39,0.416933,-1.493608,-2.470766,-0.161377,0.07933,-0.195358
940,9.4,0.136553,-0.9676879999999999,-2.327811,-0.216766,0.10382100000000001,-0.20814499999999997
941,9.41,-0.13380899999999998,-0.344599,-2.1116330000000003,-0.26364099999999996,0.16880799999999999,-0.212402
942,9.42,-0.309337,0.159339,-1.8894900000000001,-0.28282199999999996,0.22419699999999998,-0.20814499999999997
943,9.43,-0.353714,0.223025,-1.4179469999999998,-0.273239,0.25296,-0.18896500000000002
944,9.44,-0.132629,0.18900699999999998,-0.856771,-0.250854,0.26254299999999997,-0.141037
945,9.45,0.134376,0.46437399999999995,-0.40122800000000003,-0.23168899999999998,0.271072,-0.090958
946,9.46,0.322011,1.020721,-0.32242,-0.216766,0.29237399999999997,-0.045166000000000005
947,9.47,0.339318,1.6852209999999999,-0.438684,-0.189072,0.301971,-0.014267000000000004
948,9.48,0.560002,2.340513,-0.7356600000000001,-0.140076,0.291306,0.01236
949,9.49,0.9286969999999999,2.839523,-1.180416,-0.06337000000000001,0.270004,0.023025999999999998
950,9.5,1.308989,3.0016,-1.525902,0.049545,0.267883,0.016632
951,9.51,1.541332,2.946367,-1.8820189999999999,0.205078,0.291306,-0.013199
952,9.52,1.463131,2.757936,-2.2943119999999997,0.370193,0.342438,-0.061141999999999995
953,9.53,1.2610709999999998,2.345402,-2.773504,0.539566,0.42767299999999997,-0.11546300000000001
954,9.54,0.8705450000000001,1.9169189999999998,-3.187523,0.6652680000000001,0.518219,-0.165527
955,9.55,0.70772,1.745034,-3.395108,0.70575,0.56189,-0.204956
956,9.56,0.996554,1.932912,-2.959718,0.6088100000000001,0.524612,-0.21986399999999998
957,9.57,2.279093,2.946318,-1.8333400000000002,0.36486799999999997,0.405289,-0.165527
958,9.58,4.012104,3.714465,-0.08202299999999996,0.04421999999999998,0.192245,-0.039825
959,9.59,4.991229,3.3121970000000003,1.88838,-0.207184,-0.042114,0.075211
960,9.6,5.472715,2.19739,3.946338,-0.323303,-0.23492399999999997,0.132736
961,9.61,4.461624,0.842073,5.492171,-0.288147,-0.401108,0.119965
962,9.62,2.302475,0.242067,5.690109,-0.087875,-0.518295,0.075211
963,9.63,0.290025,0.177742,5.010301999999999,0.193359,-0.571548,0.06456
964,9.64,-1.465401,0.316952,4.037681,0.467133,-0.5662229999999999,0.076279
965,9.65,-2.622163,0.254289,3.2253990000000003,0.658875,-0.540665,0.077347
966,9.66,-3.723845,0.474521,2.603606,0.711075,-0.439453,0.056046000000000006
967,9.67,-4.349203,0.9158639999999999,1.849148,0.6290439999999999,-0.191254,0.044327
968,9.68,-3.990587,1.2529569999999999,1.13975,0.450089,0.08570899999999998,0.052841
969,9.69,-2.786607,1.691587,0.41566899999999996,0.261536,0.250839,0.076279
970,9.7,-0.957117,1.458041,-0.14036000000000004,0.11665299999999999,0.279587,0.09758
971,9.71,0.33124599999999993,0.9509709999999999,-0.31785399999999997,0.012253,0.193314,0.096527
972,9.72,1.078172,0.642312,-0.059510000000000014,-0.084686,0.038849,0.093323
973,9.73,1.9128669999999999,0.408003,0.503145,-0.15925599999999998,-0.172073,0.08267200000000001
974,9.74,2.496846,0.09011,1.156633,-0.19653299999999999,-0.38406399999999996,0.030472000000000003
975,9.75,2.6818299999999997,-0.17902,1.652512,-0.199722,-0.542786,-0.045166000000000005
976,9.76,2.482224,-0.49322299999999997,1.955355,-0.16777,-0.6280060000000001,-0.12931800000000002
977,9.77,2.01933,-1.0368959999999998,1.9250099999999999,-0.11450199999999999,-0.657837,-0.204956
978,9.78,1.21851,-1.65675,1.6634759999999997,-0.056976,-0.657837,-0.25501999999999997
979,9.79,0.530067,-2.211624,1.288162,-0.009048000000000004,-0.6407930000000001,-0.285904
980,9.8,-0.16531700000000002,-2.454236,0.888309,0.012253,-0.609909,-0.292297
981,9.81,-0.7031029999999999,-2.650837,0.581412,-0.003723,-0.565155,-0.281647
982,9.82,-1.046239,-2.744111,0.21860500000000002,-0.029282,-0.522552,-0.26353499999999996
983,9.83,-1.345423,-2.739143,-0.011073000000000001,-0.055923,-0.508698,-0.24969499999999997
984,9.84,-1.578792,-2.553809,-0.28694200000000003,-0.09640499999999999,-0.49272200000000005,-0.24009699999999998
985,9.85,-1.7234990000000001,-2.366182,-0.457017,-0.15498399999999998,-0.482071,-0.24436999999999998
986,9.86,-1.721208,-2.2204770000000003,-0.44107700000000005,-0.22210700000000003,-0.486328,-0.24649000000000001
987,9.87,-1.444007,-2.108087,-0.41631,-0.273239,-0.507629,-0.24009699999999998
988,9.88,-1.161938,-2.0115790000000002,-0.34889499999999996,-0.31797800000000004,-0.551315,-0.22837800000000003
989,9.89,-0.772189,-1.8703720000000001,-0.235158,-0.339279,-0.59819,-0.195358
990,9.9,-0.468102,-1.79263,-0.12997,-0.333954,-0.6343989999999999,-0.145294
991,9.91,-0.27874099999999996,-1.600033,-0.069395,-0.309448,-0.651443,-0.09309400000000001
992,9.92,-0.284829,-1.313787,-0.097125,-0.259384,-0.6343989999999999,-0.045166000000000005
993,9.93,-0.36586,-1.1349120000000001,-0.34115999999999996,-0.19439700000000001,-0.588593,-0.005736999999999999
994,9.94,-0.646918,-0.997492,-0.587817,-0.137939,-0.5119020000000001,0.021957
995,9.95,-0.963101,-0.9844459999999999,-0.8560459999999999,-0.092133,-0.41922,0.03154
996,9.96,-1.340937,-1.121277,-1.094019,-0.050598000000000004,-0.332932,0.037933
997,9.97,-1.6022530000000001,-1.226523,-1.3103360000000002,-0.012238000000000002,-0.256241,0.06349199999999999
998,9.98,-1.6866709999999998,-1.396472,-1.589976,0.03569,-0.214691,0.093323
999,9.99,-1.515607,-1.418841,-1.760187,0.082565,-0.208298,0.130615
1000,10.0,-1.331002,-1.325601,-2.038077,0.12197899999999999,-0.223206,0.160431
1001,10.01,-1.148665,-1.468014,-2.164602,0.107071,-0.245575,0.177475
1002,10.02,-0.6106010000000001,-1.598755,-1.97386,0.042083999999999996,-0.239197,0.17002899999999999
1003,10.03,-0.354633,-1.520404,-1.676675,-0.081482,-0.21148699999999998,0.14765899999999998
1004,10.04,-0.242972,-1.096825,-1.215852,-0.229553,-0.185928,0.117828
1005,10.05,-0.091708,-0.294824,-0.755303,-0.377625,-0.17421,0.08906599999999999
1006,10.06,-0.074681,0.606494,-0.34944200000000003,-0.49054,-0.169952,0.075211
1007,10.07,0.048078,1.6729189999999998,-0.15494000000000002,-0.5065310000000001,-0.182724,0.06562799999999999
1008,10.08,-0.05271699999999999,2.93887,-0.253678,-0.4245,-0.22215300000000002,0.023025999999999998
1009,10.09,-0.361168,3.8247129999999996,-0.105685,-0.30093400000000003,-0.223206,-0.030243
1010,10.1,-0.372747,4.092484,0.047173,-0.161377,-0.155029,-0.065399
1011,10.11,-0.324707,4.030656,-0.190906,0.021850999999999995,-0.081528,-0.046219
1012,10.12,-0.316808,3.6597760000000004,-0.918428,0.257263,-0.083664,-0.005736999999999999
1013,10.13,-0.14291600000000002,3.149433,-1.9104400000000001,0.511871,-0.16888399999999998,0.039001
1014,10.14,0.186728,2.4864450000000002,-2.6828689999999997,0.724915,-0.33825700000000003,0.070953
1015,10.15,0.536004,1.6851630000000002,-3.188768,0.839966,-0.53746,0.101852
1016,10.16,0.424386,1.086451,-3.2474849999999997,0.8484950000000001,-0.7345430000000001,0.114624
1017,10.17,-0.394326,0.723259,-2.598973,0.75795,-0.878342,0.08692899999999999
1018,10.18,-1.3799700000000001,1.093582,-1.2751139999999999,0.573654,-0.8921969999999999,0.0027770000000000017
1019,10.19,-2.215642,1.549067,0.31848599999999994,0.305206,-0.749451,-0.13783299999999998
1020,10.2,-2.8230049999999998,1.121879,2.248402,0.0058749999999999905,-0.5097659999999999,-0.285904
1021,10.21,-2.8726830000000003,-0.30594400000000005,4.495169000000001,-0.22636399999999998,-0.255173,-0.383911
1022,10.22,-1.926568,-1.271715,5.9063349999999994,-0.331818,-0.058089999999999996,-0.389236
1023,10.23,-0.05978400000000006,-0.947886,6.07106,-0.29454,-0.060226,-0.381775
1024,10.24,1.7037330000000002,0.32164099999999995,5.6426110000000005,-0.12303199999999999,-0.152908,-0.406281
1025,10.25,3.099405,1.801926,4.446638,0.13050799999999999,-0.07406599999999999,-0.41481
1026,10.26,4.479421,3.127313,2.5008060000000003,0.349945,0.114471,-0.406281
1027,10.27,4.71742,3.5412690000000002,0.9276459999999999,0.411728,0.21568299999999999,-0.41799899999999995
1028,10.28,3.356378,2.6652419999999997,0.292047,0.353149,0.22100799999999998,-0.419067
1029,10.29,1.2937049999999999,2.139453,-0.16714600000000002,0.245544,0.22845500000000002,-0.37645
1030,10.3,-0.9125640000000002,1.6603860000000001,-0.407235,0.136902,0.248703,-0.280579
1031,10.31,-2.257547,1.190857,-0.021743999999999986,0.046341,0.317947,-0.144226
1032,10.32,-3.2168349999999997,0.553583,0.797867,-0.020766999999999997,0.538452,0.077347
1033,10.33,-3.34615,0.04275699999999999,1.2187,-0.034607,0.668411,0.20411700000000002
1034,10.34,-2.905769,-0.48597399999999996,1.507678,-0.019699,0.757904,0.310638
1035,10.35,-2.007145,-0.9132879999999999,1.497379,0.015456999999999999,0.800507,0.397995
1036,10.36,-0.994985,-1.422392,1.314459,0.031432999999999996,0.779205,0.46403500000000003
1037,10.37,-0.030430000000000013,-1.9614740000000002,1.132123,0.05806,0.73233,0.509842
1038,10.38,0.860197,-2.389557,0.82886,0.066589,0.705704,0.537537
1039,10.39,1.448074,-2.863414,0.561746,0.064453,0.7035680000000001,0.538605
1040,10.4,1.740044,-3.06527,0.121053,0.033569,0.717422,0.522629
1041,10.41,1.977167,-3.2684830000000002,-0.20002799999999998,-0.020766999999999997,0.728073,0.50238
1042,10.42,2.093495,-3.3655440000000003,-0.468229,-0.081482,0.733398,0.476822
1043,10.43,2.097318,-3.3143599999999998,-0.5532100000000001,-0.150726,0.73233,0.457642
1044,10.44,2.0727439999999997,-3.102818,-0.547207,-0.21038800000000002,0.728073,0.432083
1045,10.45,2.0039759999999998,-2.796439,-0.43934799999999996,-0.26364099999999996,0.700378,0.397995
1046,10.46,1.813172,-2.407936,-0.27789400000000003,-0.30093400000000003,0.65564,0.348984
1047,10.47,1.6438009999999998,-2.0588040000000003,-0.14307,-0.319046,0.6140899999999999,0.294662
1048,10.48,1.476773,-1.7083110000000001,-0.06002999999999999,-0.319046,0.588516,0.236069
1049,10.49,1.338609,-1.328359,-0.099853,-0.30838000000000004,0.5661470000000001,0.184937
1050,10.5,1.207752,-1.100616,-0.224671,-0.29133600000000004,0.546982,0.134872
1051,10.51,1.182287,-1.047374,-0.37650300000000003,-0.27110300000000004,0.529938,0.09758
1052,10.52,1.208197,-1.169969,-0.569808,-0.24447600000000003,0.522476,0.06562799999999999
1053,10.53,1.402676,-1.297025,-0.8328180000000001,-0.21890300000000001,0.508621,0.043259
1054,10.54,1.4487450000000002,-1.3568790000000002,-1.225909,-0.203995,0.479858,0.026215
1055,10.55,1.465507,-1.451216,-1.650469,-0.198669,0.424469,0.014496
1056,10.56,1.286419,-1.4450450000000001,-2.0323450000000003,-0.20185899999999998,0.352036,-0.0025479999999999995
1057,10.57,1.038001,-1.3840940000000002,-2.411546,-0.207184,0.29237399999999997,-0.030243
1058,10.58,0.630438,-1.3533950000000001,-2.729438,-0.22636399999999998,0.26149,-0.065399
1059,10.59,0.408578,-1.275212,-2.8081110000000002,-0.232758,0.26361100000000004,-0.102676
1060,10.6,0.167301,-0.9787680000000001,-2.694983,-0.22636399999999998,0.264679,-0.14315799999999998
1061,10.61,-0.020064999999999986,-0.5380659999999999,-2.753134,-0.234879,0.264679,-0.159149
1062,10.62,0.14451999999999998,-0.426254,-2.501317,-0.265778,0.277466,-0.130386
1063,10.63,0.562765,-0.439885,-1.847144,-0.319046,0.25616500000000003,-0.07711799999999999
1064,10.64,0.926148,0.224635,-1.3250620000000002,-0.391479,0.154953,-0.004684000000000001
1065,10.65,1.287086,1.3558700000000001,-0.7524649999999999,-0.48309300000000005,0.054825,0.080536
1066,10.66,1.7248330000000003,2.846393,-0.401893,-0.526764,-0.009093999999999998,0.15830999999999998
1067,10.67,2.095071,3.974165,-0.43347399999999997,-0.482025,-0.032532,0.214767
1068,10.68,2.0963830000000003,4.515841,-0.714191,-0.362717,-0.07833899999999999,0.25204499999999996
1069,10.69,1.832039,4.3830089999999995,-0.925425,-0.212509,-0.145447,0.248856
1070,10.7,1.42139,4.047491,-1.230333,-0.009048,-0.179535,0.189194
1071,10.71,0.895185,3.556464,-1.551626,0.251938,-0.149704,0.08374
1072,10.72,0.2497260000000001,2.903147,-2.098518,0.551285,-0.034652999999999996,-0.025985999999999995
1073,10.73,-0.422809,2.258018,-2.856358,0.814407,0.113419,-0.141037
1074,10.74,-0.7985140000000001,1.8510220000000002,-3.431943,0.9369049999999999,0.25402800000000003,-0.250748
1075,10.75,-0.07535100000000006,2.0572779999999997,-3.3755309999999996,0.846359,0.364822,-0.278458
1076,10.76,1.3446879999999999,2.396033,-2.341572,0.569397,0.467087,-0.21986399999999998
1077,10.77,2.589472,2.196963,-0.906105,0.268982,0.517151,-0.117599
1078,10.78,3.372262,1.277895,0.8595389999999999,0.088959,0.413818,-0.041962
1079,10.79,3.098932,0.016422000000000048,3.161983,0.023972,0.229523,-0.036636
1080,10.8,1.602594,-0.7915810000000001,4.865846,0.027176,0.065475,-0.068588
1081,10.81,-0.28701,-0.9302040000000001,5.668743,0.127304,0.011154,-0.084579
1082,10.82,-1.764577,-0.271379,5.310038,0.3116,0.064407,-0.046219
1083,10.83,-2.640001,0.529411,4.603758,0.526779,0.14537,-0.027054
1084,10.84,-3.4356720000000003,1.38519,3.7696980000000004,0.701492,0.251892,-0.046219
1085,10.85,-4.29875,2.266577,2.438373,0.8037569999999999,0.410629,-0.04303
1086,10.86,-4.23079,2.563346,1.237735,0.7941590000000001,0.570404,-0.006804999999999999
1087,10.87,-3.194397,2.533032,0.343194,0.658875,0.640717,0.044326999999999984
1088,10.88,-1.366946,2.393583,-0.319847,0.46606400000000003,0.6577609999999999,0.10611
1089,10.89,0.440989,1.913877,-0.71865,0.290298,0.6002350000000001,0.127411
1090,10.9,1.437343,1.550985,-0.599843,0.15074200000000001,0.439377,0.119965
1091,10.91,1.9513009999999997,1.238134,-0.053246000000000016,0.03569,0.20822100000000002,0.08267200000000001
1092,10.92,2.209078,0.930883,0.762775,-0.06550599999999998,-0.017609,0.016632
1093,10.93,2.019507,0.44409099999999996,1.528493,-0.14221199999999998,-0.162491,-0.064331
1094,10.94,1.69032,-0.03278999999999998,2.01073,-0.172028,-0.21148699999999998,-0.14315799999999998
1095,10.95,0.939319,-0.59495,2.148603,-0.150726,-0.195511,-0.22412100000000001
1096,10.96,0.189134,-1.1487290000000001,2.065211,-0.120895,-0.129471,-0.282715
1097,10.97,-0.360193,-1.6963290000000002,1.739816,-0.095337,-0.047439999999999996,-0.32959
1098,10.98,-1.0114610000000002,-2.2307189999999997,1.33499,-0.094269,0.0186,-0.35408
1099,10.99,-1.2576129999999999,-2.555103,0.822943,-0.107056,0.048431,-0.344498
1100,11.0,-1.333138,-2.839177,0.38864699999999996,-0.135818,0.017532,-0.30722
1101,11.01,-1.245198,-3.1485819999999998,-0.04836099999999999,-0.165634,-0.063416,-0.25501999999999997
1102,11.02,-0.8578030000000001,-3.5668519999999995,-0.368623,-0.24340799999999999,-0.22215300000000002,-0.175125
1103,11.03,-0.58734,-3.699849,-0.343098,-0.30838000000000004,-0.30842600000000003,-0.142105
1104,11.04,-0.48959600000000003,-3.611004,-0.22021300000000002,-0.38722199999999996,-0.37767,-0.126114
1105,11.05,-0.348149,-3.5099769999999997,-0.07665599999999999,-0.44686899999999996,-0.437332,-0.10907
1106,11.06,-0.240377,-3.146712,0.077987,-0.46072399999999997,-0.515091,-0.090958
1107,11.07,-0.241944,-2.744693,0.11110199999999999,-0.451126,-0.576874,-0.073914
1108,11.08,-0.335024,-2.260837,0.026387999999999998,-0.422363,-0.610962,-0.039825
1109,11.09,-0.42428599999999994,-1.851851,-0.101097,-0.392548,-0.616287,0.0027770000000000017
1110,11.1,-0.624279,-1.600088,-0.255772,-0.365906,-0.59285,0.037933
1111,11.11,-0.8827370000000001,-1.4430290000000001,-0.44820600000000005,-0.345673,-0.532135,0.06881699999999999
1112,11.12,-1.100454,-1.447427,-0.711917,-0.319046,-0.45011899999999994,0.095459
1113,11.13,-1.4551129999999999,-1.465949,-1.077351,-0.284943,-0.40217600000000003,0.11675999999999999
1114,11.14,-1.7410430000000001,-1.5289110000000001,-1.436092,-0.24340799999999999,-0.378738,0.145523
1115,11.15,-1.826085,-1.3053290000000002,-1.949759,-0.199722,-0.373413,0.173218
1116,11.16,-1.956223,-1.088778,-2.5011080000000003,-0.184814,-0.396851,0.193466
1117,11.17,-1.77147,-0.9408290000000001,-2.721995,-0.22316,-0.43412799999999996,0.19133
1118,11.18,-1.290708,-0.897861,-2.4821009999999997,-0.307327,-0.475677,0.166824
1119,11.19,-0.794787,-0.687167,-1.719697,-0.422363,-0.486328,0.146591
1120,11.2,-0.394912,-0.0030769999999999964,-0.6243,-0.5512699999999999,-0.4384,0.146591
1121,11.21,-0.08166999999999996,0.767972,0.5231180000000001,-0.624771,-0.354233,0.137009
1122,11.22,0.12575999999999998,1.569585,1.117836,-0.5821529999999999,-0.24771100000000001,0.114624
1123,11.23,0.229911,2.628523,0.793701,-0.42768900000000004,-0.218948,0.067764
1124,11.24,-0.24864899999999998,3.753935,0.096653,-0.22636399999999998,-0.322281,-0.0345
1125,11.25,-0.7774310000000001,4.276983,-0.227212,-0.046326000000000006,-0.39259299999999997,-0.121857
1126,11.26,-0.9926020000000001,4.182894999999999,-0.7393270000000001,0.11985799999999999,-0.365952,-0.14743
1127,11.27,-0.934508,3.5840589999999994,-1.458532,0.313736,-0.335068,-0.092026
1128,11.28,-0.7382350000000001,2.775561,-2.297576,0.524658,-0.356369,-0.0036160000000000007
1129,11.29,-0.289011,2.37059,-3.020099,0.702545,-0.48953199999999997,0.077347
1130,11.3,0.11008900000000003,2.315105,-2.780723,0.745163,-0.70578,0.11675999999999999
1131,11.31,0.116935,2.5527889999999998,-1.071701,0.541702,-0.794189,0.06456
1132,11.32,-0.327351,3.140356,0.9633450000000001,0.251938,-0.586472,-0.098419
1133,11.33,-1.0206899999999999,3.154624,2.695347,0.098541,-0.349976,-0.323196
1134,11.34,-0.773971,1.6642990000000002,4.440043,0.107071,-0.210434,-0.469131
1135,11.35,-0.02615200000000001,0.766112,4.928626,0.18376199999999998,-0.144379,-0.5362399999999999
1136,11.36,0.963997,0.678543,4.578787,0.288162,-0.22215300000000002,-0.557556
1137,11.37,2.4957529999999997,0.870875,3.826487,0.424515,-0.304169,-0.5138699999999999
1138,11.38,3.4557809999999995,1.161414,2.602806,0.5193180000000001,-0.336136,-0.472336
1139,11.39,3.9371150000000004,1.44517,1.417721,0.508667,-0.368088,-0.444626
1140,11.4,3.415686,1.581906,0.5957,0.40960699999999994,-0.35530100000000003,-0.44889799999999996
1141,11.41,1.840813,1.527655,0.21875999999999998,0.288162,-0.289261,-0.44036899999999995
1142,11.42,-0.12849999999999995,1.374225,0.053947,0.158203,-0.164627,-0.399887
1143,11.43,-1.6823300000000003,1.173682,0.285539,0.034622,-0.008026000000000005,-0.32106
1144,11.44,-2.582088,1.060616,0.769992,-0.055923,0.173065,-0.209213
1145,11.45,-3.0732310000000003,0.9458799999999999,1.292549,-0.11557,0.340317,-0.080307
1146,11.46,-3.0256689999999997,0.8726360000000001,1.7702689999999999,-0.109177,0.44258100000000006,0.06776399999999999
1147,11.47,-2.196496,0.683715,2.068172,-0.056976,0.48945600000000006,0.20944200000000002
1148,11.48,-1.106747,0.18195,2.1375509999999998,0.027176,0.501175,0.31596399999999997
1149,11.49,-0.16259599999999996,-0.589328,1.971501,0.106003,0.497971,0.39266999999999996
1150,11.5,0.664395,-1.3557489999999999,1.634095,0.172043,0.471344,0.451248
1151,11.51,1.501422,-2.358731,0.9219860000000001,0.216797,0.438324,0.47361800000000004
1152,11.52,1.7938610000000001,-2.933565,0.4928,0.196548,0.415955,0.45657299999999995
1153,11.53,1.957601,-3.3264980000000004,0.05108999999999997,0.14541600000000002,0.382919,0.43527200000000005
1154,11.54,1.950954,-3.7448930000000002,-0.284256,0.051666,0.359482,0.413971
1155,11.55,1.9572349999999998,-3.9218029999999997,-0.43347600000000003,-0.049530000000000005,0.342438,0.396927
1156,11.56,1.9605080000000001,-3.890647,-0.39494,-0.153915,0.331787,0.37455700000000003
1157,11.57,1.932436,-3.6609309999999997,-0.236347,-0.245529,0.324341,0.35112
1158,11.58,1.7807830000000002,-3.326258,-0.061006999999999985,-0.32009899999999997,0.311554,0.324493
1159,11.59,1.6179379999999999,-2.8515580000000003,0.075026,-0.368042,0.30302399999999996,0.291458
1160,11.6,1.416607,-2.295027,0.152873,-0.38401799999999997,0.296646,0.258438
1161,11.61,1.384793,-1.751218,0.19195299999999998,-0.38401799999999997,0.29451,0.22435
1162,11.62,1.02779,-1.25289,0.06337699999999999,-0.364838,0.287048,0.16256700000000002
1163,11.63,0.905068,-1.132354,-0.11620599999999999,-0.345673,0.276398,0.128479
1164,11.64,0.8822469999999999,-1.0462129999999998,-0.37754299999999996,-0.314774,0.26254299999999997,0.095459
1165,11.65,0.9523159999999999,-1.098319,-0.7584069999999999,-0.27003499999999997,0.244446,0.072021
1166,11.66,1.133864,-1.14914,-1.0877709999999998,-0.228485,0.21994,0.048583999999999995
1167,11.67,1.271407,-1.2673860000000001,-1.450084,-0.191208,0.18371600000000002,0.03154
1168,11.68,1.3107280000000001,-1.271881,-1.801438,-0.16883900000000002,0.149628,0.020888999999999998
1169,11.69,1.173843,-1.19999,-1.979248,-0.152863,0.136856,0.004912999999999999
1170,11.7,0.876575,-1.2269649999999999,-2.209718,-0.131546,0.1539,-0.021729
1171,11.71,0.63269,-1.395044,-2.300033,-0.103851,0.190109,-0.051544000000000006
1172,11.72,0.197226,-1.352057,-2.57147,-0.085739,0.21675100000000003,-0.09309400000000001
1173,11.73,0.008173999999999999,-1.161137,-2.553315,-0.085739,0.229523,-0.10907
1174,11.74,-0.035427,-0.9200440000000001,-2.7340709999999997,-0.13475,0.251892,-0.116531
1175,11.75,0.253733,-0.8861120000000001,-2.350772,-0.225296,0.225266,-0.084579
1176,11.76,0.757842,-0.514188,-1.587494,-0.33714299999999997,0.136856,-0.044098000000000005
1177,11.77,1.28921,0.43325699999999995,-0.773355,-0.45752,0.021805,0.010238999999999998
1178,11.78,1.461878,1.795763,-0.15835899999999994,-0.508652,-0.018677000000000003,0.04007
1179,11.79,1.729309,3.218499,0.018257,-0.45965600000000006,-0.005890000000000001,0.060302999999999995
1180,11.8,1.9017380000000002,4.137037,-0.219362,-0.333954,0.011154,0.078415
1181,11.81,1.603461,4.24719,-0.618028,-0.077225,-0.001633,0.047516
1182,11.82,1.060633,3.7810589999999995,-1.045277,0.156067,0.019669,-0.018524000000000002
1183,11.83,0.474854,3.2361590000000002,-1.689077,0.43516499999999997,0.070801,-0.097351
1184,11.84,-0.15657499999999994,2.489911,-2.60498,0.7068180000000001,0.152832,-0.17724600000000001
1185,11.85,-0.740777,1.887016,-3.358247,0.894302,0.259354,-0.25608800000000004
1186,11.86,-0.628858,1.837062,-3.47235,0.935837,0.361618,-0.296555
1187,11.87,0.630475,2.314277,-2.536332,0.793091,0.411682,-0.272064
1188,11.88,2.2898680000000002,2.7229330000000003,-0.6396629999999999,0.522522,0.39677399999999996,-0.17619300000000002
1189,11.89,3.4882199999999997,2.514442,1.507475,0.282837,0.277466,-0.028121999999999998
1190,11.9,3.53654,1.453143,3.808853,0.158203,0.13151600000000002,0.090134
1191,11.91,2.583022,-0.08480799999999987,5.479677,0.157135,0.050568,0.117828
1192,11.92,0.8404389999999999,-0.656134,5.626761,0.264725,-0.008026000000000002,0.09225499999999999
1193,11.93,-0.9321799999999999,-0.176572,4.747736,0.41918900000000003,0.011154,0.114624
1194,11.94,-2.215446,0.562862,3.6968019999999995,0.568329,0.04097,0.11675999999999999
1195,11.95,-3.164196,1.4340110000000001,3.003761,0.64183,0.014343,0.075211
1196,11.96,-3.841332,2.5206419999999996,2.361463,0.633301,0.068665,0.045395
1197,11.97,-3.638982,3.180959,1.8248520000000001,0.550217,0.260422,0.06349199999999999
1198,11.98,-2.2606450000000002,3.335342,1.19631,0.437302,0.424469,0.099716
1199,11.99,-0.480441,3.065639,0.5171140000000001,0.351013,0.47880600000000006,0.132736
1200,12.0,1.285468,2.327497,0.015375999999999999,0.281769,0.44577,0.145523
1201,12.01,2.3984330000000003,1.607681,-0.219217,0.212524,0.284927,0.137009
1202,12.02,3.196561,1.065268,-0.07830499999999999,0.128372,0.013275000000000007,0.096527
1203,12.03,3.492368,0.619455,0.49655600000000005,0.050613,-0.262619,0.016632
1204,12.04,3.230594,0.144324,1.1899540000000002,-0.0005189999999999953,-0.46928400000000003,-0.087769
1205,12.05,2.623743,-0.47740200000000005,1.607669,-0.00798,-0.588593,-0.187897
1206,12.06,1.6550619999999998,-1.138077,1.745,0.014388999999999999,-0.623749,-0.275253
1207,12.07,0.69665,-1.803868,1.700288,0.039963,-0.6130979999999999,-0.326385
1208,12.08,-0.09944299999999999,-2.402246,1.407101,0.050613,-0.571548,-0.353027
1209,12.09,-0.936959,-2.931607,1.034262,0.034622,-0.523621,-0.36261
1210,12.1,-1.445147,-3.2959949999999996,0.657547,0.004807,-0.500183,-0.353027
1211,12.11,-1.900814,-3.4180589999999995,0.376684,-0.042068,-0.500183,-0.317871
1212,12.12,-2.021673,-3.5577910000000004,0.172287,-0.10491900000000001,-0.532135,-0.274185
1213,12.13,-1.8959,-3.565804,-0.024798,-0.169907,-0.5683590000000001,-0.218796
1214,12.14,-1.59019,-3.575709,-0.120557,-0.247665,-0.608841,-0.167664
1215,12.15,-1.199016,-3.504006,-0.180393,-0.33714299999999997,-0.652512,-0.13783299999999998
1216,12.16,-0.818629,-3.2839980000000004,-0.109153,-0.419174,-0.6866,-0.12078900000000001
1217,12.17,-0.442688,-2.920067,0.006746000000000002,-0.477768,-0.720688,-0.112274
1218,12.18,-0.244207,-2.4895,0.18096900000000002,-0.515045,-0.745193,-0.10481300000000002
1219,12.19,-0.187031,-1.9641549999999999,0.373906,-0.517181,-0.751587,-0.08244299999999999
1220,12.2,-0.249223,-1.430148,0.479289,-0.48095699999999997,-0.7324069999999999,-0.057937999999999996
1221,12.21,-0.44588500000000003,-1.037352,0.544667,-0.414917,-0.6866,-0.030243
1222,12.22,-0.761001,-0.790319,0.48379399999999995,-0.33075,-0.622681,-0.011077999999999998
1223,12.23,-1.120435,-0.701233,0.286717,-0.251923,-0.555573,0.0038450000000000003
1224,12.24,-1.523615,-0.8241809999999999,-0.14546600000000004,-0.174164,-0.49165299999999995,0.019821000000000002
1225,12.25,-1.7990259999999998,-1.024756,-0.652118,-0.10491900000000001,-0.46076999999999996,0.053909000000000006
1226,12.26,-1.8207919999999997,-1.026758,-1.168569,-0.039932,-0.43626400000000004,0.100784
1227,12.27,-1.770775,-0.895308,-1.552265,0.028244,-0.424545,0.14765899999999998
1228,12.28,-1.504604,-0.7233069999999999,-1.7631720000000002,0.088959,-0.411758,0.181747
1229,12.29,-1.214171,-0.5586979999999999,-1.836413,0.12091099999999999,-0.379807,0.194519
1230,12.3,-1.139109,-0.49728500000000003,-1.663848,0.10281400000000002,-0.339325,0.174286
1231,12.31,-1.1322940000000001,-0.507391,-1.20004,0.041016000000000004,-0.29138200000000003,0.124222
1232,12.32,-1.303253,-0.20770700000000006,-0.724989,-0.043137,-0.232803,0.066696
1233,12.33,-1.262767,0.194654,-0.361019,-0.130493,-0.17314100000000002,0.008101999999999998
1234,12.34,-0.9093979999999999,0.501342,-0.053424,-0.191208,-0.109222,-0.017456
1235,12.35,-0.339169,1.445967,-0.236296,-0.19653299999999999,-0.067688,-0.033447000000000005
1236,12.36,-0.349697,2.584501,-0.638653,-0.169907,-0.083664,-0.087769
1237,12.37,-0.394978,2.99722,-0.672127,-0.130493,-0.087921,-0.123993
1238,12.38,0.014447999999999987,3.052498,-0.908819,-0.062317,-0.073013,-0.11439500000000001
1239,12.39,0.156442,2.892293,-1.3958270000000002,0.055938999999999996,-0.10817,-0.084579
1240,12.4,0.263798,2.6547669999999997,-2.016755,0.23596199999999998,-0.202972,-0.022781
1241,12.41,0.462645,2.225592,-2.674255,0.434097,-0.343582,0.05072
1242,12.42,0.946688,1.7016040000000001,-3.312847,0.577911,-0.550247,0.114624
1243,12.43,1.282086,1.254446,-3.55594,0.624786,-0.805908,0.156174
1244,12.44,1.2671059999999998,1.156623,-3.322482,0.596024,-1.083939,0.160431
1245,12.45,0.5109600000000001,1.356978,-2.3361549999999998,0.48629799999999995,-1.296997,0.128479
1246,12.46,-0.47093199999999996,1.9359819999999999,-0.4885090000000001,0.313736,-1.3321530000000001,0.030472000000000006
1247,12.47,-1.575114,2.455715,1.6400039999999998,0.14115899999999998,-1.138275,-0.142105
1248,12.48,-2.8069740000000003,2.0420439999999997,3.6968120000000004,0.021850999999999992,-0.80484,-0.30722
1249,12.49,-3.20057,0.609574,5.68142,-0.037811000000000004,-0.465027,-0.386047
1250,12.5,-2.443546,-0.592536,6.522377,-0.046326,-0.179535,-0.379654
1251,12.51,-0.520976,-0.748115,5.721273,0.023972,-0.15184,-0.383911
1252,12.52,1.366679,-0.13958499999999996,4.786821,0.176315,-0.327606,-0.399887
1253,12.53,3.057504,0.776786,3.4974559999999997,0.3638,-0.40004,-0.393494
1254,12.54,4.458328,1.672837,1.828501,0.47671499999999994,-0.327606,-0.37858600000000003
1255,12.55,4.995196,2.026743,0.51134,0.430908,-0.21788000000000002,-0.37858600000000003
1256,12.56,4.238919,1.9531169999999998,-0.226271,0.25621,-0.14119,-0.39456199999999997
1257,12.57,1.9046319999999999,1.805136,-0.577023,0.06977799999999999,-0.112427,-0.39563000000000004
1258,12.58,-0.641983,1.531034,-0.492428,-0.075089,-0.084732,-0.338104
1259,12.59,-2.191971,1.433762,0.13200599999999998,-0.181625,0.020737000000000002,-0.22412100000000001
1260,12.6,-2.918567,1.3810069999999999,0.8608610000000001,-0.238083,0.217804,-0.090958
1261,12.61,-3.246804,1.288193,1.737168,-0.232758,0.410629,0.039001
1262,12.62,-3.096278,1.200595,2.458014,-0.16777,0.5789340000000001,0.180679
1263,12.63,-1.7253630000000002,0.5901850000000001,2.572378,0.027176,0.700378,0.348984
1264,12.64,-0.47297,-0.18922,2.035471,0.152878,0.6907810000000001,0.431015
1265,12.65,0.651871,-1.15466,1.503893,0.232773,0.634323,0.485336
1266,12.66,1.669829,-2.019732,1.0632190000000001,0.249817,0.584259,0.501328
1267,12.67,2.191688,-2.5747560000000003,0.580272,0.2285,0.565079,0.486404
1268,12.68,2.561922,-2.950361,0.186134,0.190155,0.560822,0.44699099999999997
1269,12.69,2.6464990000000004,-3.26245,-0.24836000000000005,0.134766,0.5544279999999999,0.409714
1270,12.7,2.573436,-3.457122,-0.5466989999999999,0.049545,0.538452,0.372421
1271,12.71,2.370936,-3.5275529999999997,-0.6167739999999999,-0.054854999999999994,0.523544,0.344727
1272,12.72,1.981697,-3.4927940000000004,-0.58726,-0.16030899999999998,0.499039,0.328751
1273,12.73,1.6410630000000002,-3.2386880000000002,-0.459779,-0.24659699999999998,0.447906,0.328751
1274,12.74,1.3569790000000002,-2.9156020000000002,-0.34979499999999997,-0.312653,0.377594,0.323425
1275,12.75,0.981806,-2.482974,-0.29236599999999996,-0.356323,0.325394,0.313843
1276,12.76,0.8206829999999999,-2.07891,-0.29881599999999997,-0.38508600000000004,0.287048,0.29891999999999996
1277,12.77,0.66309,-1.65788,-0.329968,-0.389343,0.23805199999999999,0.274414
1278,12.78,0.674766,-1.330964,-0.33487,-0.378693,0.193314,0.24778699999999998
1279,12.79,0.799696,-1.074073,-0.364086,-0.350998,0.159225,0.217957
1280,12.8,0.929192,-0.946169,-0.408171,-0.32009899999999997,0.150696,0.184937
1281,12.81,1.106433,-0.976836,-0.5116,-0.286011,0.152832,0.154053
1282,12.82,1.30244,-1.041991,-0.653258,-0.250854,0.156021,0.129547
1283,12.83,1.4048399999999999,-1.18823,-0.883194,-0.21783400000000003,0.157089,0.10504200000000001
1284,12.84,1.408067,-1.236686,-1.158767,-0.197601,0.162415,0.076279
1285,12.85,1.197527,-1.3198290000000001,-1.4188100000000001,-0.188004,0.181595,0.043259
1286,12.86,0.8865940000000001,-1.35517,-1.6669080000000003,-0.189072,0.21994,0.01236
1287,12.87,0.464221,-1.301626,-1.748629,-0.177353,0.25296,-0.028122
1288,12.88,0.13512099999999996,-1.101441,-1.768657,-0.14221199999999998,0.279587,-0.07925399999999999
1289,12.89,-0.15106,-0.591287,-1.773597,-0.103851,0.27533,-0.11334200000000001
1290,12.9,-0.0656,-0.025046000000000013,-1.981064,-0.078293,0.267883,-0.11866800000000001
1291,12.91,0.060125999999999985,0.213672,-2.004966,-0.080414,0.229523,-0.087769
1292,12.92,0.66543,0.173778,-1.522835,-0.11450199999999999,0.180527,-0.028122
1293,12.93,1.475755,0.5533020000000001,-0.868858,-0.14646900000000002,0.143234,0.033676
1294,12.94,1.7625529999999998,1.196649,-0.731628,-0.14859,0.10809300000000001,0.06456
1295,12.95,2.009554,2.000452,-0.7626470000000001,-0.129425,0.052689,0.08267200000000001
1296,12.96,2.172929,2.678884,-1.03348,-0.097458,-0.008025999999999998,0.113571
1297,12.97,2.323143,3.3218980000000005,-1.42518,-0.043137,-0.075134,0.154053
1298,12.98,2.062789,3.538204,-1.7300389999999999,0.035689999999999986,-0.128403,0.165756
1299,12.99,1.3686559999999999,3.5057139999999998,-2.069481,0.16246,-0.12200899999999999,0.15298499999999998
1300,13.0,0.7995979999999999,3.3001949999999995,-2.246628,0.308395,-0.107101,0.118896
1301,13.01,0.230508,3.071984,-2.379228,0.457535,-0.083664,0.060302999999999995
1302,13.02,-0.171139,2.889264,-2.5194400000000003,0.5534060000000001,-0.029327,-0.006804999999999999
1303,13.03,-0.19298800000000002,3.019432,-2.595581,0.541702,0.039917,-0.055817
1304,13.04,0.7170529999999999,3.5983370000000003,-2.2025639999999997,0.400009,0.056961000000000005,-0.027054
1305,13.05,2.239507,3.954675,-1.153878,0.216797,-0.005889999999999999,0.069885
1306,13.06,3.1181919999999996,3.5178800000000003,0.36856300000000003,0.083633,-0.124146,0.138062
1307,13.07,3.4313860000000003,2.703467,2.082621,0.051666,-0.220016,0.181747
1308,13.08,3.1659450000000002,1.3288509999999998,3.582955,0.115585,-0.29245,0.174286
1309,13.09,1.905128,0.215608,4.394385,0.26365700000000003,-0.314819,0.140198
1310,13.1,0.475446,-0.612846,4.289105,0.420258,-0.2509,0.102921
1311,13.11,-1.1167479999999999,-1.077291,3.7337879999999997,0.524658,-0.12626600000000002,0.066696
1312,13.12,-2.333148,-0.963184,3.0352,0.55661,0.007950000000000006,0.035797
1313,13.13,-3.3912160000000005,-0.47138599999999997,2.656101,0.532104,0.117676,0.0027770000000000017
1314,13.14,-3.9512730000000005,0.222436,2.2518990000000003,0.447952,0.23805199999999999,-0.01001
1315,13.15,-3.894761,0.8417299999999999,1.8042939999999998,0.333969,0.328598,0.010239000000000002
1316,13.16,-2.864459,1.5605959999999999,1.2712379999999999,0.215729,0.333923,0.06881699999999999
1317,13.17,-1.268815,1.776714,0.855095,0.115585,0.258286,0.126343
1318,13.18,-0.007167999999999951,1.3295649999999999,0.466725,0.043151999999999996,0.133652,0.159378
1319,13.19,0.8888149999999999,0.8821040000000001,0.30787800000000004,-0.021835,-0.035720999999999996,0.181747
1320,13.2,1.749791,0.273973,0.5362,-0.095337,-0.254105,0.174286
1321,13.21,2.238257,-0.33773400000000003,0.955253,-0.15925599999999998,-0.476746,0.11250299999999999
1322,13.22,2.200086,-0.707038,1.320194,-0.20079,-0.624817,0.024078
1323,13.23,1.909687,-1.019649,1.60915,-0.20931999999999998,-0.6802060000000001,-0.064331
1324,13.24,1.278866,-1.339328,1.6827150000000002,-0.184814,-0.655701,-0.148483
1325,13.25,0.5206970000000001,-1.745728,1.568568,-0.14965799999999999,-0.571548,-0.200684
1326,13.26,-0.21411,-2.164148,1.3268389999999999,-0.116638,-0.45756499999999994,-0.22093200000000002
1327,13.27,-0.950342,-2.460166,1.040506,-0.102783,-0.354233,-0.229446
1328,13.28,-1.219908,-2.550422,0.624416,-0.10491900000000001,-0.258362,-0.218796
1329,13.29,-1.528146,-2.581762,0.24664899999999998,-0.109177,-0.215759,-0.21453899999999998
1330,13.3,-1.717602,-2.483858,-0.260848,-0.139008,-0.214691,-0.207077
1331,13.31,-1.585921,-2.3894330000000004,-0.546782,-0.174164,-0.260498,-0.204956
1332,13.32,-1.414625,-2.266166,-0.6932050000000001,-0.21890300000000001,-0.321213,-0.20600900000000003
1333,13.33,-1.222907,-2.120794,-0.667597,-0.267899,-0.376602,-0.210281
1334,13.34,-1.073121,-1.9907130000000002,-0.559999,-0.295609,-0.42240900000000003,-0.204956
1335,13.35,-0.9510569999999999,-1.818341,-0.4369,-0.30838000000000004,-0.45224,-0.187897
1336,13.36,-0.982051,-1.5607280000000001,-0.358215,-0.303055,-0.45756499999999994,-0.157013
1337,13.37,-0.9440540000000001,-1.3683969999999999,-0.305168,-0.273239,-0.441589,-0.11013800000000001
1338,13.38,-1.060966,-1.270469,-0.411682,-0.237015,-0.396851,-0.06221
1339,13.39,-1.247169,-1.174641,-0.606468,-0.202927,-0.329742,-0.023849000000000002
1340,13.4,-1.480189,-1.235259,-0.792999,-0.170959,-0.258362,0.0017090000000000007
1341,13.41,-1.784023,-1.3740809999999999,-1.134835,-0.116638,-0.143311,0.015563999999999998
1342,13.42,-1.87252,-1.572877,-1.268676,-0.097458,-0.075134,0.013428
1343,13.43,-1.980374,-1.643286,-1.402192,-0.081482,0.0026250000000000023,0.016632
1344,13.44,-1.8486099999999999,-1.5885280000000002,-1.621156,-0.05271900000000001,0.061218000000000015,0.024078
1345,13.45,-1.532568,-1.372321,-1.9002869999999998,-0.007980000000000001,0.065475,0.035797
1346,13.46,-1.226233,-1.000424,-2.220587,0.036758,0.043106,0.06349199999999999
1347,13.47,-0.88631,-0.8546020000000001,-2.372456,0.036758,0.019669,0.075211
1348,13.48,-0.469124,-0.9411379999999999,-1.9635060000000002,-0.017563000000000002,0.044174,0.054977
1349,13.49,-0.42503500000000005,-0.7452529999999999,-1.289854,-0.09106399999999999,0.109146,0.026215
1350,13.5,-0.6431,-0.15481900000000004,-0.635062,-0.147537,0.140045,-0.003616
1351,13.51,-0.782231,0.571725,-0.196193,-0.191208,0.12193299999999999,-0.0345
1352,13.52,-0.7766460000000001,1.207783,-0.121501,-0.219971,0.08677699999999999,-0.056870000000000004
1353,13.53,-0.454747,1.9373360000000002,-0.343079,-0.21464499999999997,0.047363,-0.069656
1354,13.54,-0.582599,2.962438,-0.695224,-0.178421,-0.015488000000000004,-0.11334200000000001
1355,13.55,-0.90141,3.6741589999999995,-0.62647,-0.11770599999999999,-0.031464,-0.1698
1356,13.56,-0.662608,3.989351,-0.610334,-0.015441999999999997,0.050568,-0.193237
1357,13.57,-0.5550039999999999,3.919611,-0.959944,0.157135,0.107025,-0.181519
1358,13.58,-0.484554,3.664107,-1.488104,0.39468400000000003,0.068665,-0.123993
1359,13.59,-0.14769200000000002,3.179598,-2.163506,0.635437,-0.08046,-0.04303
1360,13.6,0.406146,2.574903,-2.66056,0.79097,-0.32014499999999996,0.042191
1361,13.61,0.5321899999999999,2.020857,-2.714958,0.811203,-0.584335,0.101852
1362,13.62,-0.494899,1.77377,-2.038768,0.692963,-0.801651,0.10611
1363,13.63,-1.686554,2.008436,-0.5368850000000001,0.500153,-0.8442540000000001,0.033676
1364,13.64,-2.885061,2.197318,1.082868,0.292419,-0.715363,-0.12825
1365,13.65,-3.540317,1.464624,3.005248,0.11026,-0.45970200000000006,-0.286972
1366,13.66,-3.13414,-0.08304500000000015,4.870032,-0.016509999999999997,-0.11029100000000001,-0.374329
1367,13.67,-1.950473,-1.040442,5.322674,-0.06018099999999999,0.14856,-0.409485
1368,13.68,-0.294867,-1.194135,4.7273819999999995,-0.021835000000000004,0.158157,-0.44036899999999995
1369,13.69,1.390923,-0.736711,3.9305309999999998,0.087891,0.039917000000000015,-0.449966
1370,13.7,3.039313,0.1693119999999999,2.8327240000000002,0.202942,0.02713,-0.43611099999999997
1371,13.71,4.352494,1.209372,1.7452279999999998,0.245544,0.10488900000000001,-0.403091
1372,13.72,4.856026,1.933085,1.017081,0.193359,0.147507,-0.369003
1373,13.73,3.811867,2.133906,0.681719,0.064453,0.1539,-0.37326
1374,13.74,1.370373,1.8750349999999998,0.451672,-0.075089,0.199707,-0.35408
1375,13.75,-0.91064,1.669875,0.54972,-0.188004,0.255096,-0.262466
1376,13.76,-2.4780439999999997,1.710402,1.057246,-0.23381,0.36801100000000003,-0.123993
1377,13.77,-3.323115,1.8408330000000002,1.612048,-0.184814,0.517151,0.034729
1378,13.78,-3.5986519999999995,1.6299629999999998,2.0158840000000002,-0.08255,0.643921,0.180679
1379,13.79,-3.183436,1.218816,2.25815,0.052734,0.709961,0.323425
1380,13.8,-2.281129,0.52247,2.1377099999999998,0.177368,0.741913,0.42675799999999997
1381,13.81,-1.2661950000000002,-0.25948000000000004,1.637129,0.277512,0.734467,0.500259
1382,13.82,-0.16518199999999994,-1.074932,1.12471,0.32757600000000003,0.687592,0.538605
1383,13.83,0.689496,-1.835847,0.508538,0.331833,0.651367,0.540741
1384,13.84,1.392061,-2.526622,-0.08554799999999999,0.292419,0.632202,0.527954
1385,13.85,1.896691,-3.1969369999999997,-0.392435,0.205078,0.633255,0.490662
1386,13.86,2.0626279999999997,-3.6715419999999996,-0.525461,0.09535199999999999,0.630066,0.43633999999999995
1387,13.87,1.884068,-3.989469,-0.47437299999999993,-0.026093,0.631134,0.40331999999999996
1388,13.88,1.7056200000000001,-4.068303,-0.319651,-0.119827,0.635391,0.385208
1389,13.89,1.555871,-3.801622,-0.281049,-0.199722,0.623672,0.368164
1390,13.9,1.382435,-3.4041879999999995,-0.20484699999999997,-0.273239,0.6130220000000001,0.343658
1391,13.91,1.196777,-3.034412,-0.11392200000000001,-0.328629,0.6002350000000001,0.31596399999999997
1392,13.92,1.119853,-2.624099,-0.032205000000000004,-0.368042,0.574677,0.275482
1393,13.93,1.081573,-2.180421,-0.011626999999999998,-0.38295,0.5544279999999999,0.233948
1394,13.94,1.082244,-1.669786,-0.02883,-0.36697399999999997,0.5203399999999999,0.194519
1395,13.95,1.1609,-1.155519,-0.16200699999999998,-0.33714299999999997,0.481995,0.163635
1396,13.96,1.2337209999999998,-0.758916,-0.25338499999999997,-0.297729,0.44258100000000006,0.134872
1397,13.97,1.309544,-0.522668,-0.39131900000000003,-0.250854,0.415955,0.118896
1398,13.98,1.2830059999999999,-0.40926399999999996,-0.5649489999999999,-0.2167609636927686,0.3978399846574781,0.11250098465747807
1399,13.99,1.218708,-0.5570430000000001,-0.7519520000000001,-0.186951,0.380798,0.101852
1400,14.0,1.0292270000000001,-0.858023,-0.929551,-0.174164,0.36694299999999996,0.087997
