,ts,ax,ay,az,wx,wy,wz
0,0.0,-0.005396981759712585,0.30564443675681907,6.5334067866621535,0.00040754143866680967,-0.00364670536961486,-0.00364670536961486
1,0.01,-0.004725726088743332,0.020411072620462545,1.3109457718738442,-0.0015870662873966965,-0.0020240048719578027,-0.0020240048719578027
2,0.02,-0.012976354376154707,-0.09001189313171175,-1.8126687028377937,-0.003217874731909409,-0.000220340414726075,-0.000220340414726075
3,0.03,-0.004905614602431059,-0.12023844354470911,-3.448228513068904,-0.004574864516952436,0.0004554831473485489,0.0004554831473485489
4,0.04,-0.0008888392232115731,-0.13183731143480254,-3.944967634835322,-0.003868142136720513,0.0008414924063148609,0.0008414924063148609
5,0.05,0.0023108525057281004,-0.189481602679497,-3.6514998902959546,-0.002483703209977934,-0.0010328029203338774,-0.0010328029203338774
6,0.06,-0.005707777504686296,-0.19217524661651122,-2.8609710710416243,-0.0032572870820022693,-0.0011969177449689767,-0.0011969177449689767
7,0.07,0.006592399672301161,-0.13133229425880386,-1.9093608623544691,-0.00638778644999481,-0.0009195451931377316,-0.0009195451931377316
8,0.08,0.0026893499062433414,-0.014303206634393564,-0.8960149311706824,-0.009522060223370049,-0.002421794691035217,-0.002421794691035217
9,0.09,0.011816376924821669,0.0480887961424514,0.08124300726864675,-0.006728529555105294,0.001127951608307723,0.001127951608307723
10,0.1,0.034511332158375825,0.05866818979753999,0.9985114139937626,-0.0038959835770015533,0.001662890239131568,0.001662890239131568
11,0.11,0.04453832956542299,0.05018434127191296,1.7681348360686466,-0.003257865256112467,-0.0015664574334928376,-0.0015664574334928376
12,0.12,0.03622859376035037,0.12839866429510025,2.279692892729911,-0.003669628796093069,-0.0015452721036693744,-0.0015452721036693744
13,0.13,-0.0005025780609080738,0.19751532049432302,2.5773923010442656,-0.0027277981103438465,-0.0014218657035676599,-0.0014218657035676599
14,0.14,0.012983932378046618,0.189090388022317,2.6864916944295696,-0.0018412255334081227,-0.0012451414340159794,-0.0012451414340159794
15,0.15,0.017018720399964393,0.1460103774343065,2.7006813193193198,-0.0009762405406390575,-0.001882432267568772,-0.001882432267568772
16,0.16,0.012834193633075525,0.08386745615812105,2.565832679705527,-5.5619340111955666e-05,-0.0022409337194186792,-0.0022409337194186792
17,0.17,-0.012596360639908436,0.10169221872476991,2.2697221792828306,-3.8016192791131424e-05,-0.0017695581745554704,-0.0017695581745554704
18,0.18,-0.035326111937834234,0.11023704260348798,1.8135439567260092,-0.0021760225047442127,-0.0023161828064390765,-0.0023161828064390765
19,0.19,-0.0397511795061,0.08520692952462068,1.3424572639326826,-0.0017654049092783613,-0.0022261903271781035,-0.0022261903271781035
20,0.2,-0.028454731071696562,-0.014309502318605165,0.8660734470414668,-0.0018130588316873004,-0.0019669998399500423,-0.0019669998399500423
21,0.21,-0.03216473418029267,-0.0870087957128968,0.42401045976417673,-0.0042284842281164895,-0.002865178805709707,-0.002865178805709707
22,0.22,-0.05398559005137428,-0.08721812743992766,-0.0767156021205756,-0.0035187178158804407,-0.0037327559742674258,-0.0037327559742674258
23,0.23,-0.05825279104638424,-0.05194927712074526,-0.5721814019730114,-0.003139642045549949,-0.003393621643083813,-0.003393621643083813
24,0.24,-0.03531436019590309,-0.05267265999023081,-1.0283998313400047,-0.001710516848718895,-0.003844738603849904,-0.003844738603849904
25,0.25,-0.013190282841144894,-0.11382750241267063,-1.3491212054131871,-0.0023403022366461283,-0.0039332703608980415,-0.0039332703608980415
26,0.26,-0.02735605188073411,-0.16074243584331407,-1.576875697216326,-0.004316338709139831,-0.0043929284298406404,-0.0043929284298406404
27,0.27,-0.03577332985421771,-0.14731260715070937,-1.7964011123514427,-0.006741059476695019,-0.0034316934756696608,-0.0034316934756696608
28,0.28,-0.030192565032963952,-0.08473697516664767,-2.0108504767817736,-0.006344207202861181,-0.0023395959759269893,-0.0023395959759269893
29,0.29,0.007463819722458166,-0.060819836206091424,-2.105321622232477,-0.003496253330046941,-0.0022054252407411067,-0.0022054252407411067
30,0.3,0.02361053328125519,-0.08844659470975447,-2.062044364399171,-0.00251756979238425,-0.00300526893904262,-0.00300526893904262
31,0.31,0.022025317668631392,-0.10452707020183487,-1.9543715789867862,-0.002555240805119798,-0.0012983939805802894,-0.0012983939805802894
32,0.32,0.024341826528533027,-0.07380838341763357,-1.8200735431690325,-0.005768643860931944,-0.00034456955393304486,-0.00034456955393304486
33,0.33,0.026210125201446773,0.01678052773340811,-1.7005548459645714,-0.006721716666904684,0.00041757453018566803,0.00041757453018566803
34,0.34,0.04412214153114702,0.03489661054379514,-1.5029692096490126,-0.003627556659100196,0.0018038312393987023,0.0018038312393987023
35,0.35,0.05140587249131507,0.00686374766711861,-1.246407971448086,-0.0018591523780797914,-0.0006129431004794901,-0.0006129431004794901
36,0.36,0.049321986247188865,-0.02117529642342521,-0.8980769585753101,0.0001842019902057572,-0.0019845161334235513,-0.0019845161334235513
37,0.37,0.04560816923887376,0.03459704582444576,-0.6304706854177103,-0.0020988564272529787,-0.002522204593127038,-0.002522204593127038
38,0.38,0.02578801890121889,0.10280766501763694,-0.35844322828903075,-0.0021569566988985677,-2.30921799990692e-05,-2.30921799990692e-05
39,0.39,0.029799495179474313,0.10245384932338054,-0.1001962874865861,-0.001958944384397371,0.00027331388518006105,0.00027331388518006105
40,0.4,0.055914243109825235,0.05003193269607356,0.22538066862754652,-0.0013030873995627606,-0.001952602817096384,-0.001952602817096384
41,0.41,0.07966828088117486,-0.007993264600426236,0.5289748893817783,-0.0014298295164582894,-0.0008348796013379634,-0.0008348796013379634
42,0.42,0.05267570744959964,0.04824526365490622,0.7697253823265624,-0.002786332151652962,-0.0008321735648245402,-0.0008321735648245402
43,0.43,0.012483341799867816,0.07680031497746512,0.9510727056536636,-0.002313433888657709,-0.0012054682250746008,-0.0012054682250746008
44,0.44,0.0355947996861647,0.06874480809196033,1.1148016270545615,-0.00226020080460097,-0.0013755331121724495,-0.0013755331121724495
45,0.45,0.07304843579825321,-0.012775003692721776,1.2833846723272604,-0.002776296183037551,-0.003907246488832417,-0.003907246488832417
46,0.46,0.02468461552429009,-0.06104760963517006,1.429132995656762,-0.0040722077797679095,-0.0038278855981162384,-0.0038278855981162384
47,0.47,-0.07229991661513804,-0.018792156159932627,1.530610466394585,-0.0041877418485593496,-0.004830788831919112,-0.004830788831919112
48,0.48,-0.05554060759102007,0.027370533376149704,1.514346066364721,-0.0034969954455057553,-0.005400300557191697,-0.005400300557191697
49,0.49,0.017450111654102,0.0429128870423523,1.4972276786997307,-0.003029636485059409,-0.0061589263784356685,-0.0061589263784356685
50,0.5,0.02979122412054188,0.0063527641403537255,1.4632413694565636,-0.0020226176562703454,-0.005655539162778121,-0.005655539162778121
51,0.51,-0.042136824165326124,-0.027978075968188118,1.4819658777060172,-0.0041043964245886825,-0.006927170469583942,-0.006927170469583942
52,0.52,-0.050991392865284736,-0.013681769728856489,1.3596222602957615,-0.007312292566715067,-0.006126719028674053,-0.006126719028674053
53,0.53,-0.07401522937203314,0.06470153338643728,1.1980301616890157,-0.007502955210546475,-0.0065444893857566355,-0.0065444893857566355
54,0.54,-0.1509095121675943,0.05903275781279588,1.047415604359193,-0.003035676088815442,-0.007342978902263952,-0.007342978902263952
55,0.55,-0.20581797903490592,0.02752549449012736,1.0017506680135502,-0.0006660581974925116,-0.00719948221321138,-0.00719948221321138
56,0.56,-0.1061522118684546,-0.007677985444244764,0.9091936300469936,-0.0030511672314074627,-0.00943896806784822,-0.00943896806784822
57,0.57,0.017967070162839036,0.06059475152023733,0.7259354118453634,-0.0054372978934872605,-0.011750514012968716,-0.011750514012968716
58,0.58,-0.026719070329694943,0.105975541460472,0.4551643838778937,-0.004542166021439339,-0.0121097022098192,-0.0121097022098192
59,0.59,-0.16781803552750332,0.07643710325246689,0.1950560813623331,-0.0050516400983112225,-0.010600249704831196,-0.010600249704831196
60,0.6,-0.1717409361407324,0.010765159420179315,0.015357412220103672,-0.0034880444403467005,-0.013108800310736102,-0.013108800310736102
61,0.61,-0.038706924486740665,-0.043020929820092466,-0.15629442392617107,-0.0032423638431856986,-0.013108581652410349,-0.013108581652410349
62,0.62,0.024813220680963713,-1.9013773600529138e-05,-0.3347096134518093,-0.006463889948143001,-0.014277917875461545,-0.014277917875461545
63,0.63,0.03066334263237591,0.034936669371389534,-0.5506608410135725,-0.006108448592563946,-0.014118970668702322,-0.014118970668702322
64,0.64,0.04115035592090648,0.034984350264940386,-0.7309655795081287,-0.002278937076824198,-0.014185991369558431,-0.014185991369558431
65,0.65,0.08957011351702229,-0.030017475203413586,-0.8517832978063422,-0.0027119867638539423,-0.013568823139955643,-0.013568823139955643
66,0.66,0.09274814102979442,-0.06307124982127008,-0.8912441313450404,-0.0033577917580178713,-0.013980615816988841,-0.013980615816988841
67,0.67,0.05954771522002555,-0.03854610827181183,-0.9780599213498036,-0.006324248357207595,-0.01315614043947632,-0.01315614043947632
68,0.68,0.09900414246053776,-0.02226529116714836,-1.1081438831204435,-0.005458045268691357,-0.01075238931664818,-0.01075238931664818
69,0.69,0.1606379500111576,-0.04020326332204594,-1.247509578888574,-0.0010660862134128806,-0.0102016864187366,-0.0102016864187366
70,0.7,0.1577978268365432,-0.08157985176470044,-1.2585483949159268,0.0015659911393600767,-0.012051960547412793,-0.012051960547412793
71,0.71,0.0979215782924618,-0.07841288056275007,-1.1944722744103011,0.0003344008111908271,-0.011930607305434049,-0.011930607305434049
72,0.72,0.10946003616419132,-0.05852360127429664,-1.120091708557935,-0.000766964052264609,-0.01382284130108058,-0.01382284130108058
73,0.73,0.11588363626358396,-0.06384084083526713,-1.0767949145736067,-0.0005747497556491027,-0.012871865569902882,-0.012871865569902882
74,0.74,0.06356793674525954,-0.0740521917457789,-1.009999949017617,-0.000771512979206148,-0.01161798623189813,-0.01161798623189813
75,0.75,0.019616368914437687,-0.058266411601180235,-0.9220025524327476,0.0013217713580961818,-0.012137107469315194,-0.012137107469315194
76,0.76,0.00976843713655786,-0.026926107041402185,-0.783975838149431,0.002069155416298216,-0.011771008319042854,-0.011771008319042854
77,0.77,0.003096422624687612,-0.030166461850778568,-0.667445070461086,0.0008299759172954896,-0.013654996826300513,-0.013654996826300513
78,0.78,-0.011201398726001023,-0.06688326402821308,-0.5815918048628295,-0.0005321517908330819,-0.01285451456733147,-0.01285451456733147
79,0.79,-0.0149898935750119,-0.09280362689193884,-0.4774721805738787,-0.002813666903580448,-0.012772193135648726,-0.012772193135648726
80,0.8,-0.016004473732914803,-0.05726697542008943,-0.3747729844195809,-0.005761241095726822,-0.014187992664456603,-0.014187992664456603
81,0.81,-0.08868887307133097,-0.05541899456157594,-0.1965784557963114,-0.0036586775360312545,-0.012527332056210694,-0.012527332056210694
82,0.82,-0.19732885252166638,-0.04345024809169829,-0.06391732235017375,-0.0012024166069448798,-0.013446158099852985,-0.013446158099852985
83,0.83,-0.13877666332863,-0.00401940326013385,0.025214727211231622,-0.0025407159753869078,-0.013475607651024473,-0.013475607651024473
84,0.84,0.03766476403011046,0.06849050520777922,0.08147887836338089,-0.002843862663463058,-0.013280303723060737,-0.013280303723060737
85,0.85,0.05670566503034978,0.09724057705279204,0.18162921062564824,-0.0033910477490926147,-0.013489679617490185,-0.013489679617490185
86,0.86,-0.1080906402673775,0.0190674269962165,0.30402120328051946,-0.0034515040014803213,-0.012615811668010804,-0.012615811668010804
87,0.87,-0.18507453498460297,-0.016577222387033186,0.39327158238974114,-0.0056692312757369795,-0.011835147219424878,-0.011835147219424878
88,0.88,-0.04274703077417499,0.01145556442423111,0.41179609612498025,-0.007020414483938964,-0.010211667135517194,-0.010211667135517194
89,0.89,0.06970475341928552,0.11328765517101932,0.4789288421234302,-0.004482130468123013,-0.00975464018223788,-0.00975464018223788
90,0.9,0.0005297149176082851,0.14026909585806116,0.6108031372009367,-0.0014140182103555695,-0.009958396087260152,-0.009958396087260152
91,0.91,-0.07837353672034755,0.11050683288123311,0.7557953246928836,-0.0014110725730672462,-0.011153408194465027,-0.011153408194465027
92,0.92,-0.017887952652056,0.08782968008111355,0.7728817369080426,-0.0041827653761652575,-0.009960553253685368,-0.009960553253685368
93,0.93,0.07634960620169155,0.12192774200472814,0.7296181419356987,-0.007683348555363139,-0.009691970423829592,-0.009691970423829592
94,0.94,0.031201626725338168,0.13229476293770862,0.7618268300959995,-0.0073660222573999345,-0.009834517397790213,-0.009834517397790213
95,0.95,-0.06631487249842116,0.06598157375018848,0.8143340131774552,-0.003182387949230132,-0.007847495625248684,-0.007847495625248684
96,0.96,-0.018459295084138634,0.020630778071864423,0.8491563706954335,-0.001633080594038759,-0.006763474681700171,-0.006763474681700171
97,0.97,0.0812229873284405,0.03193815030651974,0.7599821691201364,-0.000586662196968656,-0.005873362582755353,-0.005873362582755353
98,0.98,0.02419618402668459,0.07739968397805715,0.6936088574935738,-0.0017176809878899578,-0.007763433868775154,-0.007763433868775154
99,0.99,-0.038821012915354905,0.04003799659223156,0.6374395556330905,-0.005090255089669304,-0.007759793521596331,-0.007759793521596331
100,1.0,0.002996325415991964,-0.005711446382711628,0.6478102937618027,-0.005487536806146172,-0.007528858949262515,-0.007528858949262515
101,1.01,0.049684717033733096,-0.06294048618613193,0.6354540575205081,-0.002074619308320969,-0.006496757703367957,-0.006496757703367957
102,1.02,0.003285060541115938,-0.04817632255728592,0.5583914645205348,-0.0005433763618384036,-0.007481732138997751,-0.007481732138997751
103,1.03,-0.052557514810293096,-0.017268651303200877,0.41551320685928755,-0.0018517152816868246,-0.007396582581431845,-0.007396582581431845
104,1.04,0.009356000427799521,-0.022128036391365135,0.26494142062806386,-0.002804069531513916,-0.006981793185650651,-0.006981793185650651
105,1.05,0.04607510716062771,-0.0725276324816342,0.18480356683826749,-0.003484050995715893,-0.00923984923159888,-0.00923984923159888
106,1.06,0.020303621094825787,-0.15315456293959856,0.16266397969787358,-0.0034245072219390147,-0.008062058304595303,-0.008062058304595303
107,1.07,0.005082467683641491,-0.12398938788043423,0.07826186727246,-0.004284736762005528,-0.00817806991093253,-0.00817806991093253
108,1.08,0.050422021174758164,-0.06178182191123979,-0.0822457729084918,-0.003258586121310328,-0.007464813052761584,-0.007464813052761584
109,1.09,0.04535161753555467,-0.011408009093430597,-0.18757767805346603,-0.000768865877489379,-0.005517589962788085,-0.005517589962788085
110,1.1,0.04132886515042729,-0.026178032425105597,-0.24272359355303588,0.001222129460826943,-0.006893215780259704,-0.006893215780259704
111,1.11,0.049994384327590145,-0.05659407217714727,-0.2414315749403178,-0.00028379143697604544,-0.0071155702565026124,-0.0071155702565026124
112,1.12,0.06004369758463013,-0.07288585523148841,-0.30990032501807596,-0.002259340351381609,-0.00574168506316495,-0.00574168506316495
113,1.13,-0.0018613278091083943,-0.02487212901337954,-0.3961859817309206,-0.003288617467414943,-0.007111993765228383,-0.007111993765228383
114,1.14,-0.045451736503693475,0.01149854897794943,-0.5006334050654146,-0.0005963790523388019,-0.0062330786913210355,-0.0062330786913210355
115,1.15,0.016312417444466407,0.008824541361428271,-0.5429118504531848,0.003189227682845744,-0.006756655005921916,-0.006756655005921916
116,1.16,0.03137844251943552,-0.005114098406503675,-0.5431221691530322,0.0037651193857007634,-0.006313325032460457,-0.006313325032460457
117,1.17,-0.04037529548470613,-0.03355936674374305,-0.5259466056517476,4.360771457788924e-05,-0.00562879207273761,-0.00562879207273761
118,1.18,-0.12122940736389805,-0.04068998705317102,-0.5190140123016784,-0.004691468401158554,-0.00476205150497741,-0.00476205150497741
119,1.19,-0.06553136332738253,-0.033767074620752194,-0.5539765978934887,-0.005610668228680296,-0.002933514183040624,-0.002933514183040624
120,1.2,0.00996440507694843,0.005768449850709831,-0.5401467899104955,-0.0041320346748323095,-0.0024741095710799923,-0.0024741095710799923
121,1.21,-0.05624627979641103,0.03982877155167758,-0.45258155667625777,0.0012175759650380762,-0.003915860766016126,-0.003915860766016126
122,1.22,-0.13925707842656299,0.04681659321102699,-0.41810198249225594,0.0034750381270283104,-0.0046688649668839045,-0.0046688649668839045
123,1.23,-0.06478528159036509,0.04744768835792486,-0.40081361277701644,0.0011548218413576534,-0.004618379026962649,-0.004618379026962649
124,1.24,0.09413453504495992,0.053644016649100144,-0.42914403900275533,-0.0036565071756477093,-0.003865639470238103,-0.003865639470238103
125,1.25,0.09255206225454538,0.052299459048670595,-0.3737865860914186,-0.006203639591496706,-0.003478960766538188,-0.003478960766538188
126,1.26,-0.03267925826417336,-0.0030878445352979927,-0.23685567510949382,-0.003822025054523305,-0.004326250970766124,-0.004326250970766124
127,1.27,-0.07240820408339287,0.003936802988779707,-0.2145576073642953,0.0008030910577048714,-0.0037319892220234853,-0.0037319892220234853
128,1.28,0.025653724690336867,0.053348183901332655,-0.20175595270404403,0.005646254583647089,-0.003472953091898574,-0.003472953091898574
129,1.29,0.12518095992586523,0.09560269154566348,-0.17411564912500796,0.002445766017988925,-0.004169493926625632,-0.004169493926625632
130,1.3,0.10908995376439388,0.0747949847726089,-0.08610035908450828,-0.002885394359742573,-0.003752159487850122,-0.003752159487850122
131,1.31,0.03562609002363077,-0.0364149165971285,-0.0034647952202829513,-0.004450662592827949,-0.002688319445729137,-0.002688319445729137
132,1.32,-5.4142165054185676e-05,-0.06778927675142794,0.003979176253445724,-0.005321450669564171,-0.004750060611732632,-0.004750060611732632
133,1.33,0.03050859745346733,-0.02549113874619252,-0.02516871512417674,-0.002634611423945866,-0.005665955700814596,-0.005665955700814596
134,1.34,0.06708995434249815,0.058351612807636344,0.01977079513459952,-0.0005945508731595527,-0.0055505075792159925,-0.0055505075792159925
135,1.35,0.0574061323814104,0.052782092526384106,0.1074661521912632,0.001186022032150801,-0.0057129594932346225,-0.0057129594932346225
136,1.36,0.007408783678855765,0.014148652489695216,0.20108102942337908,-8.429792653266233e-05,-0.007319141607733966,-0.007319141607733966
137,1.37,-0.008859977327049798,-0.04556334443428724,0.19238845442506508,-0.006148911608542584,-0.007316754946819606,-0.007316754946819606
138,1.38,0.0008028960632035839,-0.04324285587079971,0.14929554124152164,-0.008558922334082798,-0.004497055419191465,-0.004497055419191465
139,1.39,0.012655126266784451,-0.004969305175044569,0.16360854205312936,-0.005951478188952572,-0.004223850464859751,-0.004223850464859751
140,1.4,-0.04169574800167524,0.04396730933197189,0.2497288474114751,0.0006728977741124152,-0.005260266211210395,-0.005260266211210395
141,1.41,-0.06538555741209617,0.018245930965442605,0.35055510919514604,0.004944837849087314,-0.004398950069115717,-0.004398950069115717
142,1.42,0.0012550068568510236,-0.0259175892151987,0.323409908690865,0.0002005448538539194,-0.004956790762967277,-0.004956790762967277
143,1.43,-0.010488208107773792,0.004573774882973461,0.24017602924861808,-0.00928111025401138,-0.006158640840412629,-0.006158640840412629
144,1.44,-0.09446206043767075,0.03495910008226161,0.1949163344285736,-0.012460299581757126,-0.005192767302056218,-0.005192767302056218
145,1.45,-0.0977091207754808,0.04572634266781995,0.26299282260005563,-0.0068437787765312525,-0.0036844368846980337,-0.0036844368846980337
146,1.46,0.03558035899616529,-0.07738548942168536,0.3281358346158294,-0.0018886096527281643,-0.006423931846984152,-0.006423931846984152
147,1.47,0.05588762719546947,-0.12118195231028472,0.3679350575030151,-0.0008674147019408178,-0.005187325153404605,-0.005187325153404605
148,1.48,-0.06431695863315345,-0.02101283132509741,0.31245616422949785,-0.003572478098889565,-0.0030481362020583483,-0.0030481362020583483
149,1.49,-0.07332349475026326,0.13035448586409462,0.2080142239036399,-0.006713036152732064,-0.0035285797272423757,-0.0035285797272423757
150,1.5,-0.0047378006179276885,0.09125420914876341,0.16106517767361,-0.00713981359890683,-0.004512876907483797,-0.004512876907483797
151,1.51,-0.039050609181294375,-0.10699898768959898,0.20183404161134477,-0.005831000383976658,-0.003679341057266893,-0.003679341057266893
152,1.52,-0.07727731173731556,-0.2040776576942651,0.2606368560010647,-0.004764035072025296,-0.0038142492900160962,-0.0038142492900160962
153,1.53,0.02160802286848144,-0.0787630434514391,0.20596435365189963,-0.005793204476813151,-0.003254145513822713,-0.003254145513822713
154,1.54,0.07466437516324832,0.13237566663930328,0.1290777980943184,-0.005020830099649086,-0.0013959584902753204,-0.0013959584902753204
155,1.55,0.006633022901927143,0.13183871454349616,0.06881913847625795,-0.0020383526499345057,-0.002097367137114433,-0.002097367137114433
156,1.56,-0.05380605867096627,-0.027778010458213875,0.0741752533515791,-0.0019358628359990304,-0.005423670301605635,-0.005423670301605635
157,1.57,-0.05715099099154795,-0.14110694300855425,0.042808405064069084,-0.007454450253762877,-0.00235276836906162,-0.00235276836906162
158,1.58,-0.02988074161217391,-0.06363711618480501,0.04462055602958094,-0.0118887966857447,-0.00025443854661129665,-0.00025443854661129665
159,1.59,0.06148124993159823,0.03778161213065574,0.047875922285900076,-0.009267392401092185,-0.0014713557464836491,-0.0014713557464836491
160,1.6,0.1579038243820194,0.011100093451286406,0.010292330903541785,-0.0039151061694062475,-0.0015619164434913333,-0.0015619164434913333
161,1.61,0.1015834779271989,-0.046035587175387596,-0.059467528885003236,-9.862468049998044e-05,-0.00027949961634122665,-0.00027949961634122665
162,1.62,-0.06377332756584068,-0.023145692033687076,-0.13204566855624306,-0.0020535513857597924,0.00042208145749022136,0.00042208145749022136
163,1.63,-0.1529683332833195,0.04652833630912128,-0.1525300707157912,-0.006246780876887303,-0.0015144374752171807,-0.0015144374752171807
164,1.64,-0.01423082799047249,0.03712766182649298,-0.11577240473185313,-0.009688019059885292,-0.0022888276816658863,-0.0022888276816658863
165,1.65,0.14981771877319972,-0.007710680813087321,-0.0898327087469781,-0.008487615033330289,-0.0019776105899489407,-0.0019776105899489407
166,1.66,0.12510445313563648,-0.032050277311624825,-0.08114925748623535,-0.0023077788074550693,-0.001726814784523341,-0.001726814784523341
167,1.67,-0.04229534437797981,-0.005789048284491279,-0.21887664639249738,0.002117726224893207,-0.0035262522416969156,-0.0035262522416969156
168,1.68,-0.08649199685032176,0.03305340735984307,-0.32968937824754274,0.0013941115585088175,-0.001445978459741525,-0.001445978459741525
169,1.69,-0.018577018324287854,0.07438788597329138,-0.3172493238514281,-0.0042434588003423535,0.000553185358082006,0.000553185358082006
170,1.7,0.03088827673701435,0.0920034138844191,-0.18797176428935747,-0.007320259932663419,-0.0015817250172222455,-0.0015817250172222455
171,1.71,0.027876418308415304,0.0012727435032026183,-0.06952851642468685,-0.007032462035894654,-0.003001772179989724,-0.003001772179989724
172,1.72,-0.0011268623223759447,-0.08924386189198925,-0.15742232383861227,-0.005957169700886396,-0.0012492677372022186,-0.0012492677372022186
173,1.73,-0.06038496111385578,-0.0825715064712853,-0.29244921940803564,-0.0045917843345096715,-0.0017395068613189476,-0.0017395068613189476
174,1.74,-0.027610221824210072,0.07792527720577011,-0.3416521311686038,-0.003118886425921937,-0.0027967046958242477,-0.0027967046958242477
175,1.75,0.10356750734765728,0.12541290175795822,-0.18999296124537277,-0.004680433404193179,-0.003167913063020417,-0.003167913063020417
176,1.76,0.11326393116695048,0.00630608868786324,0.005326158136001874,-0.006198420144055364,-0.003637726519917393,-0.003637726519917393
177,1.77,-0.060008679416175284,-0.11027350361034417,0.04753265030255416,-0.009075489312830963,-0.002258293643743337,-0.002258293643743337
178,1.78,-0.17727766486049412,-0.0889189690874918,-0.10187135675681373,-0.011523017947369,-0.001908643708457472,-0.001908643708457472
179,1.79,-0.030703997504544916,0.06784946728588652,-0.26030206622364693,-0.009742963745618454,-0.0041498177103869395,-0.0041498177103869395
180,1.8,0.20212453301113134,0.10202885610386991,-0.25412721852752,-0.003789075114146071,-0.0059698025621056005,-0.0059698025621056005
181,1.81,0.08710521100731135,0.06945553933287277,0.009550253117993762,0.0015039135794358489,-0.008025662196912947,-0.008025662196912947
182,1.82,-0.19588800989664562,0.0054005985256536035,0.2006630965208468,-0.0032378926560416225,-0.007986324919182615,-0.007986324919182615
183,1.83,-0.1347778202214207,-0.026136296387754818,0.11916918640580319,-0.011770058572287304,-0.00634888741859492,-0.00634888741859492
184,1.84,0.21454137868608664,-0.05272695303083724,-0.12587674300297302,-0.015762934085396068,-0.005417611065302996,-0.005417611065302996
185,1.85,0.17436739608688442,0.013121151318804265,-0.20326203608821747,-0.012649039720935186,-0.0038776328044388244,-0.0038776328044388244
186,1.86,-0.22839343194049824,0.10567262903111985,0.02000428187302579,-0.004663338689203848,-0.005770459550816239,-0.005770459550816239
187,1.87,-0.20804074833173822,0.08304786630000686,0.1692560134531526,0.0007007931814887994,-0.005983621889234561,-0.005983621889234561
188,1.88,0.2517953381961612,-0.02277796777462321,0.14824747217926343,-0.0030125256199031595,-0.0073002393888550185,-0.0073002393888550185
189,1.89,0.2986561340589895,-0.0737206658257439,0.036358059381996335,-0.013436739060608731,-0.005986359714861477,-0.005986359714861477
190,1.9,-0.21121465347144305,0.027919847819033124,0.07167010257582546,-0.018784927735801173,-0.004790932037568546,-0.004790932037568546
191,1.91,-0.2849024795462584,0.06936810109434138,0.05491650429085903,-0.013245233732548605,-0.006168869221416329,-0.006168869221416329
192,1.92,0.18004606652445942,0.04986819526116537,0.04263848026617696,-0.0018165542908815703,-0.00575210477707234,-0.00575210477707234
193,1.93,0.3097416824014181,-0.03772855836703983,0.09185650956377975,0.00397294730694455,-0.007530213649707146,-0.007530213649707146
194,1.94,-0.15607843939067387,-0.00822626470934238,0.26862186026145807,-0.002543908924542297,-0.007642990772810005,-0.007642990772810005
195,1.95,-0.27297026022385595,-0.006115596541225364,0.28106518903932276,-0.01066118626984525,-0.005657658421354504,-0.005657658421354504
196,1.96,0.15655448579934886,-0.05140731056048098,0.1276982876907775,-0.016474673996045026,-0.006379676435188501,-0.006379676435188501
197,1.97,0.1970840344237379,-0.06769489036380075,0.04588109755357464,-0.013223179467928331,-0.008347241659485881,-0.008347241659485881
198,1.98,-0.21297066612988488,-0.03393230641435077,0.1462092448888434,-0.004003810021389285,-0.0072623712514566785,-0.0072623712514566785
199,1.99,-0.21314066122441064,0.0213457189650976,0.20163651911209537,0.004724584974062071,-0.005762262481802822,-0.005762262481802822
200,2.0,0.22552455404178437,-0.049499821181954326,0.09967498201126589,0.0020821642505509767,-0.00738640329993601,-0.00738640329993601
201,2.01,0.19312555512593949,-0.12393137120553516,0.1026321349824941,-0.008508092310516186,-0.0046489203075471995,-0.0046489203075471995
202,2.02,-0.1727387937689776,-0.14153992638072976,0.11563420932090102,-0.01681850250393816,-0.003760153879797584,-0.003760153879797584
203,2.03,-0.10174962263479781,-0.08667437085210171,0.07524011447240347,-0.01838230202617821,-0.004928460661818181,-0.004928460661818181
204,2.04,0.21448752511666394,-0.0562515221531876,0.034397546543235034,-0.009302823501280613,-0.005699826044322096,-0.005699826044322096
205,2.05,0.10593351234355826,-0.07144437094053889,0.08207097375119275,0.0007883269779826781,-0.006213995209214718,-0.006213995209214718
206,2.06,-0.26645650314831526,-0.013550746896802902,0.14634024876654644,4.008926617720841e-05,-0.00683861427686617,-0.00683861427686617
207,2.07,-0.2822399423675249,0.04873926576303777,0.03694686985540918,-0.008051410982006155,-0.007548412884283451,-0.007548412884283451
208,2.08,0.028156192658667034,-0.006223336693752433,-0.11535622116296362,-0.01676610317680538,-0.007919054397687546,-0.007919054397687546
209,2.09,0.21097680408569788,-0.13640014632004696,-0.06359162255008352,-0.020092434362542558,-0.008416274269838701,-0.008416274269838701
210,2.1,0.15305359659108947,-0.11532561048656007,0.07965565175849036,-0.014597306876265587,-0.010594407208733912,-0.010594407208733912
211,2.11,0.036656414586093644,0.026756047835829216,0.17573537442558765,-0.0029683176040535032,-0.01025360856315898,-0.01025360856315898
212,2.12,-0.1514559683325128,0.13674422441537687,-0.030196963245454525,0.0059036192012157755,-0.005543737580491777,-0.005543737580491777
213,2.13,-0.3343443504199549,0.11597868873221917,-0.30289364893600623,0.0011291186280089035,-0.003727550687787826,-0.003727550687787826
214,2.14,-0.28315240030893424,0.11169132661716052,-0.3475457252340508,-0.006879595978901384,-0.00829877171648671,-0.00829877171648671
215,2.15,-0.014665294886119395,0.14709548694735336,-0.23609579659025948,-0.009752809568861015,-0.01290774116437077,-0.01290774116437077
216,2.16,0.3809683036524361,0.06676305528965669,0.05219202268009718,-0.004761989671380635,-0.011759776443633907,-0.011759776443633907
217,2.17,0.5279028094248008,0.04001495854818486,0.23479614698428278,0.005391897027762072,-0.010932868703659952,-0.010932868703659952
218,2.18,0.18288831911834846,0.1793655421133615,0.07879138900265192,0.014154282606333371,-0.007631734609714367,-0.007631734609714367
219,2.19,-0.5286500540989018,0.444950453266042,-0.18296406397857967,0.016291805099803575,4.932421529262304e-05,4.932421529262304e-05
220,2.2,-0.7758408287722299,0.37052082660524777,-0.5881863022829199,0.013100091651793664,0.002760391459718217,0.002760391459718217
221,2.21,0.01914266579352003,-0.1754481898054578,-0.6677452635435986,8.011225869832342e-05,-0.003862133527665085,-0.003862133527665085
222,2.22,0.8930740740317168,-0.5803303555684354,-0.18923453152547118,-0.01301117603774413,-0.00969307821491911,-0.00969307821491911
223,2.23,0.5887365647244197,-0.28510297614079116,0.36980891703784735,-0.012279820975492527,-0.007718736745090861,-0.007718736745090861
224,2.24,-0.3681416497654826,0.29868571981955633,0.6242929042424245,0.004172035758712887,7.553111054468646e-05,7.553111054468646e-05
225,2.25,-0.6056281673872274,0.3445891605659375,0.05786035373862192,0.02420813096536156,0.008099090468237698,0.008099090468237698
226,2.26,-0.16806962431041544,-0.16947595527339093,-0.7062238523269788,0.026825288431826445,0.012372703278771477,0.012372703278771477
227,2.27,0.06072053201362104,-0.590608742784365,-0.7445174098166402,0.0014818351401648044,0.009237834147908387,0.009237834147908387
228,2.28,0.051524403593062165,-0.3293442802706823,-0.1046386513177307,-0.026615723870680955,0.001717802851831992,0.001717802851831992
229,2.29,0.22087450138849235,0.15171321967557513,0.5878551789133352,-0.023770942169576446,-0.002707824870272299,-0.002707824870272299
230,2.3,0.46804434014203367,0.2616127471811455,0.6539927124557514,0.0060777188263079,0.0043059961566434815,0.0043059961566434815
231,2.31,0.2665525144423455,-0.04242755243900269,0.20801558786548258,0.02939846208350317,0.01139842205549544,0.01139842205549544
232,2.32,-0.2897490228845195,-0.2768894541676516,-0.29704120290898356,0.02406748261229725,0.01418736170394426,0.01418736170394426
233,2.33,-0.5241389537139896,-0.07517210503840305,-0.3442532553871076,-0.0012150820233818164,0.010928935196695487,0.010928935196695487
234,2.34,-0.05108535744716117,0.22951731574921516,-0.040969222138889705,-0.02216183935801948,0.005097872852469475,0.005097872852469475
235,2.35,0.37780990286178706,0.2369320580595411,0.49175581518877154,-0.017864577026581736,0.00046280542806578,0.00046280542806578
236,2.36,0.10207106122626261,0.012862319265515045,0.7145392808027671,0.005982321654385638,0.0033218913702683377,0.0033218913702683377
237,2.37,-0.07716483332787438,-0.030368587159057676,0.2895053124951034,0.027029037469402332,0.00757207131683506,0.00757207131683506
238,2.38,0.2614287066632337,0.1293649391308034,-0.24763416727442628,0.02446508745434449,0.010035523760174931,0.010035523760174931
239,2.39,0.13322157834858123,0.245200094725548,-0.42639105632052554,0.004361622682630873,0.008046505169270017,0.008046505169270017
240,2.4,-0.4202019097400172,0.05982701973600085,-0.08046196900804428,-0.015871035680345754,0.002388411290096694,0.002388411290096694
241,2.41,-0.35668442860891025,-0.1717722195622208,0.3663338550645323,-0.025544901381361448,-0.0011117573006954118,-0.0011117573006954118
242,2.42,0.1898034736566843,-0.12829031905874502,0.296110619409896,-0.01285429727909325,-0.0008493323738560125,-0.0008493323738560125
243,2.43,0.2886607043892083,0.06405359551932832,-0.018480712270255273,0.009149397259826969,0.0020665639294071853,0.0020665639294071853
244,2.44,0.018178833757095114,0.08924559108181108,-0.2196112568382247,0.018010180959317175,0.0028836473653791033,0.0028836473653791033
245,2.45,-0.08408914264927925,-0.08614841027115111,-0.29221993081827163,0.00601813878815336,5.135268836064383e-05,5.135268836064383e-05
246,2.46,-0.06651779782170099,-0.0771797234617211,-0.09812957396078023,-0.016610357458879028,-0.002525274243372194,-0.002525274243372194
247,2.47,0.007234373126248375,0.05226215485056612,0.022444440172400867,-0.028896365525247436,-0.0009179497101069302,-0.0009179497101069302
248,2.48,-0.1686222554109888,0.06301893424204186,0.09762214529870766,-0.02371387297056305,-0.0012288899663695624,-0.0012288899663695624
249,2.49,-0.3242517523093174,-0.15309341576819874,-0.04688842742850244,-0.003836131660733183,-0.0017953231489513555,-0.0017953231489513555
250,2.5,-0.046131838656908425,-0.2029978294423923,-0.17118402048546205,0.008110102352242191,-0.0005787815873152363,-0.0005787815873152363
251,2.51,0.3365480243904436,0.06984022101964514,-0.11637175804936067,-0.002414455623211839,-0.0033614362078913853,-0.0033614362078913853
252,2.52,0.051882405214968924,0.29707790016333424,0.10632992146971816,-0.017341215527708887,-0.006982889620560873,-0.006982889620560873
253,2.53,-0.37755560999076504,0.06459724809049848,0.18617654835117864,-0.026913668958831124,-0.0046231511336569395,-0.0046231511336569395
254,2.54,-0.23688292432527053,-0.3244927568779209,0.070775873197929,-0.034040579824807134,0.00020028071189072275,0.00020028071189072275
255,2.55,-0.01088186053876622,-0.3738666778900984,-0.21268180485375912,-0.030109023004512767,-0.00034340790989461836,-0.00034340790989461836
256,2.56,0.15406321678162765,-0.1616733151869608,-0.32395748077113296,-0.016728965135450184,-0.0029194517066186785,-0.0029194517066186785
257,2.57,0.43243301068142914,0.08401480339308151,-0.08221836024137189,-0.00679771833015465,-0.0068431001037051065,-0.0068431001037051065
258,2.58,0.4247776500262178,0.20341821773775706,0.13104129022520442,-0.008240720343819292,-0.007667549744281997,-0.007667549744281997
259,2.59,0.06447222866250787,0.1573748662487066,0.146426331587927,-0.014625230553843968,-0.006379513318556978,-0.006379513318556978
260,2.6,-0.1307554505246431,0.07585734726820657,0.07533384676494219,-0.024320328512163772,-0.0027683601103548395,-0.0027683601103548395
261,2.61,-0.03331894488907514,0.014575000290962453,-0.125063544436541,-0.025526120840400585,-0.007575007918775925,-0.007575007918775925
262,2.62,0.19402305002446252,-0.011318486103402983,-0.19954186711780428,-0.01556061289473271,-0.010149031453471936,-0.010149031453471936
263,2.63,0.0409643854891325,0.029125632874395353,0.14369740148912205,-0.006387510744314389,-0.008440311195930736,-0.008440311195930736
264,2.64,-0.26890330003291246,0.1476695644226503,0.23367310041161565,-0.0037292364420563546,-0.009031639877930715,-0.009031639877930715
265,2.65,-0.017049825966495936,0.12808997389177335,0.1858071706391835,-0.008051645464943344,-0.009187147262047654,-0.009187147262047654
266,2.66,0.29778336091359914,-0.026590270878568856,0.008140180034569885,-0.016819112072307137,-0.007988034589145297,-0.007988034589145297
267,2.67,0.03304605466964998,-0.21207898299696645,-0.1268414766346702,-0.02831022850954326,-0.008143996815283681,-0.008143996815283681
268,2.68,-0.33955553105797,-0.22822986089178166,0.03242969763461223,-0.03068248835639318,-0.00941644654566599,-0.00941644654566599
269,2.69,-0.17159652764714695,-0.14698688224315778,0.20250835896192088,-0.02081121834156249,-0.011540336902384945,-0.011540336902384945
270,2.7,0.1751924757297803,-0.2032795031134348,0.20142176116319388,-0.010751346693994657,-0.00888290740876662,-0.00888290740876662
271,2.71,0.006764769477116905,-0.08022297044687754,0.26477400806558665,-0.010723253165900294,-0.008046410350013302,-0.008046410350013302
272,2.72,-0.326579711595378,0.0904922462414015,0.07696972674944526,-0.01828740215452781,-0.006613151661464403,-0.006613151661464403
273,2.73,-0.24415654225356098,0.11229271629416744,-0.1533388900845627,-0.025256503420567747,-0.0033862486916744344,-0.0033862486916744344
274,2.74,0.1272574921963433,-0.07302147044497172,-0.2321424782488682,-0.026518080251278397,-0.0033761044180930216,-0.0033761044180930216
275,2.75,0.11049939662574279,-0.1970387772971181,-0.11942083826149313,-0.021385832655824125,-0.004900203707244156,-0.004900203707244156
276,2.76,-0.03525177444419529,0.0329005247698161,0.020915750844095526,-0.01311455410981179,-0.0035281884884201587,-0.0035281884884201587
277,2.77,-0.07321649533947472,0.3858808544842781,0.10359355381587865,-0.002213470897506124,-0.0017059491106398929,-0.0017059491106398929
278,2.78,-0.02897001096699867,0.4543264316375484,-0.19498473221367288,0.006962693980361694,0.0017353545996716213,0.0017353545996716213
279,2.79,-0.042552661010505234,0.21266276861602096,-0.11193963250742117,0.004827828969659003,0.002760789980141008,0.002760789980141008
280,2.8,-0.15518385272932064,-0.017760827630845313,0.03692598794359739,-0.006226348425939454,-0.002768852573629776,-0.002768852573629776
281,2.81,-0.021593152712452435,-0.07838926541428842,0.18463955690315628,-0.010651240980027971,-0.004524902836827279,-0.004524902836827279
282,2.82,0.15238331706086383,0.22334047697046097,0.177973297333486,-0.0019520021716294704,-0.001783118611339619,-0.001783118611339619
283,2.83,0.21699398391314678,0.4299790821342954,-0.06797712204911086,0.018359940500865042,-0.000528086988856718,-0.000528086988856718
284,2.84,0.009651930363666829,0.25709643505869767,-0.11177227419611939,0.03231059207691167,-0.0018218435067661528,-0.0018218435067661528
285,2.85,-0.0697598573414534,-0.3034514423188792,0.06158356171390804,0.025446825700047297,-0.0029215101976151968,-0.0029215101976151968
286,2.86,-0.035636953513202695,-0.5814520450180822,0.2960090448228685,-0.0019299122250736214,-0.005053949408613774,-0.005053949408613774
287,2.87,0.22280342226516958,-0.287591341964375,0.1902736233447699,-0.016540429755543894,-0.003870278055513082,-0.003870278055513082
288,2.88,0.3051016153433978,0.21676001045778961,-0.14168134503611063,-0.0027548074343324287,-0.004131699631524986,-0.004131699631524986
289,2.89,0.11452166598403582,0.2861274558472589,-0.4870602941069251,0.02843437042908805,-0.003243214093304966,-0.003243214093304966
290,2.9,-0.1592196223974473,-0.13776975177435732,-0.5185959981056208,0.04021289204290522,-0.002223399930818541,-0.002223399930818541
291,2.91,-0.15386170947935207,-0.4387856487421026,-0.25535130739172446,0.023611985224649128,-0.003526315114057757,-0.003526315114057757
292,2.92,0.02368385128881488,-0.22344619256659642,-0.20610707889740354,-0.006543748122133153,-0.004429697648105755,-0.004429697648105755
293,2.93,-0.030720396492977295,0.10881063478098832,-0.23248310763148042,-0.019884798428422727,-0.0005416714800206886,-0.0005416714800206886
294,2.94,-0.23462793648588118,0.08105248624904489,-0.37496160030342396,-0.006469311347113397,-0.0007618913132391161,-0.0007618913132391161
295,2.95,-0.13035837255471028,-0.17279260148118497,-0.24907883840660275,0.017258013199580386,-0.003777360070108593,-0.003777360070108593
296,2.96,0.247938702234916,-0.21142451803277018,0.048475691252318376,0.02473178468397937,-0.005564345914450184,-0.005564345914450184
297,2.97,0.2823050569392011,0.008513049256686708,0.3092213726292214,0.015666703342243578,-0.005213685665543139,-0.005213685665543139
298,2.98,-0.1945042056049878,0.06351903092229552,0.3287212603166306,-0.0035131811029826053,-0.002036361597284998,-0.002036361597284998
299,2.99,-0.4738763208822631,-0.1321853781309653,0.08023966923992049,-0.0210321990141314,-0.0020975368464327907,-0.0020975368464327907
300,3.0,-0.07616853418795716,-0.17315422129506197,-0.2238620005459306,-0.018551553022198342,-0.0016484043213890664,-0.0016484043213890664
301,3.01,0.4027281409628716,0.04860613629359117,-0.1508381989588618,0.0009933984597745114,-0.0035631352787614274,-0.0035631352787614274
302,3.02,0.21157526382612732,0.2832671779319345,0.2758602532181702,0.01912712622590249,-0.006122883529859825,-0.006122883529859825
303,3.03,-0.21798493576324213,0.2599665127372676,0.582932009606278,0.019402425877613358,-0.0047459156737481795,-0.0047459156737481795
304,3.04,-0.12086672165215354,0.12040327817026243,0.3690217629664547,-0.002728302118697061,-0.003448862743075513,-0.003448862743075513
305,3.05,0.2115552110174748,0.0903496541156568,-0.01064940701875905,-0.02860912965861372,-4.5016544866003604e-05,-4.5016544866003604e-05
306,3.06,0.1197488373300969,0.0881406504626213,-0.21581138965765026,-0.03607140595931453,-0.0006913911880522331,-0.0006913911880522331
307,3.07,-0.20831232487579127,-0.01611366881870306,0.12924843443347142,-0.022982004954983863,-0.0032382882604325225,-0.0032382882604325225
308,3.08,-0.10127854694190049,-0.09533423682421724,0.36735741382148407,-0.004573446833051975,-0.007094973771823395,-0.007094973771823395
309,3.09,0.20074575263367042,0.06570330991815766,0.4291228772618479,7.439078722571139e-06,-0.00540805388320492,-0.00540805388320492
310,3.1,0.22108800707957554,0.2690945523899196,0.24901118313720505,-0.01163077315410638,-7.220743604184751e-05,-7.220743604184751e-05
311,3.11,-0.03829065510536621,0.2962574052649817,-0.07241773932214282,-0.031536398505363085,-0.0014800876927303784,-0.0014800876927303784
312,3.12,-0.13702863477188237,0.0909267969215273,-0.19495526445281544,-0.04528613821029906,-0.00033615342611194744,-0.00033615342611194744
313,3.13,0.009286002631981052,-0.13270585577837182,-0.20489440056838862,-0.046081051381040836,-0.0004587040940108006,-0.0004587040940108006
314,3.14,0.08816566327611268,-0.19269332131197242,0.04829436413522695,-0.03628136762610844,-0.0044879294588763136,-0.0044879294588763136
315,3.15,0.019360161214268118,-0.04630262198072038,0.19809451124576097,-0.026159645111338614,-0.0030860864137006072,-0.0030860864137006072
316,3.16,-0.024524957960048957,0.16824343852287918,0.13944303741275038,-0.022644959710083568,-0.0019165429407932328,-0.0019165429407932328
317,3.17,-0.01532928840961395,0.11521186719033438,-0.006816637488493316,-0.026255893041056463,-0.00023990688661017486,-0.00023990688661017486
318,3.18,0.08683667175317941,-0.19473037990896455,-0.13128563562212076,-0.039747715556728735,0.0021961851726697004,0.0021961851726697004
319,3.19,0.1002922345301272,-0.41005659689720836,-0.020380201424414313,-0.04616170765357934,-0.00031121276553707075,-0.00031121276553707075
320,3.2,-0.08102922978856204,-0.17591134649840628,0.1981363464337339,-0.037588799081156136,-0.0017202996214701544,-0.0017202996214701544
321,3.21,-0.19180045101094506,0.15907258208508585,0.2279957472762882,-0.018570981211210976,0.0012652279193186597,0.0012652279193186597
322,3.22,-0.02474271657478186,0.2875628245866984,-0.07273579769681324,-0.0027449176621287003,0.004377625712218157,0.004377625712218157
323,3.23,0.12864367965022835,0.10551294170772563,-0.4154353905754918,-0.003401095110785813,0.00508290859812743,0.00508290859812743
324,3.24,0.012512216582550317,-0.1893592260256636,-0.43658863353714583,-0.022133276916164544,0.0034240100468276857,0.0034240100468276857
325,3.25,-0.18151152427667056,-0.3735213802256025,-0.15676364932623518,-0.04273137515920054,-0.0007260941923537763,-0.0007260941923537763
326,3.26,-0.1311008067675444,-0.39320902245918105,0.175540975616032,-0.044597651392469566,-0.00038736912102682337,-0.00038736912102682337
327,3.27,0.12535352816633757,-0.2573180334215225,0.1587457072676886,-0.028727556600292976,0.0034493401145745165,0.0034493401145745165
328,3.28,0.20071870488055898,-0.07744081492729608,-0.1401672489739605,-0.003086050370860845,0.006351024020628314,0.006351024020628314
329,3.29,-0.045539497912675926,-0.03174300886080243,-0.2540169208826224,0.00818358004552653,0.007028703314211086,0.007028703314211086
330,3.3,-0.16549345569934967,-0.220441289251507,-0.27030170326188596,-0.007865871310694541,0.0061120607907281365,0.0061120607907281365
331,3.31,-0.016149088963806228,-0.4168997454091525,-0.13396294595216035,-0.03442190837999288,0.003755452985897515,0.003755452985897515
332,3.32,0.09532434190772554,-0.2793672694467876,-0.008738539522452751,-0.048331105960453834,0.0023533353488521306,0.0023533353488521306
333,3.33,-0.04402101830753148,0.1349610675813886,0.0029895006987068484,-0.0341802242350828,0.0018051371321866454,0.0018051371321866454
334,3.34,-0.15307278221258136,0.3040958290682413,-0.052057320604493834,0.00014519882151976454,0.003610260335809468,0.003610260335809468
335,3.35,-0.030027225669839,0.06433444183590949,-0.1428719380610793,0.02013035969740716,0.0031496146816808856,0.0031496146816808856
336,3.36,0.09623399314256224,-0.15272996739326247,-0.10480944314340157,0.006956772662749175,0.00244584450702896,0.00244584450702896
337,3.37,0.02314922422772632,0.132668547224492,-0.058326941755653824,-0.021652160957605845,0.0010396146054856242,0.0010396146054856242
338,3.38,-0.13807258683571558,0.6295373598308468,0.10806448874205228,-0.03421212452239083,-0.0017058067428257794,-0.0017058067428257794
339,3.39,-0.03978176835354666,0.6690999022732308,0.10860186296197406,-0.017046167315046577,-0.0019072158557806832,-0.0019072158557806832
340,3.4,0.10421913321235723,0.15961910980172017,0.017777200182007347,0.008760441289283645,-0.0037203373603863273,-0.0037203373603863273
341,3.41,-0.007661811637507343,-0.2862146231510613,0.07274504615763377,0.013083974646510696,-0.004673136848443136,-0.004673136848443136
342,3.42,-0.26924479967012194,-0.11487275778565106,0.2381465856548405,-0.005432054764134211,-0.0052288846613425186,-0.0052288846613425186
343,3.43,-0.18080290312732963,0.2651298816718982,0.4364333747432083,-0.0233182190583741,-0.008601262427064438,-0.008601262427064438
344,3.44,0.2646289782196728,0.18720066787445025,0.31042347250575686,-0.024182021457508283,-0.0070001618934261295,-0.0070001618934261295
345,3.45,0.39415545315013534,-0.07444041782613658,-0.030987788938764194,-0.011024721424252192,-0.005238993680914501,-0.005238993680914501
346,3.46,0.03985108959685668,0.011826798104133257,-0.2530798200023641,0.005766770676699819,-0.0043262465774995046,-0.0043262465774995046
347,3.47,-0.32275789286314316,0.4786614367390605,-0.3077441857382085,0.015012481392290285,-0.0025862969702906773,-0.0025862969702906773
348,3.48,-0.32917518760818176,0.6670647089396804,-0.34726997645985835,0.015959272997453575,-0.0022875830777447947,-0.0022875830777447947
349,3.49,-0.041999226632472964,0.27711053263820096,-0.3030317766266926,0.005297715677440586,-0.0032432169729625874,-0.0032432169729625874
350,3.5,0.18070661825135267,-0.06397771600262038,-0.14353947885107304,-0.014540356464861896,-0.005002159342645974,-0.005002159342645974
351,3.51,0.11335996231050427,0.07464120266944675,0.021987248567397255,-0.02037322744595322,-0.0064448314162453245,-0.0064448314162453245
352,3.52,0.008643623119865496,0.3146910233386061,0.10622778766660908,-0.0033517446971687084,-0.006564858761151888,-0.006564858761151888
353,3.53,0.04916490777541136,0.10989002536433502,0.09889072551993199,0.01831207940553584,-0.004913772149444306,-0.004913772149444306
354,3.54,0.16371871170459562,-0.3737864440630133,0.0029777745189449867,0.0169281163361621,-0.004879021978094896,-0.004879021978094896
355,3.55,0.06827993175697246,-0.5319713388901903,0.04775305410757041,-0.007179093091683216,-0.004672914393270566,-0.004672914393270566
356,3.56,-0.091196173821976,-0.2693398829393488,0.17952689793089774,-0.02993466276235333,-0.004845482254831151,-0.004845482254831151
357,3.57,-0.03254083184112545,-0.010136386554000343,0.17640993361786458,-0.02603094010395482,-0.003618097236652039,-0.003618097236652039
358,3.58,0.16384796222885561,-0.07328533348727045,0.0573648205636257,-0.0037601674272186437,-0.0008134428798413844,-0.0008134428798413844
359,3.59,0.2331620550020129,-0.4019980097955237,0.043269382189347456,0.014369527107472847,-0.0029090789619718887,-0.0029090789619718887
360,3.6,0.07751580903168837,-0.4742630301157886,0.14983204609026685,0.01212914348348899,-0.003750612546548086,-0.003750612546548086
361,3.61,-0.10206234858181241,-0.06964637518897757,0.26626606838701555,-0.004704949620868237,-0.0021061281184934933,-0.0021061281184934933
362,3.62,-0.06443366934203085,0.3143856148798435,0.10483606112352764,-0.012288579326187585,-0.0012824399628292202,-0.0012824399628292202
363,3.63,0.10604930358442938,0.24309746724041745,0.02799025291448111,-0.0008157917478033364,-0.001903588037887768,-0.001903588037887768
364,3.64,0.12697138471419936,-0.06840208121793248,0.031471520442820915,0.01398075287145073,-0.002836786488105448,-0.002836786488105448
365,3.65,-0.012118907410101784,-0.16316975670110584,0.13340198152214172,0.016096132995552376,-0.0005544016595433422,-0.0005544016595433422
366,3.66,0.011398921982920113,-0.04906362683497237,0.22314980051385572,0.01166741738726445,-0.0012759814189891169,-0.0012759814189891169
367,3.67,0.12852599949085586,0.031225709828235887,0.06575017714283288,0.004414018802150428,0.00011544348050339511,0.00011544348050339511
368,3.68,0.023122702853566608,-0.12832696713653696,-0.13917974366576324,0.00023139497530504658,0.0029424234486446297,0.0029424234486446297
369,3.69,-0.15679113472491335,-0.3036338596136483,-0.1643650137231003,-0.001404959030775959,0.0009497473418062181,0.0009497473418062181
370,3.7,-0.1297136277782674,-0.33924363123105905,-0.07806353308703023,0.0038592892370206563,-0.0017988245250352176,-0.0017988245250352176
371,3.71,0.01944508696296879,-0.22139033608736164,0.02773263408569822,0.008755626426906504,-0.001981613981480691,-0.001981613981480691
372,3.72,0.006268258994616735,-0.07659288488568468,0.0928198114169291,0.007870063535634114,-0.0017597254511051484,-0.0017597254511051484
373,3.73,-0.03278695724939552,-0.08808561368963565,0.05940902508490105,0.0014216556017055413,-0.0036557177692846453,-0.0036557177692846453
374,3.74,-0.034447219729005565,-0.26542229567045195,0.0405859337644858,-0.007622985302406494,-0.00436155231228445,-0.00436155231228445
375,3.75,-0.006567968532588522,-0.3629314104633827,-0.018115931288680616,-0.0155026867124799,-0.003819496551857604,-0.003819496551857604
376,3.76,0.055102942090246965,-0.18404558609936145,0.031266839017477635,-0.013880687428383384,-0.005067347185762612,-0.005067347185762612
377,3.77,0.018065117774964543,-0.03512521794773393,-0.03481575293765299,-0.007362243002719385,-0.004432496396814928,-0.004432496396814928
378,3.78,-0.21291742856036933,-0.1928446744701609,-0.12628459810435191,-0.0010661346456081805,-0.002161558960191257,-0.002161558960191257
379,3.79,-0.3330212110801327,-0.2563723433506605,-0.2084764698746497,0.0004594151254756126,-0.004386601602422934,-0.004386601602422934
380,3.8,-0.048803728940133774,0.2179546056652823,-0.1829807830195974,-0.006992584696152653,-0.0062401618214352386,-0.0062401618214352386
381,3.81,0.28302972643947,0.7674293260434641,-0.09587203975140339,-0.005189959688560685,-0.007168529340349054,-0.007168529340349054
382,3.82,0.1291049725500074,0.8116848347444532,-0.06996177581701671,0.005974958818257341,-0.006424137856090279,-0.006424137856090279
383,3.83,-0.3364099961858003,0.250319743156609,-0.09404361264952918,0.009196112998134944,-0.004133949526799411,-0.004133949526799411
384,3.84,-0.4214259116467075,-0.25137969651436165,-0.09639330792137588,-0.005955788822770527,-0.005521855839466256,-0.005521855839466256
385,3.85,-0.04200730337141072,-0.24027693737381645,-0.14780385239072721,-0.02600760533697184,-0.007808037019463809,-0.007808037019463809
386,3.86,0.2194790493216387,0.1916206659690716,-0.05789429945422691,-0.02679261085322611,-0.00720054350095495,-0.00720054350095495
387,3.87,0.05173058072642488,0.5738721539866539,0.06139742017117851,-0.009645200619905321,-0.005924483473460317,-0.005924483473460317
388,3.88,-0.04624101698591988,0.5109104979205586,-0.12611622885408835,0.008985178921939013,-0.0032042889079118325,-0.0032042889079118325
389,3.89,-0.0221675314048047,0.15228662813556926,-0.3514818039295583,0.009442054191571677,-0.0031400319612444353,-0.0031400319612444353
390,3.9,-0.16900351289750587,-0.03502477757119951,-0.3376352655005049,-0.014506734580438562,-0.002535476768889389,-0.002535476768889389
391,3.91,-0.20104374957877869,0.04261453145445211,0.02211086732621509,-0.03764327541675698,-0.005904103920603023,-0.005904103920603023
392,3.92,0.17638371468266448,0.1901753846257516,0.2893933791827229,-0.038074410380102716,-0.005359199995725962,-0.005359199995725962
393,3.93,0.4210374860349553,0.3098008999907611,0.26730076963116733,-0.013911072827813706,-0.004716500792085609,-0.004716500792085609
394,3.94,0.11663357594682251,0.3516170469999917,0.16101731951948048,0.011615468706359315,-0.001990217142565099,-0.001990217142565099
395,3.95,-0.25381609252516746,0.16897483599556357,0.0696731555479162,0.014549693441074034,-0.0017687649727608106,-0.0017687649727608106
396,3.96,-0.10085531637389704,-0.04246176344167418,-0.1614017863710487,-0.009226892415214091,-0.0014000852993250055,-0.0014000852993250055
397,3.97,0.24987493038480807,-0.012693920592087182,-0.20623605479826068,-0.0399908819552877,-0.0033523622974644665,-0.0033523622974644665
398,3.98,0.24191347221841025,0.11292774900741538,0.0007234030741540692,-0.04937251781385631,-0.0048849099723072865,-0.0048849099723072865
399,3.99,-0.05986570856601546,-0.16030063987563525,0.2628998096524984,-0.03134406215672327,-0.0013323942070341613,-0.0013323942070341613
400,4.0,-0.029393306349683235,-0.6476883588412115,0.1800004950942221,-0.009252833863317874,3.9635313973451184e-05,3.9635313973451184e-05
401,4.01,0.2453282850199444,-0.6503459042959302,-0.0003277745680537736,-0.005737746687597861,-0.00045383581112108917,-0.00045383581112108917
402,4.02,0.26652899733146873,-0.04970754661906157,-0.07533159250130886,-0.01679126779567149,3.80311094362938e-05,3.80311094362938e-05
403,4.03,0.04424132854906873,0.49956414639490393,-0.018069889789697535,-0.02143676656322211,-0.00016734377056520748,-0.00016734377056520748
404,4.04,-0.09374535741291064,0.26212261221665273,0.056520425898227034,-0.017173445603283443,0.0011502423879353185,0.0011502423879353185
405,4.05,-0.11007245229413634,-0.413469089582097,0.10797394692153578,-0.0112296925780035,0.0019398791699012144,0.0019398791699012144
406,4.06,-0.09006395652894972,-0.6486114959217061,0.2398274830641868,-0.00839888624458731,0.00204016941244872,0.00204016941244872
407,4.07,0.09381422134264358,-0.18179342519378278,0.12131549986359812,-0.0057499535354664615,0.0023129595408832005,0.0023129595408832005
408,4.08,0.13305857479419753,0.3658377321844737,0.050708343620736396,0.0027483931807230147,0.0021731667049693887,0.0021731667049693887
409,4.09,-0.1219357487524747,0.3623507169928506,0.1146190598279358,0.013145046009631343,0.002537581086811163,0.002537581086811163
410,4.1,-0.1955894923553711,-0.13511765930807143,0.22477337117197121,0.01085939681239054,0.0037835270694079157,0.0037835270694079157
411,4.11,0.162809544454818,-0.5340758658271839,0.1594207415926001,-0.0028030249480407964,0.007216986549859184,0.007216986549859184
412,4.12,0.22592169586528543,-0.4663773180032902,0.02586841340944475,-0.015721185950280443,0.006000663792849498,0.006000663792849498
413,4.13,-0.2564090708727986,-0.10966748962803685,0.034112498860572465,-0.011231844950102512,0.004271943871004286,0.004271943871004286
414,4.14,-0.369496667920159,0.1816237709177282,0.08988538133247319,0.010199306765487866,0.0030989657617268907,0.0030989657617268907
415,4.15,0.23391310061812554,0.05800496860979988,-0.021968989439870728,0.026369308983764786,-3.671956889165357e-05,-3.671956889165357e-05
416,4.16,0.4724353425834689,-0.2877419146470547,-0.10689398386492688,0.02180587234749953,-0.00024571422712351635,-0.00024571422712351635
417,4.17,-0.09428722825373337,-0.3369001142651854,-0.03919717029226448,-0.0016418532665843054,0.0007770894154767263,0.0007770894154767263
418,4.18,-0.4218041104237738,-0.017946938586656372,0.024866995258286187,-0.01895166301822987,-0.0015328481139776193,-0.0015328481139776193
419,4.19,-0.07649207933858099,0.0862346120288886,-0.0974497820006072,-0.010865017843039221,-0.0003808592302643886,-0.0003808592302643886
420,4.2,0.2433270710985878,-0.1374743826085123,-0.20158173869021545,0.013537484582599086,-0.0030985453123977703,-0.0030985453123977703
421,4.21,0.08942312517283399,-0.17508507870552056,-0.12360737135884155,0.030113674812235206,-0.0051284952721480145,-0.0051284952721480145
422,4.22,-0.21721080603835102,0.08361160695787401,0.03733579749073444,0.027564345953292952,-0.0033617141848111,-0.0033617141848111
423,4.23,-0.2685178491834902,0.3692954380430187,0.17055912542835722,0.014751602108014643,-0.003658062743854961,-0.003658062743854961
424,4.24,0.03480446295237412,0.4265473178089128,-0.04967289167702714,0.004831558100681067,-0.004003897699539047,-0.004003897699539047
425,4.25,0.13604648545426642,0.2372751373944327,-0.2941325066686459,0.009442497347976895,-0.004697192046810125,-0.004697192046810125
426,4.26,-0.20748430239840146,-0.12207198618877146,-0.3345881394649234,0.021515524877633647,-0.00406015447557416,-0.00406015447557416
427,4.27,-0.34716950203326025,-0.33236508088265093,-0.20705935836123446,0.02634157899430436,-0.007205397580076245,-0.007205397580076245
428,4.28,0.11957907527612364,-0.05119797990720473,-0.07355263582810627,0.023867524069844097,-0.010969798124866164,-0.010969798124866164
429,4.29,0.4679992177466878,0.5743640678759692,0.02742062017693786,0.0215498175957786,-0.011758383108590677,-0.011758383108590677
430,4.3,0.09589514789606679,0.7021568041222982,0.03588899134148196,0.025248551547189038,-0.01068705353525368,-0.01068705353525368
431,4.31,-0.338302444211905,0.019064420691990103,-0.025198857855822432,0.023818095329010216,-0.008576927725668732,-0.008576927725668732
432,4.32,-0.19475818417774138,-0.44544072430400766,-0.26209567657787386,0.00867713565779563,-0.007366617735441139,-0.007366617735441139
433,4.33,0.16671038333088917,-0.0516234065147171,-0.30189166661672523,-0.0005519009391048219,-0.010064706897924531,-0.010064706897924531
434,4.34,0.17377338863011074,0.5104805384176536,-0.05683639907051606,0.011043687860099398,-0.012391458182544243,-0.012391458182544243
435,4.35,-0.05663060805618533,0.2735477918196111,0.32105057886957916,0.027380619405732654,-0.013109131649064036,-0.013109131649064036
436,4.36,-0.21385448595372133,-0.48504012174202193,0.3912925247747157,0.02482234373633089,-0.013184581352813666,-0.013184581352813666
437,4.37,-0.090891430804569,-0.5215549876256147,0.1410961171488773,-0.0009462716757462076,-0.009142759061248146,-0.009142759061248146
438,4.38,0.19643598080709465,0.44104712245534394,-0.2717379324907046,-0.015229713986443528,-0.009402949105879936,-0.009402949105879936
439,4.39,0.19107422944118652,1.0468899429596352,-0.4417790545036199,0.0009917691930480118,-0.010979211048494288,-0.010979211048494288
440,4.4,-0.24123108960001627,0.48683929046912117,0.024770126220621747,0.02776117923092113,-0.01118299326540442,-0.01118299326540442
441,4.41,-0.27890944153127356,-0.5304892171324832,0.34629220906629793,0.02669108221634127,-0.014865369052838424,-0.014865369052838424
442,4.42,0.3698007764797806,-0.689139868876187,0.40115238474376436,-0.006605028299090994,-0.011534926760819977,-0.011534926760819977
443,4.43,0.5559488307800691,-0.005849440176592696,0.08966867259956274,-0.03227550558456777,-0.00759451400232878,-0.00759451400232878
444,4.44,-0.13238823661866936,0.36707144903303673,-0.12719576006988254,-0.02516623825551849,-0.008122516094008759,-0.008122516094008759
445,4.45,-0.5503598102632168,0.03096545222196795,-0.05487792527123003,0.005955236972590216,-0.009152841810862008,-0.009152841810862008
446,4.46,0.01988238587356271,-0.4285164210224576,0.03512221087002579,0.02139316122073606,-0.011792528782070372,-0.011792528782070372
447,4.47,0.5723307084633358,-0.35948143335339056,0.1573404126186887,0.007574638252087677,-0.011093248569111005,-0.011093248569111005
448,4.48,0.15024517421398076,0.03028394771718912,0.22081875142155766,-0.0255372982402814,-0.01087430765238765,-0.01087430765238765
449,4.49,-0.5404800596171131,0.24849121855453898,0.22842867722886534,-0.04299593104519457,-0.009036524714718198,-0.009036524714718198
450,4.5,-0.2472011511919396,0.12305063708301542,0.11638574143753916,-0.03180032750153871,-0.009291692147211685,-0.009291692147211685
451,4.51,0.5298888210882845,-0.23404745905555102,0.09218023119126927,-0.013650134596159477,-0.010893787312111209,-0.010893787312111209
452,4.52,0.46945212666775316,-0.5777195129050928,0.3252563994837472,-0.008796795881681592,-0.014037867471194685,-0.014037867471194685
453,4.53,-0.0727870843953689,-0.5345697620736881,0.34096476630654204,-0.023380062935196188,-0.012322509309822862,-0.012322509309822862
454,4.54,-0.14545837772918907,0.028985487472613924,0.032451362175630605,-0.03836916209696078,-0.008364992159233635,-0.008364992159233635
455,4.55,0.08886269922854248,0.40974086829175843,-0.45298644125844123,-0.03546116508684748,-0.00693272203421713,-0.00693272203421713
456,4.56,0.03193922689678992,0.07506796066118537,-0.6000239442694298,-0.019899792306223168,-0.00845469144238366,-0.00845469144238366
457,4.57,-0.10594511437926438,-0.5267813656558019,-0.3907691534486202,-0.011168408609165287,-0.013942207718894328,-0.013942207718894328
458,4.58,-0.043848549478255255,-0.3986040505567331,-0.1343526065065413,-0.018489156572916308,-0.015836201061172055,-0.015836201061172055
459,4.59,-0.08697139385931701,0.42698903299375807,0.2011059024474411,-0.024020440826074258,-0.01658095572263944,-0.01658095572263944
460,4.6,-0.22196677144069846,0.799371116931429,0.2308961372334726,-0.016102954891287245,-0.01568824299915783,-0.01568824299915783
461,4.61,-0.06611582243689158,0.145508098286947,0.06756787213850902,-0.0056792614703281615,-0.012144536662005977,-0.012144536662005977
462,4.62,0.20958871308758437,-0.6410494838300907,-0.16391772178438171,-0.013722762497764057,-0.010455242330863259,-0.010455242330863259
463,4.63,0.02153900393374142,-0.46891185135128943,-0.1832558849064732,-0.029068958994131183,-0.013641613264478929,-0.013641613264478929
464,4.64,-0.43218341666936155,0.2056325974462717,0.1275214706466149,-0.028610140253589086,-0.012323110166925135,-0.012323110166925135
465,4.65,-0.2855393253803947,0.37037344206053674,0.15880877472023658,-0.007706626614727752,-0.009975013227937795,-0.009975013227937795
466,4.66,0.24455920471948128,-0.05957121735424202,-0.03483658910513587,0.013098414320749072,-0.007748328340238871,-0.007748328340238871
467,4.67,0.2844433071102878,-0.3508325921076102,-0.24834906105308927,0.01010093158889252,-0.005967715405918328,-0.005967715405918328
468,4.68,-0.14906601483708595,-0.09363573050262097,-0.23315905645720408,-0.011203145837932898,-0.0065393879937631,-0.0065393879937631
469,4.69,-0.3896401001316191,0.40353022090012264,-0.11104679340798446,-0.01957630721747471,-0.00443060667699954,-0.00443060667699954
470,4.7,-0.385428940230195,0.4203254373140315,-0.028256669132258355,-0.00037207724571780565,-0.004621651612824815,-0.004621651612824815
471,4.71,-0.0923974964663494,-0.06102798478142897,0.09901662921996665,0.01940254472674573,-0.0051706289093693646,-0.0051706289093693646
472,4.72,0.4748978014711266,-0.1768302877296331,0.021839521366732905,0.02145371065834553,-0.005681270092804119,-0.005681270092804119
473,4.73,0.5251441335509394,0.16412636485968587,-0.05413834326218888,0.00664457150022851,-0.006046946154579461,-0.006046946154579461
474,4.74,-0.3541459647204653,0.2925315545589081,0.13418979173385412,-0.0035618751645168064,-0.004767851002295452,-0.004767851002295452
475,4.75,-0.6842432779045098,-0.07645736339255607,0.25492696636213336,-0.008403939264718528,-0.00340690450584022,-0.00340690450584022
476,4.76,0.3499322088668945,-0.3448141590350922,-0.031887406442084085,-0.004162454882887664,-0.0026145844066156236,-0.0026145844066156236
477,4.77,0.9254194573529463,-0.19439431626154946,-0.11433994349058417,0.005995208477293925,-0.006315427483515542,-0.006315427483515542
478,4.78,0.13401064953375524,0.025545376868083627,0.1285773850302127,0.01703449413245179,-0.010318413627061191,-0.010318413627061191
479,4.79,-0.2503634911331785,0.11552005209402746,0.17416415821741343,0.023609709178912582,-0.009634420540988007,-0.009634420540988007
480,4.8,0.3192991301232301,0.1451474830991581,-0.07182059934067268,0.024237171722279436,-0.002869658941552197,-0.002869658941552197
481,4.81,0.2140483917476173,0.14288599659407156,-0.3425913674629826,0.019064445111725743,-0.002091523148830049,-0.002091523148830049
482,4.82,-0.5798650411696018,0.13525723558028452,-0.23450829722954647,0.013827557767882158,-0.005591870638388339,-0.005591870638388339
483,4.83,-0.4559702322816369,0.21049544720726868,0.04848176125408607,0.021246223244456984,-0.0063573123422812705,-0.0063573123422812705
484,4.84,0.5199402964804916,0.389264789684557,0.005224586732016284,0.03607709261757932,-0.006946261602486733,-0.006946261602486733
485,4.85,0.4407627447742392,0.42053999139430753,0.2338040882497687,0.0461264295622584,-0.008538349679681166,-0.008538349679681166
486,4.86,-0.5536469759368006,0.022561224441941863,0.37537455267661585,0.04244135331967398,-0.006828493918881025,-0.006828493918881025
487,4.87,-0.44674990026503414,-0.36029055576848446,0.17716960983612431,0.025309147990875608,-0.005660357938792843,-0.005660357938792843
488,4.88,0.598962528178809,-0.11302522260254602,-0.21320436944985016,0.011431044201747205,-0.0060563346668813575,-0.0060563346668813575
489,4.89,0.505243143198588,0.38449346281719987,-0.28319549360448026,0.019067722056183085,-0.007022014749757275,-0.007022014749757275
490,4.9,-0.5627396122014205,0.20403945008992852,0.11523099135241668,0.0416266417513915,-0.007340586451077345,-0.007340586451077345
491,4.91,-0.5690041452910859,-0.4871039453183023,0.18939600974130788,0.049248756980961386,-0.008954725331649217,-0.008954725331649217
492,4.92,0.4160092878597138,-0.6335648332727977,-0.1834984691794485,0.03263953450434828,-0.00588628591611751,-0.00588628591611751
493,4.93,0.4751856088260009,-0.05659854705343362,-0.23819524631007694,0.009316451408303669,-0.005338218616428825,-0.005338218616428825
494,4.94,-0.4185241676564716,0.37444889654248953,0.004128369716105959,0.0051577357873629475,-0.008554449390143767,-0.008554449390143767
495,4.95,-0.3694506488710965,0.11604956778287381,0.2451899295612074,0.02371168394502264,-0.010485735363010423,-0.010485735363010423
496,4.96,0.41588333132467087,-0.4299223779685352,0.12768134274030216,0.03532695707401246,-0.00725117569722851,-0.00725117569722851
497,4.97,0.2196136704859306,-0.4812055783174305,-0.060467782659650554,0.023624755001951717,-0.0012063106443599215,-0.0012063106443599215
498,4.98,-0.6121123604645923,0.003818190325326376,0.0008951596820069851,0.006090119712148172,-0.0014332651892922314,-0.0014332651892922314
499,4.99,-0.36068436912982604,0.3012983457156585,-0.18443843533611465,-0.0019153452297253266,-0.003685254151850232,-0.003685254151850232
500,5.0,0.5789580291249927,-0.11889709166787507,-0.27031755760958154,0.003436909428120175,-0.004537562257333189,-0.004537562257333189
501,5.01,0.42788235470333885,-0.5693223055653196,0.041122743570227674,0.006966030366323996,-0.003125679468581389,-0.003125679468581389
502,5.02,-0.4946013333196277,-0.3523008392442373,0.5422296824995942,0.004346176563424349,-0.0015672505385893145,-0.0015672505385893145
503,5.03,-0.27701274231062606,0.24549017174619114,0.3887507869273911,0.0004062772583438281,0.0007469540573218407,0.0007469540573218407
504,5.04,0.573799412294014,0.46597090397786634,-0.17482797591251542,0.002414814734136573,0.002734570727244333,0.002734570727244333
505,5.05,0.32994055727356275,0.2714593458624562,-0.5977724662616066,0.005522295198971325,0.004926770692068136,0.004926770692068136
506,5.06,-0.6217341021340983,0.16827175399265842,-0.21784302622338472,-0.001149646949564283,0.0042413060921985685,0.0042413060921985685
507,5.07,-0.3356189698282296,0.17202598678098371,0.11399843084957678,-0.010458711016228677,0.0013336785782316926,0.0013336785782316926
508,5.08,0.6477449151831565,0.014089791153480052,0.2648353575772233,-0.01667390803892366,0.0009607470852694826,0.0009607470852694826
509,5.09,0.48173934268276186,-0.18419242844939984,0.190123266751282,-0.01716888073224859,0.005118374536581207,0.005118374536581207
510,5.1,-0.5218356731895907,-0.08900109792159865,0.11318360559244661,-0.01282903095668554,0.008677631649619898,0.008677631649619898
511,5.11,-0.660157475200026,0.14042368059300073,-0.02868124702533635,-0.00616204753235854,0.006734733880411668,0.006734733880411668
512,5.12,0.2377313208135476,0.15353698425981127,-0.19515873291997982,-0.003015611383615249,0.0059283295295242565,0.0059283295295242565
513,5.13,0.5790373136641845,-0.03684423899881925,-0.011466038688001681,-0.011166338107643869,0.004541098044438365,0.004541098044438365
514,5.14,-0.03574784741032677,-0.005279368404253179,0.27127252880159747,-0.021184716025270837,0.0033653658400012096,0.0033653658400012096
515,5.15,-0.335117296590385,0.2560043087447742,0.30346333667062053,-0.02018964541597503,0.004093350155805856,0.004093350155805856
516,5.16,-0.0524932677492115,0.1398778232223471,0.2276625422909544,-0.010859465834331441,0.005274312159786295,0.005274312159786295
517,5.17,-0.1434008802281564,-0.37284700255530867,0.13961963834866747,-0.007541359969854644,0.0036023094824292907,0.0036023094824292907
518,5.18,0.05703864333556481,-0.5251168129917521,-0.017253886072592567,-0.01961537462899692,0.0006385442330689247,0.0006385442330689247
519,5.19,0.8036234088516419,0.05255391329860726,-0.09216280880919793,-0.03179139541719645,-0.0022972481484642353,-0.0022972481484642353
520,5.2,0.28507084876245237,0.31092828285351887,0.20769702862392442,-0.0292959003560352,-0.0016691855173568493,-0.0016691855173568493
521,5.21,-0.8164723445726052,-0.5006266105703046,0.3979063536258745,-0.0215327795567522,0.0023742803972489892,0.0023742803972489892
522,5.22,-0.3158136162525479,-1.1959686029592693,-0.1300017971628116,-0.02511690160849031,0.006782974223551801,0.006782974223551801
523,5.23,0.8433565879066138,-0.6097706751428588,-1.0051077344948869,-0.02896630110043313,0.01275561363734182,0.01275561363734182
524,5.24,0.02810398423870672,0.5439648614869066,-1.0143677715807733,-0.018037775520853304,0.008092956030884162,0.008092956030884162
525,5.25,-1.3150398108393677,0.8754676716575793,-0.22757547545999096,0.007961456884153712,0.0007300075226083437,0.0007300075226083437
526,5.26,-0.4792147837593545,0.08834148129021013,0.2790401677269561,0.01824587084297433,0.004160414453868296,0.004160414453868296
527,5.27,1.0270715259983318,-0.6032963040360579,0.21649740973993345,-0.0018329098808993786,0.008722489124812374,0.008722489124812374
528,5.28,0.5466732879531055,-0.43009429396859483,-0.03167311941511522,-0.034342682728535884,0.009791956944099916,0.009791956944099916
529,5.29,-0.6763329353797459,0.3664878013294266,-0.04629408261224535,-0.03639853279781869,0.00954465410337688,0.00954465410337688
530,5.3,-0.33386515811650785,0.6649825199883792,-0.27561162910023285,0.0006871913048557762,0.013776265583082772,0.013776265583082772
531,5.31,0.6834224081561721,0.06640279496271839,-0.36147289167755725,0.03278944619211953,0.0174692535126251,0.0174692535126251
532,5.32,0.1273250577787836,-0.34952283368011755,0.10684980344352846,0.029771799544545764,0.017107407699684985,0.017107407699684985
533,5.33,-1.4738916081961455,0.27999115192158197,0.580975725361462,0.0023151658058845684,0.018928138017085292,0.018928138017085292
534,5.34,-0.861355286206482,1.0033622324760643,0.11771879267975956,-0.013340979250333031,0.01910819292197539,0.01910819292197539
535,5.35,1.1822467198897546,0.5436838557125294,-0.6644994778408688,-0.009653808499831542,0.016244095586900778,0.016244095586900778
536,5.36,1.4570684252136687,-0.5528466180116498,-0.6398093898042172,-0.0026760730605801496,0.012394552405888234,0.012394552405888234
537,5.37,-0.22089114337199844,-0.7181605585382361,0.627403815034358,-0.002654365511795209,0.0031094294082408807,0.0031094294082408807
538,5.38,-0.829357198640704,0.09108123052753392,1.1518681910218758,-0.004004975761311536,0.004350137609505402,0.004350137609505402
539,5.39,0.5806454516880991,0.5257099506129693,0.3935705973407693,-0.0009572979366925224,0.013565115210857528,0.013565115210857528
540,5.4,1.0573762220049816,0.16263831183491462,-0.3954096244227392,0.005186676528599918,0.015359748896879154,0.015359748896879154
541,5.41,-0.19085454085888018,-0.15708752474287072,-0.6553981703161684,0.002915522466979676,0.008580828807621172,0.008580828807621172
542,5.42,-0.6866476025386847,0.1624683208036834,0.2089904526276068,-0.005005502781886456,-0.0011373347377943988,-0.0011373347377943988
543,5.43,0.5068714615428422,0.6166553802450662,0.4245053405585974,-0.002316231456949547,-0.0024714997927517872,-0.0024714997927517872
544,5.44,0.9487248057436124,0.4940584113655489,0.4329724904028794,0.009453762843946004,0.002327339821838248,0.002327339821838248
545,5.45,-0.41091780610590656,-0.12583241447159302,0.19410716399370814,0.008224780823544966,0.008590703497931458,0.008590703497931458
546,5.46,-1.2531129284471936,-0.3685104966310988,-0.47513165495156146,-0.007057977927334314,0.0100030021193895,0.0100030021193895
547,5.47,-0.2864763498109128,0.03148540575214853,-0.6486005006545799,-0.017418190879568918,0.004275788643900868,0.004275788643900868
548,5.48,0.4801723712702126,0.34669173153065574,-0.28588117862063356,-0.004716074915110046,-0.00259342921233061,-0.00259342921233061
549,5.49,0.15100758615141668,0.1309646487113326,0.49993436033873373,0.014315537155261916,-0.0048592522213000856,-0.0048592522213000856
550,5.5,-0.20959613684319534,0.03557798207311297,0.8392325790621514,0.025386933423521267,-0.0014993107038195484,-0.0014993107038195484
551,5.51,-0.09824747004582154,0.2286047490769371,-0.03688581097324706,0.022102030833361427,0.009276663903877741,0.009276663903877741
552,5.52,-0.17237710270849194,0.283032161258846,-0.807002543757321,0.008716829199759111,0.014694619581568627,0.014694619581568627
553,5.53,-0.5161140158011793,-0.07342652800886276,-0.9284847322918338,-0.0032028594759102424,0.008908061382305998,0.008908061382305998
554,5.54,-0.19720580966183543,-0.6133785853217062,-0.3348163574280819,-0.005005751293644275,-0.0018962330033034504,-0.0018962330033034504
555,5.55,0.622756743917142,-0.5578394810585466,0.689441845932784,0.003376805275323516,-0.007077612958683407,-0.007077612958683407
556,5.56,0.4390288233253956,0.021590107677221193,1.06517720652215,0.02350784310283172,-0.0005901362708962826,-0.0005901362708962826
557,5.57,-0.30049733068314355,0.35077073426832367,0.5055018253783334,0.03971113024861704,0.011367862121063358,0.011367862121063358
558,5.58,-0.2596447029884083,0.03979429429503828,-0.43056538861499416,0.03491962580048059,0.017625241138024574,0.017625241138024574
559,5.59,0.08289445749163032,-0.4744355663272231,-0.9583852695164703,0.008965989983476145,0.011779719078839231,0.011779719078839231
560,5.6,-0.02694489625139629,-0.7844496844038671,-0.2751126889683992,-0.023910080699297277,0.005832353002467668,0.005832353002467668
561,5.61,-0.10261057825610109,-0.8667527702602379,0.5844480748619469,-0.035860518974076584,0.0034374810333528483,0.0034374810333528483
562,5.62,0.09474034737111692,-0.7321317840267269,0.684533129970879,-0.02275857239261362,0.01019242586159512,0.01019242586159512
563,5.63,-0.052606350394347176,-0.4132583965695801,0.395817340130414,0.0064076403514928965,0.01812000454398716,0.01812000454398716
564,5.64,-0.12191376117262388,-0.03447736459159917,-0.27282419343833947,0.029378048952774957,0.01909017433781813,0.01909017433781813
565,5.65,0.1689428049143072,0.04535454409592346,-0.40473582423433135,0.023490043970302545,0.016842073080654038,0.016842073080654038
566,5.66,0.2985334422531155,-0.11096064294079135,0.05376998607290184,-0.007579157165244166,0.0106074185958791,0.0106074185958791
567,5.67,0.030947304334883463,0.03727840883146254,0.7117592214170423,-0.033631346454891416,0.003369229241925684,0.003369229241925684
568,5.68,0.08952986243799313,0.44712523501788365,0.8657107470041938,-0.02060855295596799,0.010643399364678162,0.010643399364678162
569,5.69,0.2869479560169926,0.4835813602210045,0.34393654580670224,0.01421365268882511,0.01709829330987806,0.01709829330987806
570,5.7,0.16198142252239991,0.04042487252048754,-0.6535653307671669,0.035091574151191934,0.018838248239050663,0.018838248239050663
571,5.71,-0.09402603147615426,-0.1143637936366175,-1.1433938473578478,0.023550647748283277,0.016532776829834585,0.016532776829834585
572,5.72,-0.48868372936379334,0.48483294549799205,-0.6941077043203706,-6.663627659893313e-06,0.00528316324472969,0.00528316324472969
573,5.73,-0.5121319060609903,0.9422094116207403,0.334525334704189,-0.016877262310761473,-0.007451100119717105,-0.007451100119717105
574,5.74,0.030459140593887657,0.21572377053665165,1.8138150058522098,-0.021635758421105985,-0.016134958746023345,-0.016134958746023345
575,5.75,1.0751466535949905,-0.9402045832672296,1.795262908888318,-0.022652501268311625,-0.01785458369461941,-0.01785458369461941
576,5.76,1.1394308695401987,-0.7704697295443674,0.7486924952025744,-0.02625155256122412,-0.004877153650899463,-0.004877153650899463
577,5.77,-0.17492138457383455,0.4475149879104705,-1.0986249956505525,-0.01764255770431039,0.006993282969668167,0.006993282969668167
578,5.78,-1.3364652849098508,1.0067759247288346,-2.127193322246437,0.0019774350836940496,0.006243360588208681,0.006243360588208681
579,5.79,-0.8990432576928542,0.08129684282476102,-1.8454008386861356,0.007116478859768456,-0.0063254730427044934,-0.0063254730427044934
580,5.8,0.5991184250770936,-1.017405854791341,-0.8497151963843942,-0.025207758287895617,-0.019279897661352588,-0.019279897661352588
581,5.81,0.9035571070207762,-0.7093785448082733,0.14044837992659331,-0.06400525612356392,-0.01819057995607334,-0.01819057995607334
582,5.82,-0.22666729586641765,0.4408790217326161,0.28734867979966267,-0.060504197299541436,-0.011472957644195984,-0.011472957644195984
583,5.83,-1.0515207737298367,0.776133290130698,-0.21708247669688185,-0.021747086171655217,-0.007587773359299119,-0.007587773359299119
584,5.84,-0.44913403237299276,0.16217978670436503,-1.0408986138064893,0.011288975289937612,-0.008562452111953053,-0.008562452111953053
585,5.85,0.5693721100112995,-0.276107279038354,-0.8828154019183305,0.011349571230370286,-0.01572891697951989,-0.01572891697951989
586,5.86,0.20762697537100955,0.03680398440352088,0.30643765960761926,-0.017192380763812583,-0.02605943702770239,-0.02605943702770239
587,5.87,-0.5428256498874255,0.36865339057452634,0.9426395465630356,-0.04272785395789889,-0.025390208647789243,-0.025390208647789243
588,5.88,-0.29772492421506175,0.2628435003398525,1.1128810963127869,-0.04382043589068728,-0.020518744966467682,-0.020518744966467682
589,5.89,0.553716078796259,0.2510793417459075,-0.25181505935844983,-0.01852880555456796,-0.015509265585474838,-0.015509265585474838
590,5.9,0.6177967909140011,0.5404444504865257,-0.9293940044477215,0.01050941045320065,-0.009055146736176007,-0.009055146736176007
591,5.91,-0.4006480937557912,0.6104602247129833,-0.5517438743317096,0.018088753093636813,-0.014345544615836543,-0.014345544615836543
592,5.92,-0.9109821860526985,0.04058350786024437,0.10554074437634742,0.0005930208568239692,-0.02144728625389954,-0.02144728625389954
593,5.93,-0.22882243897324733,-0.5284604508634598,0.8507328095437312,-0.03567281150569186,-0.020508428716069418,-0.020508428716069418
594,5.94,0.7469201096935418,-0.43438563967997773,0.5600362722925056,-0.05739617636815185,-0.017467463322500636,-0.017467463322500636
595,5.95,0.8603297366737744,0.2606533433582754,0.10518218199758661,-0.037308401011853516,-0.01105418904552824,-0.01105418904552824
596,5.96,-0.04234600995986265,0.5935209267764623,0.12605764015151924,0.0042747684155503285,-0.009241133073611,-0.009241133073611
597,5.97,-0.6832551062414011,0.07960342993101407,0.051258229247246156,0.02320448471900524,-0.00882536001423387,-0.00882536001423387
598,5.98,0.07975166947453802,-0.4606347372879882,0.3227375637739002,0.010504990901121992,-0.00719615613214643,-0.00719615613214643
599,5.99,0.8220186528235023,-0.36641352685122325,0.10458255907964448,-0.021750990955356136,-0.009663209649570969,-0.009663209649570969
600,6.0,0.24675921060395944,-0.07162114290979281,0.41488332764163016,-0.04508968117715492,-0.00738563929253707,-0.00738563929253707
601,6.01,-0.469495224804519,0.0847457058601857,0.7506419394262276,-0.03290642699327487,-0.0043507331562970646,-0.0043507331562970646
602,6.02,-0.2880086716553768,-0.2102077118836002,0.3847679189376107,0.005246335335121425,0.0026065073677279385,0.0026065073677279385
603,6.03,0.44143709078543325,-0.45369991358345213,0.026515275365540103,0.03297081130465187,0.007443751790271705,0.007443751790271705
604,6.04,0.366656553634245,-0.3351787782869068,-0.02216052847775335,0.024687973944602985,0.0036945401378821264,0.0036945401378821264
605,6.05,-0.21116785484620657,0.13291086355789514,0.14135796932189396,0.0009522931191333073,0.0017768205633711725,0.0017768205633711725
606,6.06,-0.35216413698357296,0.28263802303239477,0.5544001834050459,-0.01593829139104385,0.0067447313974778895,0.0067447313974778895
607,6.07,0.09229612730628986,0.14213930125382934,0.11543571935083881,-0.012254387260800394,0.011785709087808365,0.011785709087808365
608,6.08,0.3198534359329291,-0.10495219381938287,-0.1519542885654661,0.006657504513373018,0.01525661027907457,0.01525661027907457
609,6.09,0.03981767317608434,-0.17658374744946612,-0.09386071662665794,0.027120191757876333,0.010350990175197396,0.010350990175197396
610,6.1,-0.19938269892561297,-0.26144686171003517,0.20146748780801815,0.029846141564820117,0.008679871749991122,0.008679871749991122
611,6.11,0.1462859420083292,-0.2642731252816041,0.4570115556611963,0.011692815622922409,0.013989882426462891,0.013989882426462891
612,6.12,0.13001312157020736,-0.17169619828784283,0.4043996629780082,-0.0010344510151457699,0.01667506097268964,0.01667506097268964
613,6.13,-0.15512167833876622,-0.15685926805440636,-0.12002524419768762,-0.006613367716648192,0.01966409975461752,0.01966409975461752
614,6.14,-0.11050335111634232,-0.15724174407010072,-0.2942849098249303,0.007801275101589455,0.020138349893695083,0.020138349893695083
615,6.15,-0.01446193449317272,-0.121915393658706,-0.39064504642615916,0.023643015390494255,0.01798427427906048,0.01798427427906048
616,6.16,-0.1802136745029412,-0.06664137126830579,-0.16976276055324108,0.02450088376285001,0.022653844188261774,0.022653844188261774
617,6.17,-0.16202680729171812,-0.09044182045492499,-0.062314561697926235,0.0063660494449270895,0.022804146910692803,0.022804146910692803
618,6.18,0.03416301626473367,0.09064141113277255,-0.2777405229229328,-0.01160440091043472,0.024436419664310573,0.024436419664310573
619,6.19,-0.1728993747251961,0.20204813309506153,-0.5903653831520124,-0.013334861265168484,0.02666497692998824,0.02666497692998824
620,6.2,-0.3551767476367784,-0.30207479589941166,-0.78808119089939,-0.006313761922587699,0.027638057942383627,0.027638057942383627
621,6.21,-0.02195746206653413,-0.8060934730520488,-0.7163404233034496,-0.0007349132714841479,0.02481916822610164,0.02481916822610164
622,6.22,0.1338579101889516,-0.3101390600329272,-0.3391631243550508,0.0006561423385560628,0.01891896446177248,0.01891896446177248
623,6.23,0.0947500288311622,0.8405962987954214,0.2198656957337769,0.006161826528589981,0.0168993331218823,0.0168993331218823
624,6.24,-0.19088309462827438,1.1738270741462191,0.5159093769571059,0.0168248403207387,0.01664388972126274,0.01664388972126274
625,6.25,-0.2241313934611972,0.3863370538057167,-0.035677587804979594,0.017147417964966317,0.0203959614596138,0.0203959614596138
626,6.26,0.06571592005629379,-0.18131707208496445,-0.3574811909695887,-0.0004739668558099135,0.01833722714082496,0.01833722714082496
627,6.27,0.34414337838898756,0.31721579659998606,-0.751558763568421,-0.01849916866305017,0.011221732714815174,0.011221732714815174
628,6.28,-0.013540039116636475,0.7850476145221919,-0.32132980162020774,-0.015966668954415685,0.008015217325430674,0.008015217325430674
629,6.29,-0.46356595045352017,0.29278674481740535,0.35532262433758965,-0.0002676226560682088,0.002400630413338809,0.002400630413338809
630,6.3,0.08786203648635249,-0.5158116255891578,0.17814243921573758,0.005246778956520969,0.0024271831230966013,0.0024271831230966013
631,6.31,0.6948728615572461,-0.4128031290313114,0.07079103292691902,-0.008159960948235062,0.007908740717073297,0.007908740717073297
632,6.32,0.13679359871395178,0.2012224003210323,-0.5080596768510902,-0.02265011646307046,0.00742346272065257,0.00742346272065257
633,6.33,-0.8456465216228979,0.30161941367508815,-0.4542942277723234,-0.021484397975348558,0.008895258494955408,0.008895258494955408
634,6.34,-0.5036860240260822,0.02753161349613259,-0.2957300631845058,-0.006373879833971707,0.0006650049294735888,0.0006650049294735888
635,6.35,0.7000137273061247,0.10925888831987463,-0.30109246554998076,-0.002375331742465449,-0.003131369620471356,-0.003131369620471356
636,6.36,0.44654640371853865,0.14429119372440974,0.0967647597402819,-0.007915925068042678,-0.002398375336242324,-0.002398375336242324
637,6.37,-0.45802907469630133,0.036386121082932724,-0.0625802883896476,-0.0210833353091706,-0.0034700150152348237,-0.0034700150152348237
638,6.38,-0.6238310442415649,-0.03771642038844997,0.14681145144920166,-0.02555549158656805,-0.006687004576061569,-0.006687004576061569
639,6.39,0.2618331086069441,-0.2896860540910384,0.1825059487049545,-0.02136063089962795,-0.010442997659620416,-0.010442997659620416
640,6.4,0.8907579817657905,-0.7627610389497118,0.49812058518400204,-0.01934972654358716,-0.014090432987429027,-0.014090432987429027
641,6.41,0.32115946894670744,-0.8569122576470292,0.7801318561599149,-0.01769867649963194,-0.01183805229227411,-0.01183805229227411
642,6.42,-0.5013731117210476,0.023239794725160745,0.620110886876888,-0.016214558120541154,-0.011654584460397608,-0.011654584460397608
643,6.43,-0.4827628217147318,0.8579014351187497,0.41957882746838693,-0.0014077211975731738,-0.01143676989375565,-0.01143676989375565
644,6.44,0.5673964065230119,0.3486445845437468,-0.1561250385760652,0.013721456824537306,-0.012952900655778359,-0.012952900655778359
645,6.45,0.8183816398348573,-0.5785903300880546,-0.0966069832579684,0.0034110260272059035,-0.01183425412925787,-0.01183425412925787
646,6.46,-0.20646942874815188,-0.7729788149307577,0.3376091065429296,-0.02429748381838609,-0.015539758302507232,-0.015539758302507232
647,6.47,-0.8484876569354658,-0.16657917933458694,0.6129533846783187,-0.039428613311626025,-0.01817272297633197,-0.01817272297633197
648,6.48,-0.0992940138133162,0.35758569323546396,0.6858035504176696,-0.01744109991939071,-0.01427245651492526,-0.01427245651492526
649,6.49,0.8796049368607781,0.013046016705820646,0.03748968565427821,0.017811030585122758,-0.012674154752860108,-0.012674154752860108
650,6.5,0.614573496272256,-0.48835844699703046,-0.05815865840367879,0.023666718229364232,-0.013304444095988686,-0.013304444095988686
651,6.51,-0.4382835667781834,-0.3498468468995919,0.16675951743596235,0.0021423910902589466,-0.016799707786170924,-0.016799707786170924
652,6.52,-0.7612523572462662,0.5712788618798628,0.36890145064242796,-0.014977017442754141,-0.02007261808617091,-0.02007261808617091
653,6.53,0.03451975892190923,1.0042031096817259,0.18712825864994626,-0.00435567201764263,-0.019805372980986037,-0.019805372980986037
654,6.54,0.7576468179551762,0.1835367498288894,-0.1007133497373498,0.012536494674944276,-0.021033163478413084,-0.021033163478413084
655,6.55,0.35498007931183484,-0.9094160235149591,0.23069179784112798,0.013318256932158191,-0.02751340846803486,-0.02751340846803486
656,6.56,-0.19915984556607635,-0.6978569199743003,0.4115083009369418,-0.0033222582882106635,-0.02830563189479258,-0.02830563189479258
657,6.57,-0.028733211809948783,0.554239402862222,0.3176579862424992,-0.010472831700165938,-0.021856433758760164,-0.021856433758760164
658,6.58,0.27560148707941545,0.9954936288723272,-0.3773250584841016,0.0036721593410660672,-0.02163452862430563,-0.02163452862430563
659,6.59,-0.22668894079244797,-0.03414975555109223,-0.7483886232203792,0.019059794077032392,-0.022128321787091527,-0.022128321787091527
660,6.6,-0.664775283497199,-0.714866810863787,-0.24999151202856265,0.0076591996874949,-0.027969921619959145,-0.027969921619959145
661,6.61,-0.13005621086345504,-0.17188355125421217,0.17936624159763437,-0.016607767836034817,-0.03173530238836576,-0.03173530238836576
662,6.62,0.7812141661680914,0.4134298304935386,0.18223169207194376,-0.021580752011521875,-0.027402905615957717,-0.027402905615957717
663,6.63,0.5052091061535603,0.1419143607305945,-0.15032563815300973,-0.008531360587459033,-0.02011017596500236,-0.02011017596500236
664,6.64,-0.7776305841842626,-0.09968888873118609,-0.6380317810166948,0.012792636323507548,-0.013580516882240393,-0.013580516882240393
665,6.65,-1.2165612159928074,0.20948103150954522,-0.8231946595517693,0.026261343770425456,-0.012351062491685421,-0.012351062491685421
666,6.66,-0.4258060432227969,0.5110386820267975,-0.7288638084396089,0.023417909958790627,-0.014263787775769844,-0.014263787775769844
667,6.67,0.2588721704487734,0.43860566822738656,-0.2807931851627215,0.010257787380473532,-0.017887792021442767,-0.017887792021442767
668,6.68,0.17956858989829705,0.4499984436942032,0.18794523754137216,-0.0049313502905076155,-0.018076919906318097,-0.018076919906318097
669,6.69,0.034081889621545625,0.5730002691942475,0.3445102099669679,-0.009743124944154977,-0.012993607883280238,-0.012993607883280238
670,6.7,-0.031721055078024044,0.013780281058981159,0.08643285386852481,-0.01161911070274095,-0.006158327811043196,-0.006158327811043196
671,6.71,-0.14390115996745645,-1.2392251814539041,-0.41958299157707263,-0.030812378807459927,0.0033302073381767158,0.0033302073381767158
672,6.72,0.017381755967996203,-1.7131563211253829,-0.8640740718547766,-0.060839333785448035,0.007244455361046555,0.007244455361046555
673,6.73,0.08145571102923801,-0.64458465252819,-0.7868592399921683,-0.06719489012111146,0.006815691000081175,0.006815691000081175
674,6.74,-0.5274625307330121,0.33291126718892305,-0.1452976506503172,-0.03869396304938818,0.004329216857723243,0.004329216857723243
675,6.75,-0.4635321251718829,0.16231001177428067,0.4073305009879459,-0.003663359327796052,0.0005018057169526129,0.0005018057169526129
676,6.76,0.9617673345110788,0.35332403051917477,0.06904961850606424,0.01150763002440231,0.006273677842847185,0.006273677842847185
677,6.77,1.0376668315204887,1.1153316571185676,-0.19511469851204835,-0.001139166033413675,0.014650790404998813,0.014650790404998813
678,6.78,-0.7394973203383879,1.3374670571460028,-0.10380677438970888,-0.020940377404412448,0.01498460806131929,0.01498460806131929
679,6.79,-1.2160953564112251,0.39888829378956553,0.24648013736052118,-0.036135274387214984,0.010295860236778687,0.010295860236778687
680,6.8,0.619137222860947,-0.6694381780027487,0.1203820942354238,-0.04171507372153761,0.00898351270285697,0.00898351270285697
681,6.81,1.4592092284530347,-0.7343119491375949,0.40932104185053947,-0.03904664867973131,0.008263567242539122,0.008263567242539122
682,6.82,0.30810250998971833,-0.00804629620274,0.43818271633344824,-0.019174061557537432,0.008791150622221083,0.008791150622221083
683,6.83,-0.593293266562656,0.6093644305761848,0.5042335716859396,0.012197922681763968,0.014893613401264124,0.014893613401264124
684,6.84,-0.12846919878803756,0.7239423139879605,0.1542522258474943,0.02651788093201544,0.020030360896739173,0.020030360896739173
685,6.85,0.31853836340717845,0.1522032008393177,-0.3440579240098612,0.007977448374397726,0.02182460143658758,0.02182460143658758
686,6.86,0.06567688352280071,-0.25098530306360317,-0.02845957232897464,-0.02655547965253364,0.02013021463259107,0.02013021463259107
687,6.87,-0.4872297717543878,-0.39666986818573347,0.19975989807103411,-0.04850063895364905,0.014305769509374563,0.014305769509374563
688,6.88,-0.28443833844901023,-0.4217978436752936,0.15097496188400397,-0.04367775500960002,0.013949718193141121,0.013949718193141121
689,6.89,0.4939949434311616,-0.579253954929555,-0.003338683216916799,-0.018037565939679517,0.020461418276592102,0.020461418276592102
690,6.9,0.29492195471811417,-0.70249399745532,-0.16998528955799708,0.007498924656345683,0.021062769752367674,0.021062769752367674
691,6.91,-0.5917580253826854,-0.49169817629435714,0.0915580633419272,0.0064536673190860785,0.018798425513697488,0.018798425513697488
692,6.92,-0.49525772222333536,0.15013189509014568,0.08721404179259643,-0.008599219614408177,0.01674969246050222,0.01674969246050222
693,6.93,0.04059782427767772,0.04750659822010431,-0.05782212184455554,-0.02073902945352579,0.015458283583241644,0.015458283583241644
694,6.94,0.04723842167223391,-0.9808152639690532,0.044925210158510476,-0.031368765372855226,0.012119468183861785,0.012119468183861785
695,6.95,-0.00413948062986038,-1.4617850622153803,0.4683899925241303,-0.03484000912022081,0.000216850431184374,0.000216850431184374
696,6.96,0.5987090361052768,-0.6269655842766325,0.42739611793807464,-0.018080270115534258,-0.002326879156920747,-0.002326879156920747
697,6.97,0.6744120571033887,0.6024366742611759,0.5498630877887194,0.011448123331104102,0.00026395959945429867,0.00026395959945429867
698,6.98,-0.2173971736978778,0.890352136074541,0.14872527621578077,0.0320522811980165,-0.000815565297857309,-0.000815565297857309
699,6.99,-0.4538291265204655,0.4553525105791995,-0.10858278097222002,0.02316353668553076,-0.0025785415758774162,-0.0025785415758774162
700,7.0,0.24292288243522747,0.13622082253215484,-0.01463827618345085,-0.013058580710985462,-0.013854813764653121,-0.013854813764653121
701,7.01,0.26899659188459973,0.17956815150668304,0.06996438242725112,-0.05469319517079782,-0.021325182313668457,-0.021325182313668457
702,7.02,-0.3408109333123762,0.18355393923398464,0.27134590881400955,-0.05900439732738968,-0.020449050110675063,-0.020449050110675063
703,7.03,-0.40471262000502733,-0.12955345843316324,0.3621859069106639,-0.02984090717101798,-0.025595750307188483,-0.025595750307188483
704,7.04,0.1952855933911906,-0.6062393887116517,-0.003146578088171481,-0.0078034171202355455,-0.032338104667912225,-0.032338104667912225
705,7.05,0.6009346426490596,-0.7239304029660215,-0.18770898564880695,-0.010785925377067108,-0.032928583269406314,-0.032928583269406314
706,7.06,-0.09802726033849052,-0.1302370728384593,0.0649393034834806,-0.02127665023957585,-0.034289066992599995,-0.034289066992599995
707,7.07,-0.5809425741657475,0.5375869146201103,-0.00570096565942893,-0.02892649247175285,-0.037872058602069464,-0.037872058602069464
708,7.08,0.07516788180223956,1.0069306623731171,-0.3718026296099822,-0.02592456789360247,-0.0384315634570049,-0.0384315634570049
709,7.09,0.44927020890521835,1.1592481080483532,-0.9080915543113307,-0.004468919794532851,-0.03663796338592624,-0.03663796338592624
710,7.1,-0.4493111568507451,1.3330624726081752,-0.6285830372579689,0.021992214520000487,-0.03631863639442367,-0.03631863639442367
711,7.11,-0.6003698953675687,1.0527988251327112,-0.46528831838081114,0.02601715273733951,-0.0407595814991181,-0.0407595814991181
712,7.12,0.6346783741417746,0.5269974086840818,-0.16144517368106262,0.004803852960403466,-0.03941756934238319,-0.03941756934238319
713,7.13,0.49369366041960727,-0.1374586861085536,0.13351674750469103,-0.02548171078061206,-0.034030877504389136,-0.034030877504389136
714,7.14,-0.8268714237049674,-0.5365798069698018,-0.03487573190537583,-0.05001426908450249,-0.028882915232174414,-0.028882915232174414
715,7.15,-0.7940785279405125,-0.03803341886154604,-0.5024063968319888,-0.04543067566808915,-0.027108034209469032,-0.027108034209469032
716,7.16,0.034591421985012416,0.4727541879385332,-0.7550608146667004,-0.008610927461014689,-0.028601491928223807,-0.028601491928223807
717,7.17,0.12173463935123464,0.3711785728287669,-0.10292521692541556,0.023327553371069967,-0.03537568030951947,-0.03537568030951947
718,7.18,-0.14253894624850313,-0.5559602357245019,0.9160116309570682,0.01948638108947724,-0.04165753841935737,-0.04165753841935737
719,7.19,0.9830510131076922,-0.7710699593070685,0.7820488672686081,-0.010715446222792788,-0.03829229970103151,-0.03829229970103151
720,7.2,1.2425687342553626,0.12051271151541959,0.7094906922315041,-0.030398304384346424,-0.027623417493140685,-0.027623417493140685
721,7.21,-0.21603731167978946,0.6039090151852105,-0.22972448356547087,-0.018835634842982733,-0.017216081913262463,-0.017216081913262463
722,7.22,-1.4628758230529855,-0.434458610605727,-0.28732185982574115,0.006992768067215389,-0.011685453220783999,-0.011685453220783999
723,7.23,-0.08691616569868205,-1.307795639444636,-0.5781567840089938,0.011085577610739413,-0.02021354704915728,-0.02021354704915728
724,7.24,1.4502747764777038,-0.8086419779334677,-0.16792083929019958,-0.003284869397611216,-0.029066773504830393,-0.029066773504830393
725,7.25,0.6733538139790649,0.20576371237092572,1.1021228411913069,-0.014355611512374562,-0.02968618112346944,-0.02968618112346944
726,7.26,-0.668392314235246,0.2846013624534934,1.305909867788972,-0.00554491233789748,-0.01785870228251913,-0.01785870228251913
727,7.27,-0.471357849362121,-0.5661269930963246,0.16808482011290593,0.0003437510077914557,0.0017356326924558836,0.0017356326924558836
728,7.28,0.44127984230780215,-0.8733182171567844,-1.322200801943419,-0.010116879934647613,0.012457625096596136,0.012457625096596136
729,7.29,-0.21540613940809078,-0.08171976236664508,-1.4186467976933934,-0.022599625918474156,0.007775403904540108,0.007775403904540108
730,7.3,-1.1246567337799798,0.5228111913794893,-0.19259851019963603,-0.013992675494159088,-7.503431613449778e-05,-7.503431613449778e-05
731,7.31,-0.0971404449812827,-0.33796225024238236,0.655194584176482,-0.008540084731705644,0.0032442833118740554,0.0032442833118740554
732,7.32,0.6230574857897719,-1.253150431804403,1.2033137630812256,-0.01952947951753891,0.010266434201026738,0.010266434201026738
733,7.33,0.24811086048306447,-0.6105369840646879,0.44004556599631545,-0.033505006452734215,0.017473223502926856,0.017473223502926856
734,7.34,-0.33465775750223065,1.065676861619954,-0.0795298217350533,-0.016645760517266968,0.023342884907473202,0.023342884907473202
735,7.35,-0.10895258238705041,1.0042285601372627,-0.7901792576946314,0.018868930238952804,0.025190464518456197,0.025190464518456197
736,7.36,0.11965852445224195,-0.6607999394312551,-0.4813729291816538,0.02388649264861661,0.020661738036965124,0.020661738036965124
737,7.37,-0.27008990444766356,-1.3562990490703533,0.24970307841419637,-0.010073076862475357,0.016010128413127066,0.016010128413127066
738,7.38,-0.041493772713630125,0.15804039836071127,0.4369676415463251,-0.036543911465175466,0.020227339681393654,0.020227339681393654
739,7.39,0.19256146828416174,2.1230311190874547,0.4323986521650947,-0.007335062262587545,0.019007216342815325,0.019007216342815325
740,7.4,0.0820088283023425,1.9159152740466305,-0.42113414733312593,0.045550583706123735,0.022846012755431702,0.022846012755431702
741,7.41,-0.43070385052864846,0.05796452563913024,-0.3725862543879434,0.05855081461080702,0.02304346296872914,0.02304346296872914
742,7.42,-0.05058834084963135,-1.1168181835295325,-0.7278885446989718,0.016491279074978892,0.0144399261117081,0.0144399261117081
743,7.43,0.4785112513472343,-0.0981368422797269,-0.2650814418500444,-0.040359809716974435,0.0047632995974794725,0.0047632995974794725
744,7.44,-0.29277830388288684,1.016460436818433,1.2155125819723902,-0.04125417984367973,-0.0025915984301044803,-0.0025915984301044803
745,7.45,-0.5447473995621239,0.0284575789610592,1.1206358140871562,-0.009811373444255114,-0.0062733738969128925,-0.0062733738969128925
746,7.46,1.018442325516905,-1.6387261967861046,0.818302581004249,0.013502834936919528,0.002008337566272784,0.002008337566272784
747,7.47,1.2435416578007494,-1.6098678949411707,-0.2739366752159236,0.01495376770974447,0.0060939703088219105,0.0060939703088219105
748,7.48,-0.9898086368940968,0.2627921373953649,-0.7268381099056569,0.001130005161236073,0.005413694458620717,0.005413694458620717
749,7.49,-1.29006322803362,2.083836805063577,-1.2461274281602197,0.00905195218872189,0.008137221515931629,0.008137221515931629
750,7.5,0.49941224973075193,1.8294770937126434,-1.8694184299327534,0.03778963373850997,0.0072454214608723986,0.0072454214608723986
751,7.51,0.1290370119915688,-0.41434473508357694,-0.814207449274753,0.03776876123726205,0.0032238603138371683,0.0032238603138371683
752,7.52,-1.6867452342962357,-2.2670302393192463,0.5437151117954026,-0.018074338977675238,-0.013755305061887357,-0.013755305061887357
753,7.53,-0.5749436660832465,-1.3533907646784864,0.951339524421949,-0.045460923556317936,-0.010387408642486771,-0.010387408642486771
754,7.54,2.1095632883986157,0.9211278541201366,0.14192437400512636,-0.006721290445527044,-0.0036325890154756133,-0.0036325890154756133
755,7.55,1.1919561960549745,1.7375927680846501,-0.5510466728512592,0.053449316204260695,-0.0029567091958865475,-0.0029567091958865475
756,7.56,-1.8521362445401421,0.721327180121686,-0.3812188250193194,0.07521276298370957,0.002279670954984743,0.002279670954984743
757,7.57,-1.7175837210283746,-0.5141053990258956,-0.11438659287099268,0.06788541156140053,0.0017142719056685671,0.0017142719056685671
758,7.58,1.0763804053366057,-1.0134992813241364,-0.4348415812547516,0.02426069677143941,-0.006230811697159474,-0.006230811697159474
759,7.59,1.8663738663294955,-0.7878306658606867,-0.14932908245952137,-0.03964400784795147,-0.01279711141735021,-0.01279711141735021
760,7.6,0.09626539641755233,0.20361729433853332,0.6519670435860775,-0.040486448018133885,-0.015454973227214815,-0.015454973227214815
761,7.61,-0.9934849526357689,0.744510970542512,1.5450966647150541,0.00380064324359522,-0.014971933660371587,-0.014971933660371587
762,7.62,0.3052679351940627,0.10428034349168047,0.734060489197086,0.050544031919283965,-0.009512351933046205,-0.009512351933046205
763,7.63,1.677774445025314,-0.7863402217038016,0.08979571878470416,0.052223129732893385,-0.0010343077718223091,-0.0010343077718223091
764,7.64,0.48593562847312216,-0.7654058965558732,-0.36580185409562715,0.021240510855128982,-0.0037448737534469577,-0.0037448737534469577
765,7.65,-1.2067458762627297,-0.13467275664862038,0.4563684352554197,-0.025272102007908824,-0.01192276900726167,-0.01192276900726167
766,7.66,-0.5703314006396434,0.05898810531999682,0.8425020537874827,-0.03750992738202855,-0.016022152346239202,-0.016022152346239202
767,7.67,1.745997258117072,0.38658519589723206,-0.03503275794197136,-0.007885390449962929,-0.002955048117153061,-0.002955048117153061
768,7.68,1.2114465144313726,0.9783237904644829,-0.16525243162739833,0.02891696672284633,0.01486439042617797,0.01486439042617797
769,7.69,-1.8535441041048983,1.1125856540316488,-0.24112393348831027,0.042227492647946716,0.012216438458668924,0.012216438458668924
770,7.7,-2.443300958235193,-0.021956244972364064,0.011964410341581383,0.03982141050073775,0.006971928922884373,0.006971928922884373
771,7.71,1.2271155803836462,-0.6069169695976097,-0.10798776937989818,0.0108509304273896,0.0014873278521731574,0.0014873278521731574
772,7.72,2.9482409518905786,0.16208647640961205,-0.1184154231118705,-0.03164713022760898,-0.0035396872666815064,-0.0035396872666815064
773,7.73,-0.3622072635292775,0.7326357979768143,1.284125109257864,-0.03644146987522772,0.00421476823864041,0.00421476823864041
774,7.74,-2.6299397272100733,-0.11512577011419406,1.2206674598357037,0.00197762393133856,0.0060116576293791045,0.0060116576293791045
775,7.75,0.4010545936607918,-0.5368545511410636,-0.2465047373967097,0.035518092846292,0.017111989431672144,0.017111989431672144
776,7.76,2.407947213666673,-0.08763491986779834,-1.3311546617997805,0.03047660081233562,0.02354024726897956,0.02354024726897956
777,7.77,-0.8211450110092489,-0.032765875183259324,-0.4832391447632491,-0.005640770623110585,0.010677532846929063,0.010677532846929063
778,7.78,-2.5645505112891787,-0.37580510710388804,0.41339368000814825,-0.036617911464315984,-0.003386952597040624,-0.003386952597040624
779,7.79,0.9001639300878981,-0.18507779612632685,0.40396285814026756,-0.029061013602485038,-0.00255459397388647,-0.00255459397388647
780,7.8,2.5078199538282253,0.17350803538831058,0.8541561159067201,0.0010278474909789156,0.001920172307776641,0.001920172307776641
781,7.81,-0.7406342983566047,-0.23674000298085401,0.9136215083549809,0.02488921198965948,0.007633300242517855,0.007633300242517855
782,7.82,-2.1941354371990465,-1.0868618309222164,0.16916655966385474,0.020395981690843,0.02026332284769535,0.02026332284769535
783,7.83,0.33698680507089573,-0.754977550004152,-1.5048334403823203,-0.005215884908341077,0.017948989178249025,0.017948989178249025
784,7.84,1.0872260236716738,1.4323790927284394,-2.0547486804630193,-0.01967268563935633,0.004995637045475914,0.004995637045475914
785,7.85,-0.820298169603308,2.8257734046471166,-0.08740040753330869,0.020949432602635317,-0.003777332816082642,-0.003777332816082642
786,7.86,-1.5637881168840373,0.41369812804292105,1.3294348829342806,0.06439416843796801,-0.005907231962395228,-0.005907231962395228
787,7.87,0.511457478901158,-3.373772651769627,0.9366247462911559,0.026038499766140418,0.002815796405305857,0.002815796405305857
788,7.88,1.5600949580481982,-2.782451062765282,-0.9395838069168789,-0.06129283353302115,0.011982433712628778,0.011982433712628778
789,7.89,-0.24889928076839085,1.6790251473193354,-2.2408971323640436,-0.06454517649189992,0.01899776957602722,0.01899776957602722
790,7.9,-2.426602237247186,3.8754246816181195,-1.1935286324390089,0.01826566418062895,0.008366453472664322,0.008366453472664322
791,7.91,-1.0148052387745383,1.1567696255726427,-0.645899425807188,0.08235508842854819,-0.008208839985353553,-0.008208839985353553
792,7.92,1.62692439958105,-3.3673443069522024,0.2964084078096967,0.06913308618765324,-0.010021749984993715,-0.010021749984993715
793,7.93,0.9074113435694848,-4.453265915461344,0.9568337191145274,-0.028499655017449808,-0.004838585084643386,-0.004838585084643386
794,7.94,-1.2545651843705588,-0.416100560339715,-0.045963799831532814,-0.09555430240517324,-0.007079501459689596,-0.007079501459689596
795,7.95,-0.27947048939088204,4.464423350376704,-1.2671005529119888,-0.052593688056968325,0.0027660111355261893,0.0027660111355261893
796,7.96,0.7282614740336298,3.9403219998530346,-1.2667336094687849,0.060070893301063126,0.0015908133605613249,0.0015908133605613249
797,7.97,-0.4914102443786371,-1.3921294834602937,0.11017850987779626,0.11154539041377187,-0.016342400394833187,-0.016342400394833187
798,7.98,-0.5705634681766839,-5.049490911993095,1.7680026311577866,0.06048554282898816,-0.02456412548317497,-0.02456412548317497
799,7.99,1.6261902861476842,-2.0900376992982426,0.4995377536314498,-0.04767748719442546,-0.010450864397463558,-0.010450864397463558
800,8.0,0.9622122284414435,3.185470206282741,-0.19843343994030638,-0.07363999993733987,0.006813951891785838,0.006813951891785838
801,8.01,-1.8748167991539173,4.187498620069427,-1.0306682046974975,-0.010271924117146496,0.0007359801102212286,0.0007359801102212286
802,8.02,-1.3218890994654053,0.5411625383170735,-1.3448053203090566,0.06298936653394792,-0.004862097684586965,-0.004862097684586965
803,8.03,1.9224956379445626,-3.227872724474163,-0.5476918088241917,0.05626242325322266,-0.003779603904644636,-0.003779603904644636
804,8.04,1.4149486037638526,-3.2368929296513373,1.1631159300869616,-0.015137163194099502,-0.021586526060236103,-0.021586526060236103
805,8.05,-1.3631632791880772,0.14460694926512718,2.649389669519956,-0.06607746033298717,-0.028482346276115227,-0.028482346276115227
806,8.06,0.0450295156852113,3.680607949867841,1.3537436939077367,-0.033862239327002566,-0.002680219775484504,-0.002680219775484504
807,8.07,2.2513320086807,3.228465921200015,-1.2334622240805233,0.04939497259741436,0.022311898337388805,0.022311898337388805
808,8.08,-0.739102669233637,-0.6891391034732544,-1.612790152788982,0.06532513697272663,0.017410621855329114,0.017410621855329114
809,8.09,-3.443428413886825,-3.5771301146527175,-0.2828195305199517,0.01733463421911305,-0.011309709899322258,-0.011309709899322258
810,8.1,0.1254252225534791,-2.729230485153658,1.4409693660364489,-0.05442315081828933,-0.020898774541583044,-0.020898774541583044
811,8.11,4.714492349919257,1.2770045033162747,1.69528329822533,-0.07386972830414908,-0.025275521824624003,-0.025275521824624003
812,8.12,2.5538003853779596,3.886483788515405,1.3741709467861212,-0.026579404369388455,-0.005171388513261238,-0.005171388513261238
813,8.13,-3.1923252008932272,2.5444754061819292,1.4185556057545121,0.06217658329710823,0.01943608721740782,0.01943608721740782
814,8.14,-3.1639221659707286,-0.9035870550720291,-0.4426975595564685,0.09482949921035114,0.024173331945866777,0.024173331945866777
815,8.15,1.9022160095222072,-2.762679627653748,-1.9285054922314435,0.04210276129306965,0.020863478633688957,0.020863478633688957
816,8.16,3.183474665526724,-2.4274883821240647,-1.2934240841852194,-0.0651714351081208,-0.00013173225051426107,-0.00013173225051426107
817,8.17,-1.1909053884041507,-0.44308268447372545,1.2700519481585082,-0.12281595843060256,-0.014376270280975363,-0.014376270280975363
818,8.18,-2.8913232984835826,2.244179633791288,2.783094529438828,-0.07629040710566806,-0.014405899275203853,-0.014405899275203853
819,8.19,1.2552485817995496,2.7617579285250584,1.5792227509686907,0.04117107650258662,0.0013286034413050145,0.0013286034413050145
820,8.2,3.2558240423862417,0.15389839427603924,-0.4120147256355817,0.10705447879570623,0.02309834349140137,0.02309834349140137
821,8.21,-0.5748283159683276,-3.0892910055756477,-1.3336728462284477,0.04626651851547808,0.02380870973028374,0.02380870973028374
822,8.22,-2.9929512759431396,-2.557375500080671,-1.4666495034217892,-0.05854574461491874,0.013121706105829035,0.013121706105829035
823,8.23,-0.9377123072000475,1.5414045394185432,-0.505782686845612,-0.07250159251329268,-0.009967225800986114,-0.009967225800986114
824,8.24,1.3707556675163552,3.760282414766635,0.5559852113347964,-0.014042494827119084,-0.017441626893642852,-0.017441626893642852
825,8.25,1.5527869369617582,0.6178136680415361,0.9592314050836726,0.03510919148670175,-0.005541429955120686,-0.005541429955120686
826,8.26,-0.07944482225687921,-3.6625651728926663,0.8257844171414472,0.020636404118934932,0.007901523362290988,0.007901523362290988
827,8.27,-1.330673310920122,-2.967477353665955,-0.6243947755486506,-0.032164388380312575,0.006544898265521795,0.006544898265521795
828,8.28,-0.501655908564583,2.159369584019714,-1.3926928112034318,-0.04720325087549579,0.0002184300830602782,0.0002184300830602782
829,8.29,0.908946407532934,4.6789100732543725,-1.6125961754217624,0.01604832141597596,-0.004708457357628355,-0.004708457357628355
830,8.3,0.1366278685484112,0.5223478142100306,-0.04433256449638079,0.07263552227148719,-0.00491630921458739,-0.00491630921458739
831,8.31,-1.5109841533550592,-4.540577657667913,0.6100192220256924,0.02052804317885074,-0.019072270960122973,-0.019072270960122973
832,8.32,-0.5856984462165863,-3.0778237249292846,-0.35215893137525733,-0.08841579308053955,-0.010616625440330095,-0.010616625440330095
833,8.33,0.44464062954351813,2.9008109033617324,-0.9607108664078752,-0.09383712311704576,0.0012550935359510096,0.0012550935359510096
834,8.34,-1.1053451162381394,3.8464582467189934,-0.2765378439119385,0.0010469660997845381,-0.01933069442589268,-0.01933069442589268
835,8.35,-0.7961111412420552,-1.1692665702847715,0.23424701154962996,0.08015556527175996,-0.031167052907375693,-0.031167052907375693
836,8.36,1.8232583787547627,-5.362253208895039,1.0477881431866263,0.04947647675514853,-0.023302901426658917,-0.023302901426658917
837,8.37,2.014735394997889,-2.7750023611636045,-0.14529544497121516,-0.055350357646153536,-0.01697477468796668,-0.01697477468796668
838,8.38,-1.736721462280065,3.8160987160026876,-1.463919283701483,-0.08305811733076468,0.0010572053364354855,0.0010572053364354855
839,8.39,-3.9040301774747466,5.918408709391462,-1.7728550294258336,0.01753636791954237,0.005420945528894305,0.005420945528894305
840,8.4,-0.6459119273792586,2.0630739820680417,-1.8411914148909414,0.1227891204953558,-0.01498795414825339,-0.01498795414825339
841,8.41,3.2672855494158455,-4.016933228477688,0.0955259868437125,0.11439300673445435,-0.03918174833300715,-0.03918174833300715
842,8.42,2.6564541251184215,-5.702841472402775,2.0946636749120904,-0.035916252360872425,-0.05134482240949058,-0.05134482240949058
843,8.43,-1.420334683853978,-0.9327226865299305,3.0068284604630446,-0.14007104716404084,-0.02972629646943468,-0.02972629646943468
844,8.44,-2.580354823984798,4.263912388563813,1.052925915424681,-0.09031629755203546,-0.0032581326061087413,-0.0032581326061087413
845,8.45,0.49756534009799147,3.8339636740583236,-3.091014222496858,0.04007458479448226,0.006489941328912957,0.006489941328912957
846,8.46,2.018989529868981,-0.3238024600643692,-3.6361868104233745,0.10978234553520144,-0.0022701539085273428,-0.0022701539085273428
847,8.47,-0.5414197480673613,-3.701054330122833,-0.4350061002217511,0.09841133042745298,-0.03368330770617933,-0.03368330770617933
848,8.48,-1.6687736669029147,-2.9688011009199125,2.5138430983700246,0.002228327110001288,-0.051811076451641874,-0.051811076451641874
849,8.49,1.203905296128029,1.1396308188443105,3.3011236066708207,-0.07339740386485782,-0.032620714726598936,-0.032620714726598936
850,8.5,2.5734227219141035,4.042709594070811,0.9739045493936158,-0.047098917029474295,0.0009178632312202943,0.0009178632312202943
851,8.51,-0.3022283163346075,2.584237243884537,-1.5332032749557682,0.052032572707470484,0.01882696133433769,0.01882696133433769
852,8.52,-2.5083972271900654,-1.7184569670479637,-2.01106962124252,0.07923507447917827,0.015184501263043488,0.015184501263043488
853,8.53,-0.37966318446002195,-4.5585087092394385,-1.406704451675272,0.016523392525811455,-0.00553453940518777,-0.00553453940518777
854,8.54,2.489844735295189,-2.31050006785493,0.30777690677623326,-0.07694804427801008,-0.019742333615587738,-0.019742333615587738
855,8.55,1.2610197195688178,3.0749805572245634,1.9164374437659366,-0.09154796607304956,-0.011283439914826478,-0.011283439914826478
856,8.56,-2.015324430577991,5.03188603572376,2.838808305618986,0.007605669725696984,0.002656313561119575,0.002656313561119575
857,8.57,-1.1382924253204185,0.7757792648521271,0.6494344404038571,0.09145481001254292,0.020872820697181882,0.020872820697181882
858,8.58,2.1395815056294367,-4.346629837292781,-1.8645730201288044,0.05346813366921086,0.031081925703606555,0.031081925703606555
859,8.59,1.3323772676442165,-4.6406031157052805,-0.7372886726526321,-0.06620674866220068,0.0113967144307314,0.0113967144307314
860,8.6,-1.2132685915686303,0.5418539156099527,1.2394865709394347,-0.1043978667352277,-0.011326630544329664,-0.011326630544329664
861,8.61,-0.32935146555558215,5.712028171720471,2.2249888013519326,-0.042046038028004565,0.0007728251528931994,0.0007728251528931994
862,8.62,1.7408124168343875,4.279836010731758,0.9941243884376963,0.061664343447622574,0.04066325560852903,0.04066325560852903
863,8.63,-0.08967107854270245,-1.786442893444815,-1.1579893031630937,0.08391036436520402,0.04900321889612491,0.04900321889612491
864,8.64,-2.4851662117550974,-4.1486322946217555,-1.1708970726938788,0.030328527387360967,0.03724263556314912,0.03724263556314912
865,8.65,-0.467244904094886,-0.6003149392673552,-0.8885811558671215,-0.043925678275422465,0.0194712540577292,0.0194712540577292
866,8.66,2.552092125954261,3.3027712164668586,0.5038904418938438,-0.060269678426445365,0.013264054412737926,0.013264054412737926
867,8.67,1.3243572716990668,2.4758711575798777,1.1981400623907228,-0.015567229324758227,0.017897565363021367,0.017897565363021367
868,8.68,-2.308407290855042,-1.247900929435155,2.4198421213964707,0.037051700659545335,0.03351872729567749,0.03351872729567749
869,8.69,-1.8304835899010754,-3.0522057445223996,0.8698862374118528,0.03979307111880569,0.04097570397543274,0.04097570397543274
870,8.7,1.776621913256991,-1.8669020338872704,-1.7883737928239254,-0.020868230184194973,0.04749867613414835,0.04749867613414835
871,8.71,2.4068996639723577,0.039710470168843326,-2.416639580476003,-0.07215609116134743,0.05365924737285941,0.05365924737285941
872,8.72,-1.6345331080508085,1.135400658610532,-0.6911755782989428,-0.06475900598492468,0.03759089220282115,0.03759089220282115
873,8.73,-4.029230221177882,1.3312899975249657,0.799388890033278,-0.004239232828943215,0.03492109639385905,0.03492109639385905
874,8.74,-0.23932991820822047,0.6560043777254728,0.01076061550776719,0.041171314328199496,0.045252326799095265,0.045252326799095265
875,8.75,3.39469540206604,-1.2443569651675968,-1.0976313898583883,0.028516220972604738,0.04334433263911162,0.04334433263911162
876,8.76,0.8886181834888656,-2.7005903162285847,-0.996179074872001,-0.04370253084150332,0.03579805516670191,0.03579805516670191
877,8.77,-2.5714603336812263,-1.662525549733551,1.1964589386641526,-0.09291277224776004,0.01924229884405275,0.01924229884405275
878,8.78,-0.47881157980538847,1.39314936092011,0.7825815077241348,-0.05720273318631811,0.02118194610482121,0.02118194610482121
879,8.79,2.3411243629678933,2.538726851580485,-0.5707652335309932,0.01903794029028091,0.03999268633162163,0.03999268633162163
880,8.8,0.5487415655794452,1.4116979940143533,-1.6844807606614094,0.05843394912212078,0.04651579486440941,0.04651579486440941
881,8.81,-2.918653877177201,-0.6827714311085646,-1.2446583669611333,0.04921903025619312,0.032254109248149636,0.032254109248149636
882,8.82,-1.7737351264579881,-1.340557519456244,-0.05880981411888497,0.005722853296027501,0.012485103168687605,0.012485103168687605
883,8.83,1.797057533523481,-1.1987700978069116,1.0355085464456733,-0.048535789670626515,0.002266107402271673,0.002266107402271673
884,8.84,2.770804161868571,-0.3266251363661864,0.40559615637146645,-0.06570443166015233,0.007646886283727836,0.007646886283727836
885,8.85,-0.28320591032890785,0.4588096877011777,-0.030316417934451056,-0.04648475930881872,0.021354200148857857,0.021354200148857857
886,8.86,-2.545005512906439,1.0424964100781624,-1.2433916122339155,0.009630794544084408,0.022467446780723075,0.022467446780723075
887,8.87,-1.6023443055365658,1.6782675089607957,-1.4028528232309057,0.07197904510309754,0.007887915684424372,0.007887915684424372
888,8.88,1.18438245978502,-0.02790845811762699,-0.9339759840493937,0.0812293901484667,-0.005323716069342866,-0.005323716069342866
889,8.89,2.271531958994788,-2.21566474060692,0.7145757446431905,0.0011890424708394245,-0.018020995857366245,-0.018020995857366245
890,8.9,-0.6562002095328663,-2.3683884999670495,2.2479714162220583,-0.10778079642700937,-0.027791126394127667,-0.027791126394127667
891,8.91,-1.6984126147238665,0.6771362588353079,1.2712839550465431,-0.11046987863083256,-0.014727408054786532,-0.014727408054786532
892,8.92,0.10410963639691126,3.49604625923231,-0.1247682632834568,-0.01894792152984226,-0.00856490219293515,-0.00856490219293515
893,8.93,1.0458326747475999,1.199130955190556,-1.5622373690336844,0.06557770800139558,-0.014504535165044226,-0.014504535165044226
894,8.94,0.3407660364142666,-2.743868242222203,-0.6745393415349892,0.05126505378408958,-0.03536710012648439,-0.03536710012648439
