,ts,ax,ay,az,wx,wy,wz
0,0.0,0.03697138557932831,0.23277578169660298,-6.573936245042537,0.01759197415196511,-0.2717255673337839,0.0664930132591961
1,0.01,-0.008562839765962858,0.044895456736963074,-1.2935298915606142,0.021775514129615932,-0.2735090573287793,0.0614873112506759
2,0.02,-0.031443821801735945,-0.06694674902164449,1.8519562328841621,0.02530142076134919,-0.2751459531806732,0.05399013339648289
3,0.03,-0.03835630068371693,-0.12299095992621562,3.432279689053053,0.028168640991366782,-0.27663602015104594,0.04399749014362159
4,0.04,-0.030468949336793894,-0.13921624279764366,3.906344470690068,0.02803622841249017,-0.27665361494603274,0.03703016344173345
5,0.05,-0.016478280452565927,-0.12892127651016322,3.6384931054894714,0.026495465087924063,-0.2759798726946775,0.03148324620058876
6,0.06,-0.0019420131062380316,-0.1029398905598032,2.9135003770365118,0.0289663925076119,-0.27480510099377714,0.028151772057326045
7,0.07,0.011345675594001754,-0.06843968385015428,1.9485877635975823,0.033502107135566166,-0.2733724531841893,0.025960569899310663
8,0.08,0.02260393962658913,-0.03130326981032548,0.9055721926305673,0.037040724781024464,-0.27014216583799355,0.023676718321419276
9,0.09,0.030616386523689795,0.004654700099025293,-0.10002242002256811,0.04009023135636887,-0.26603007319816585,0.021347418950889343
10,0.1,0.0351018221417005,0.03671104820219989,-0.9898748567771642,0.0408564492161491,-0.26745442676838793,0.017368565222757718
11,0.11,0.036078224554528554,0.06293751492131953,-1.7154430124093356,0.04033441079608576,-0.27200250339189475,0.012459015019126432
12,0.12,0.03348234170073152,0.08221271078668568,-2.2516443508822928,0.03889577245543988,-0.27069545364222924,0.00849071977179892
13,0.13,0.028428029014541056,0.09435407920074051,-2.5919047687353665,0.036960536501330084,-0.26621620005732977,0.005032379799903332
14,0.14,0.023806987711163796,0.09962611527343479,-2.7435379772895248,0.035764326328331535,-0.2596525750062181,0.0054904866776331615
15,0.15,0.01751918123554228,0.0986013625996327,-2.72240638929049,0.034925405136291526,-0.2520812409195945,0.007842036706665355
16,0.16,0.008992220476995032,0.09210506796453,-2.5512041556977048,0.034086483944251525,-0.24450990683297105,0.010193586735697549
17,0.17,-0.0005163419623465358,0.08110644935009936,-2.2569018870150552,0.033247562752211524,-0.2369385727463475,0.012545136764729743
18,0.18,-0.01002098459010628,0.06665423864558236,-1.8681878797653126,0.03240864156017152,-0.22936723865972394,0.014896686793761937
19,0.19,-0.01840392751478325,0.04987325100489605,-1.4140867833988184,0.032376818592661366,-0.22350068895695888,0.02134852364748836
20,0.2,-0.025336141588849836,0.031750942494993786,-0.9219823667881197,0.03336391148326807,-0.21978633311435897,0.03297674070071563
21,0.21,-0.03097685827054173,0.012780057238295513,-0.4165565425143578,0.035958485037741135,-0.21393183412840544,0.04377084269198947
22,0.22,-0.03506506384664311,-0.005901640626134724,0.07932905364821241,0.04019563992565145,-0.20589046020381274,0.05371261602917663
23,0.23,-0.03613212525442429,-0.022515218032184307,0.5465247440750718,0.038599436485943335,-0.19862673065637276,0.061098337876057285
24,0.24,-0.03598832865937614,-0.03732321318471769,0.9684799484354227,0.03398878562894475,-0.19176485677296415,0.06716319404305407
25,0.25,-0.03538204813025472,-0.050376490855679246,1.332922179822397,0.0298400748440873,-0.1814599576608074,0.07415359650061999
26,0.26,-0.033862094840416995,-0.06117680115066468,1.6309435598280873,0.026202339050570445,-0.16734655633690135,0.08216779194851218
27,0.27,-0.029474795076909772,-0.06861007195751165,1.856565519985052,0.020832608968410226,-0.15419843709383288,0.09358919464941974
28,0.28,-0.02461907770238285,-0.07350981058997215,2.007505495057557,0.014656036633346357,-0.14149999044720266,0.10659783051510054
29,0.29,-0.01966188201391252,-0.07576179029227292,2.084141145138879,0.010263429220673213,-0.13107945358344686,0.1184239839455482
30,0.3,-0.014752296245896704,-0.0757653530518406,2.089295856852458,0.006899350851226129,-0.12197222526075538,0.12956838768883716
31,0.31,-0.009184339284061009,-0.07356237078838015,2.027569705310195,0.006423625856586719,-0.11348469141671345,0.14069522209714247
32,0.32,-0.0036257494003630597,-0.06939997182429457,1.9055092219337704,0.007552941038489469,-0.10534151797679964,0.15181229333423407
33,0.33,0.0025982174183210964,-0.06346673966163696,1.7303531537357029,0.010173162526402772,-0.09314041591186792,0.15698651628810242
34,0.34,0.008457518886398164,-0.05590121341458573,1.5110978469474035,0.013645933077702812,-0.07861885733360467,0.15876242392377427
35,0.35,0.013734717783033394,-0.04708379279417779,1.2567233742246895,0.01784799621946056,-0.06669652673709686,0.1578956696982353
36,0.36,0.01842260537836346,-0.03710274545181273,0.9767125304827884,0.02262517133248069,-0.056823918224573985,0.15494494191768318
37,0.37,0.023081846024674967,-0.026086527117311718,0.6805574312906245,0.024011284885655543,-0.046374071657724725,0.15368974773354396
38,0.38,0.027337701412529274,-0.014456992263409563,0.37710867348892496,0.02197909943673737,-0.03534235058631352,0.15414370588956394
39,0.39,0.030848018514397706,-0.0022115807527790937,0.07414683401823163,0.017128141613771537,-0.024805199174067042,0.1522218926474312
40,0.4,0.03347802083287183,0.009935608824310542,-0.21993932529384252,0.009441447891939313,-0.014765593767981287,0.14791001048619384
41,0.41,0.03428024058984452,0.021021152992620792,-0.49736522024019714,0.009539560918013048,-0.011712308627915065,0.14644860129865184
42,0.42,0.03394399771165487,0.030965796160632005,-0.7518518597185901,0.014131742192877913,-0.012692135818074627,0.14663273329150806
43,0.43,0.03368624371907962,0.03927610747686189,-0.9778537941792099,0.01869800731832621,-0.009436491688752529,0.14840812299537445
44,0.44,0.03273361612459693,0.046358434053338365,-1.1718575078708304,0.023249523051975685,-0.0037703572917762666,0.1510891288482812
45,0.45,0.03043162157352751,0.051847111856701544,-1.3304224354962422,0.027239499696187323,-0.0007925602077276921,0.15617793488926984
46,0.46,0.02741461968573922,0.05623904183171781,-1.452264431629207,0.03093461907565373,0.0007736240399002597,0.1625310471751214
47,0.47,0.02453740258851367,0.05958639730467224,-1.5361432682750398,0.030378710809604286,0.0045308165081631956,0.16542334028452346
48,0.48,0.02133630110534257,0.06173085337973527,-1.5820936723948158,0.026988784113210932,0.00974868112351612,0.1660084206096259
49,0.49,0.01725411801631422,0.06325270989054212,-1.5906559940542386,0.024148302196017626,0.01257569148920762,0.1669785054759445
50,0.5,0.01278056929702784,0.06315434034560385,-1.5633742121357264,0.02158797655533926,0.014183629712198434,0.16814490022233064
51,0.51,0.009022289374560772,0.06066224929105113,-1.5025879319584408,0.02280408665980271,0.02071372409862182,0.16704518783262376
52,0.52,0.00511484152258301,0.05646001962159365,-1.410627898638706,0.0264920001738924,0.030465534200223767,0.1644622325854741
53,0.53,0.001284401710912611,0.05121885960411401,-1.2900767989450825,0.02773077843039392,0.04320169532118806,0.1615962332842788
54,0.54,-0.002737971867793714,0.04499539101640403,-1.1450716235746246,0.02651453644270513,0.0589293785092184,0.15844650980716188
55,0.55,-0.006978888638396076,0.037802396477765024,-0.9796647606093416,0.025027144139170857,0.07096960100361985,0.15602397533486242
56,0.56,-0.011847686412847353,0.029894883749675735,-0.7988960727971226,0.02338111880095824,0.08085252164032843,0.1540268735169902
57,0.57,-0.017496446110177498,0.021520034080102612,-0.6076366313203787,0.02173509346274562,0.09073544227703698,0.15202977169911802
58,0.58,-0.022094970440565596,0.01311600833461022,-0.40974624402376736,0.018529434373850642,0.1024453521438322,0.14932437225884876
59,0.59,-0.02595045818800884,0.004729759067578623,-0.209535088332449,0.013749096835713669,0.11599987493103635,0.14590384274323334
60,0.6,-0.029150155509909417,-0.003488037811361467,-0.011854230613737304,0.0133871048211576,0.1269426532636675,0.13985693154260925
61,0.61,-0.03165320524526222,-0.011408501257790872,0.1798142347842177,0.01806181869235276,0.13490816587630922,0.13081606886840466
62,0.62,-0.034684503808398486,-0.020124154453083083,0.3617221480674809,0.024938238225962625,0.142310724019859,0.12814355572118324
63,0.63,-0.03753630966955473,-0.0281539545054204,0.5315556478484956,0.033006456509017686,0.14940855095264258,0.1289182749319712
64,0.64,-0.039478722875780005,-0.034910404442036254,0.6858964824071291,0.03830951323881529,0.15460551781965148,0.12976912789100206
65,0.65,-0.040357024035828505,-0.040202899780011375,0.8230181741079649,0.04234394369800827,0.1589303906083436,0.13065491019185985
66,0.66,-0.039654360352168495,-0.0441260121438894,0.9400703829149009,0.04551663349119806,0.16235716602714126,0.12753880334616674
67,0.67,-0.03773778296079853,-0.046755649284416216,1.0360662003867394,0.04822551301053072,0.16530056308918434,0.12226878016086724
68,0.68,-0.03458725831712772,-0.048425026937036764,1.1096927654931343,0.04989136501531555,0.16822788814958375,0.11804212698167922
69,0.69,-0.030537041106645374,-0.04897873702420115,1.1603102394715712,0.05104418379386375,0.17114730788558818,0.1143286754898177
70,0.7,-0.026126172614206078,-0.04868233944111325,1.1876325503562573,0.0538456062914917,0.1708635353136014,0.11178458786413904
71,0.71,-0.020981529048505598,-0.04736781183638782,1.1916335539226244,0.05741715118371324,0.1690834358183981,0.1097867523731326
72,0.72,-0.015314899753842126,-0.04519731495025908,1.1732286575214816,0.06239338333690653,0.1692425126389956,0.10149571530476666
73,0.73,-0.009075332405405747,-0.042206416659861745,1.1330244861152616,0.06805368252053587,0.17034594669888642,0.09013995925263082
74,0.74,-0.005137488884777983,-0.0384101326841258,1.0735886504475012,0.07226890391824513,0.1701486173386186,0.08397088970502857
75,0.75,-0.00018011995136509203,-0.034118164392215024,0.995280872848769,0.07581867617633033,0.1693522946873094,0.08019025634098037
76,0.76,0.006881150257194277,-0.029527125964989222,0.8997605871308775,0.07936844843441553,0.1685559720360002,0.07640962297693217
77,0.77,0.019977251946349382,-0.02711196056938059,0.7909775396432939,0.08338929578166777,0.16616783213538627,0.07184780019640492
78,0.78,0.03185626457239697,-0.02408102257405958,0.6707133847457344,0.08769302945007154,0.162823786613871,0.06681686366897792
79,0.79,0.03615607504423984,-0.018629903029156833,0.5415701375454033,0.0925218574261374,0.16119811654171828,0.0625976371139531
80,0.8,0.03608742194378854,-0.01190274344107636,0.40651630233402736,0.09788190633827903,0.16131087136090416,0.059199591297453814
81,0.81,0.033984109291787606,-0.0045492417803497075,0.26776646566994755,0.10088364208123664,0.16066190297805608,0.057871857675393074
82,0.82,0.03200577738943746,0.002585977821392014,0.12873430834628458,0.10265471949865293,0.15961543819286822,0.05762449241655405
83,0.83,0.03172709517169965,0.008674443049522057,-0.007891866203153242,0.10266443429322858,0.16003421734592765,0.056119414679197295
84,0.84,0.032088008763055356,0.013839370588620486,-0.1394951628070315,0.10084309355269944,0.16197621664037934,0.05330685978438494
85,0.85,0.0320340686100086,0.01803476236447419,-0.2641569427029512,0.09678084630900093,0.16124495643414308,0.048568502614447916
86,0.86,0.03136342369083639,0.021473629559469635,-0.37962769479367925,0.09046600947228292,0.15782649954113134,0.04189430289283656
87,0.87,0.02930889411671761,0.025947919839545867,-0.48420812693216186,0.07933101212642389,0.15576425200948218,0.0443754144108664
88,0.88,0.026640185030180466,0.029616101325796475,-0.5759745721586891,0.06591517277181988,0.15434374644434692,0.051188709149539637
89,0.89,0.023104839788367446,0.032179470130982706,-0.6539619500981694,0.05801421094957052,0.15274163040169592,0.052258859919763284
90,0.9,0.01956529231047562,0.0333233397982112,-0.7176249633555405,0.05263169647822167,0.15105657934855518,0.05070632222078236
91,0.91,0.016893538622766338,0.03281740439353753,-0.7665507145882126,0.05060907704693949,0.15142679855395114,0.05375060239497621
92,0.92,0.014230792440301687,0.0314343046203642,-0.800939235472244,0.05055465493218226,0.1530009772162191,0.059487658532301625
93,0.93,0.010625512922988942,0.03019610078871147,-0.8200454644589923,0.044456700496752,0.15322300322329005,0.060939831792237276
94,0.94,0.006835331869613709,0.028579195912677595,-0.8254818954709287,0.03556541287435765,0.15282006146561794,0.06041152328942556
95,0.95,0.0033111153369487895,0.02755620764531466,-0.8170545630599105,0.02555485820346509,0.15380246044975068,0.06125266168584027
96,0.96,-7.469418626008151e-05,0.025889958032114625,-0.7964876811389395,0.015004905719632988,0.15545248363251252,0.06275376471122422
97,0.97,-0.003362182911644123,0.02314288104147579,-0.7648990398818467,0.00445495323580088,0.15710250681527435,0.06425486773660816
98,0.98,-0.007321379516886127,0.02132506607070856,-0.7218934460581786,-0.005756443613753213,0.15406263848236804,0.06216491278811536
99,0.99,-0.010843200301300326,0.018956346660830688,-0.6689915219090197,-0.015793821329564108,0.14861214460885713,0.05822913773041567
100,1.0,-0.012576761639430827,0.0162395816779501,-0.6072666797041265,-0.025929408455395597,0.14485644237483006,0.053951228264528826
101,1.01,-0.013446067279643661,0.013258050468844809,-0.5377785633936144,-0.03616395422987058,0.1428084613290321,0.049328574250420455
102,1.02,-0.016643461169935717,0.010103916605505373,-0.46286665115217074,-0.044214500343184825,0.14190944310770096,0.0473620973078774
103,1.03,-0.019481476919123344,0.006462202416247523,-0.3825566454177971,-0.05120291106837215,0.1415691951541545,0.046687387811553384
104,1.04,-0.019716835832629724,0.0029887714350931398,-0.29793376847952235,-0.05723879319097175,0.14006465951725094,0.044842850444940185
105,1.05,-0.017662879238473563,0.0004340754721096499,-0.21081061735820325,-0.061352079851602126,0.13621011128191435,0.04063711809836214
106,1.06,-0.01822602051002919,-0.002597347960929766,-0.12320670297841309,-0.06488670055771918,0.13732281057244686,0.036371637906939966
107,1.07,-0.019254512492101777,-0.005703913045582253,-0.035579998089662127,-0.06811975303138071,0.14102416061193393,0.03207502049062639
108,1.08,-0.01948431946716232,-0.008533470948871445,0.05049068221548577,-0.06635571389411933,0.14280502902784664,0.029742735211269918
109,1.09,-0.019145675680642835,-0.010822095437803323,0.1337218263032685,-0.06213709381943176,0.14364255320456248,0.028375333626983024
110,1.1,-0.01776723829688108,-0.0124875823336564,0.2125303973715909,-0.05638622865528226,0.14832560904622322,0.029940552765681017
111,1.11,-0.016168240400566313,-0.013424558424110144,0.2855055453858635,-0.04971130032560602,0.15532782008562726,0.033274370679606514
112,1.12,-0.014680162420429096,-0.014244565685477164,0.35199636732765693,-0.04117973842582868,0.1596332548311896,0.03459352434185469
113,1.13,-0.013331878145299658,-0.014342246406227707,0.4102694563540727,-0.03153609636078132,0.16232338353314288,0.03470594114980431
114,1.14,-0.012549060394403861,-0.013750287683703588,0.4599701999779317,-0.02438259527123376,0.16276930717028915,0.033294341915730094
115,1.15,-0.01163772386580487,-0.012464630024271624,0.49971584497799554,-0.018638939072278482,0.16194462762665585,0.031019889433117714
116,1.16,-0.010199938906056513,-0.010585313562733427,0.5287597268123434,-0.012895282873323205,0.16111994808302255,0.02874543695050533
117,1.17,-0.008356549342388714,-0.00870204243897493,0.5477932211031901,-0.008169597281892949,0.1585304839391973,0.026621698654169527
118,1.18,-0.00622524333617021,-0.006965525554357935,0.5569859896669429,-0.0044741716815795704,0.15415492994849778,0.024650494031268576
119,1.19,-0.003454655960541547,-0.0057240331235180655,0.5564156812418029,0.0019928050595004122,0.1508203678642677,0.020772560105279503
120,1.2,-0.0005103857034571497,-0.00486766794166426,0.5467496902484555,0.011231332941346995,0.14852679768650706,0.014987896876202304
121,1.21,0.0002815581961676608,-0.004860993475083845,0.5281055298722784,0.021298841068493158,0.14460861405828127,0.013215430593645165
122,1.22,0.0012022514519719756,-0.004720261891984292,0.5019852447331985,0.0317472058524115,0.1399440376772732,0.013286279545712244
123,1.23,0.003491861343122126,-0.0047859504095965535,0.469008179362006,0.044109034481421165,0.13732899592039247,0.01038064043248585
124,1.24,0.006322176035584588,-0.004909840815367116,0.43024981099967413,0.05817043522661462,0.13653438672995713,0.004831232463681565
125,1.25,0.00861820999580202,-0.005987887747130166,0.3861944710840225,0.07562678055537103,0.13624698639483174,-0.001957460626356225
126,1.26,0.0105857721502787,-0.0067750594267968565,0.33837013261524546,0.09519856043311267,0.136275634557602,-0.009518368548469236
127,1.27,0.012012557068587806,-0.007342369819058852,0.28791685595422134,0.10937576247700594,0.1362367463951541,-0.016857703415099363
128,1.28,0.013217090110927896,-0.007225775300427388,0.2354467488792642,0.1207912408218652,0.13616328339188544,-0.0240836052055479
129,1.29,0.014332843115020075,-0.007503698013481531,0.18220288336152138,0.1292384228632848,0.13913702527159985,-0.030217030399159437
130,1.3,0.015166432375730857,-0.007267897563981568,0.12796814035085663,0.13630347426480582,0.1435296400683943,-0.03584176467262571
131,1.31,0.016314782145279753,-0.0072284592787164054,0.07402901443811827,0.14166996051226866,0.14648945440884284,-0.038860490503348215
132,1.32,0.016789227721762355,-0.006793794595972316,0.02014014678065542,0.14622382747550144,0.1487637953198509,-0.040632462442775776
133,1.33,0.014183062039644105,-0.004489292284524653,-0.032731321365501755,0.1491319654120348,0.14962168921052962,-0.041386317460698034
134,1.34,0.01144026598949088,-0.0025973417070606465,-0.08405472267761671,0.15122069003449554,0.14977432997125406,-0.04163324907432375
135,1.35,0.009968456940404114,-0.0021742456238167396,-0.1330822688649372,0.15330941465695627,0.14992697073197847,-0.04188018068794946
136,1.36,0.013992719824309073,-0.009023208510992708,-0.17734619516043945,0.1608406367471571,0.14746704016788478,-0.03672966504035787
137,1.37,0.01576601375347302,-0.013308670667160566,-0.2180299890259135,0.16993386261510054,0.14425729827118566,-0.03003007508227534
138,1.38,0.012428311615889576,-0.012532247011087757,-0.2551969138686541,0.17505330401339048,0.14022304938155036,-0.02460786284523064
139,1.39,0.006735345646910707,-0.009215900075213522,-0.28749241289317257,0.17616544036606266,0.1353573384289441,-0.020473803558041532
140,1.4,0.0018681655051071772,-0.0067070397740626835,-0.31361626524716574,0.17191297955460053,0.13175689509838012,-0.014946764390220468
141,1.41,-0.002062249931689842,-0.004745489513714398,-0.3333374441088596,0.16219629643990435,0.12944521648740145,-0.00800087651879247
142,1.42,-0.004666480581062946,-0.002402418849093489,-0.3464832504191335,0.15247961332520815,0.1271335378764227,-0.0010549886473644706
143,1.43,-0.006764051432614593,0.0017203091973846977,-0.35390024790658287,0.13589161153544105,0.12759249250997198,0.001879841039100518
144,1.44,-0.007981311659828072,0.0049763220502736846,-0.354932708987084,0.1161379452552892,0.1293278972243336,0.0029667482138253185
145,1.45,-0.008138519408749555,0.007821052645867558,-0.3500980014453538,0.09827661494599826,0.13043253399532487,0.008102716837616139
146,1.46,-0.0077775752438763186,0.008980421563111225,-0.33934948225489053,0.08129519591293244,0.1312438719892494,0.015121445648827931
147,1.47,-0.0071723900831869875,0.008878478106091044,-0.3228282878181644,0.06749978184937545,0.1301373050324184,0.022045452721202945
148,1.48,-0.006511961840131577,0.007717857807410963,-0.3016535688760261,0.0555380649897913,0.12792689267065438,0.028914942933333625
149,1.49,-0.005783453955272596,0.007140406120449767,-0.27640395753048785,0.0434633727544153,0.12950245027327245,0.036992199523655664
150,1.5,-0.005174018433496828,0.006173746997082235,-0.24813574558277912,0.0313250766891546,0.13320946517687585,0.0457494146157353
151,1.51,-0.004741148906934717,0.004856649742504736,-0.21720423791057802,0.01872927601975857,0.1336485386635147,0.05404777864239608
152,1.52,-0.004447472525645919,0.0037508813119157686,-0.18433834649604483,0.005582816437231825,0.13015427234859778,0.06179386313637333
153,1.53,-0.0066532720160339025,0.0041895140548089405,-0.1511043165353117,-0.0064456864816651365,0.12821371641635534,0.06679180185965827
154,1.54,-0.00943156555552549,0.005408977643181757,-0.1175139053949703,-0.01734499699156921,0.12784248604651274,0.06901397525676656
155,1.55,-0.009224014484499015,0.005150146726707893,-0.08352995571756941,-0.028244307501473286,0.1274712556766702,0.07123614865387483
156,1.56,-0.007313440060743053,0.0045125221521497925,-0.049596017275728495,-0.03914361801137737,0.12710002530682765,0.07345832205098311
157,1.57,0.012627148255183757,0.011171531452686092,-0.010001399341059734,-0.09393597242322976,0.11941374584862666,0.08312023775129193
158,1.58,0.008880024694737438,0.011195669187969484,0.019885156430700327,-0.11977249738546733,0.11651792213198126,0.09095235507910203
159,1.59,-0.003287601293876478,0.008145072627172081,0.045522235233031075,-0.12347467360252215,0.11729072823875265,0.0967982700157296
160,1.6,-0.006739930290581269,0.008689846353630723,0.07219725253850759,-0.12882065158693776,0.1172416638202321,0.09899340546168832
161,1.61,-0.005432757089830264,0.011057180666981995,0.09859633017411455,-0.13582961067939153,0.11636113956029265,0.09749516531750957
162,1.62,-0.004774503195670353,0.012161816717050912,0.1228646555534728,-0.1400364872053234,0.11728233254676967,0.10091876863559833
163,1.63,-0.004233167620872524,0.012440863238971738,0.14512940790324289,-0.14271656854940407,0.11918524293292401,0.10702417975399876
164,1.64,-0.003533972337181496,0.012545945481223845,0.16481634687889218,-0.14188350946590508,0.12085709204892335,0.11018147947135648
165,1.65,-0.002736413208890858,0.012549563754775447,0.18181315923259028,-0.13916954746962087,0.1224052330965932,0.11176038759414396
166,1.66,-0.0012383930638093237,0.012792275320590124,0.19560104882158036,-0.13657047754581686,0.12820100750750973,0.1143906100867144
167,1.67,3.666223850129968e-05,0.013040648765893888,0.2061080904774913,-0.13402574823841198,0.13600578924342038,0.1175180737696477
168,1.68,0.00045098616012946276,0.013112637584004832,0.2133757417279683,-0.1271273630017329,0.1391076503677204,0.11963624974450217
169,1.69,0.0005783234053985796,0.013128728545152088,0.21691826403014824,-0.11820365064777234,0.14002170593277302,0.1212849035987486
170,1.7,0.0012226100505526383,0.012811440509135243,0.216889228077372,-0.1074337496977904,0.1399082107720963,0.12218558263769437
171,1.71,0.0017806676249854515,0.012395959779271831,0.21301429519012438,-0.09562356361646672,0.1392157142331318,0.12266479494206488
172,1.72,0.002050217550786617,0.01114610783973653,0.20587263371074863,-0.08361374228142295,0.14093362843392845,0.1257168039367059
173,1.73,0.0020692800936208122,0.00986762893633295,0.19516373536400572,-0.07149561966806146,0.1439591802364126,0.13016454422236673
174,1.74,0.0011430444427900973,0.007227420740142649,0.1811609065922669,-0.0602340767961279,0.14252290394117578,0.13341358625150965
175,1.75,0.00033507247238332436,0.004856419683292685,0.16431509480640913,-0.04947323471109463,0.13847853323102965,0.135961947268405
176,1.76,0.0002858136648993307,0.003702384997173909,0.14511086190848535,-0.03871239262606135,0.13443416252088353,0.1385103082853003
177,1.77,0.0007250576256336971,0.002870742068074309,0.12420959653965227,-0.027951550541028068,0.1303897918107374,0.14105866930219566
178,1.78,0.0014412547152682568,0.0017753739490442115,0.10219518744875727,-0.01719070845599479,0.12634542110059127,0.143607030319091
179,1.79,0.0017870641687708594,-0.0018086786394673725,0.07920547056533728,-0.00422880777026485,0.12391434939191225,0.1460344768581128
180,1.8,0.002029184076951101,-0.006526452506545554,0.055998056368931445,0.01094739760603555,0.12310628560547145,0.14834028124938425
181,1.81,0.0028048756254311787,-0.009573426193478354,0.03353874258473188,0.02612360298233595,0.12229822181903065,0.15064608564065565
182,1.82,0.004230789537198581,-0.013390989238871946,0.011783194727044448,0.03920955076304067,0.1238686388883732,0.15073917050513153
183,1.83,0.0057159223249010176,-0.01739102890733659,-0.008965046333853503,0.050201056248258616,0.1278222985369342,0.1486151059738893
184,1.84,0.005930312782655609,-0.020554479543510733,-0.028753706577622648,0.060932445165875225,0.1283333083802851,0.14313043079273186
185,1.85,0.005673355901138315,-0.022765326217661787,-0.046926668371137056,0.07151745499927048,0.12690698708618306,0.13575459153119535
186,1.86,0.005748453542100891,-0.024704896462902762,-0.06333165844229388,0.08157788655556322,0.126728909437067,0.12594336615568344
187,1.87,0.005671784924237523,-0.026135420634388534,-0.07775896336384547,0.09135211079838276,0.12723186734696187,0.1148034061615728
188,1.88,0.005055641074140469,-0.027825863280300185,-0.08961603054744148,0.0971932202893242,0.12703299482496724,0.10923383302158783
189,1.89,0.004184766028696271,-0.02899761110941439,-0.09967711994862859,0.10124405286759476,0.12651466281651302,0.10619979103406284
190,1.9,0.002794747584064618,-0.02996355053119178,-0.10725724315599133,0.10413085182902213,0.12306607911219967,0.10167039065148056
191,1.91,0.0014883272118502984,-0.030335648734948442,-0.11355304072067955,0.10648385241073033,0.1182737510479416,0.09645525415541223
192,1.92,0.0004299742952380845,-0.030360728671398385,-0.11767593892809895,0.10442188006632634,0.11538398399681203,0.08993161908962721
193,1.93,-0.000402242161162138,-0.029829423001219754,-0.1208443321567935,0.1001912645935875,0.11342875854682248,0.08276524702881588
194,1.94,-0.0016899159005350117,-0.027449576109485768,-0.12240153395238204,0.08998721223043088,0.11012111750257647,0.07875288716960181
195,1.95,-0.0026868926452865973,-0.02494555289114232,-0.12302116780803497,0.07674280938721095,0.106125126103807,0.07634585146249091
196,1.96,-0.002928486386981836,-0.023706304829287053,-0.1225044053084682,0.0698876053978958,0.10094504140860723,0.07614100541099794
197,1.97,-0.0028062341073582316,-0.022779790149479076,-0.1204730327516652,0.06945748024000431,0.09457421387580182,0.0781507159044846
198,1.98,-0.003601753700983191,-0.021113559624413566,-0.1176901053849788,0.06827456200627141,0.08611727152697903,0.0849516198507606
199,1.99,-0.004334324805354452,-0.018556209628232193,-0.11307371913118247,0.06660527129143934,0.07631251014064705,0.09484806853813924
200,2.0,-0.005286477863223704,-0.014368236352826004,-0.10727040642379385,0.05882582014917076,0.07029441519455094,0.09658450817978197
201,2.01,-0.005511756365191101,-0.009598057999195875,-0.09884397313185453,0.048089664280107344,0.066108686958888,0.0943723219870064
202,2.02,-0.004815736034066998,-0.003985869531952541,-0.08948143726854586,0.03733921325869313,0.06334808197058207,0.090486681796916
203,2.03,-0.003638691552816017,0.0014976453706154469,-0.0773067976386963,0.026582203775697116,0.06124130814390093,0.08583327897786057
204,2.04,-0.0017093527592176993,0.007452964788746939,-0.06339291533512166,0.012751619039855002,0.06528856943716431,0.07921259387207476
205,2.05,-3.2494836294742323e-05,0.012979113219113582,-0.0475543234438697,-0.0029183943639308034,0.07301880827024106,0.07141455824174958
206,2.06,0.0018351937600909612,0.0189654439132301,-0.03026889681813576,-0.01662734683588701,0.0832813503014892,0.06663556243660193
207,2.07,0.0027288937525215464,0.023973019724586583,-0.01245493007030651,-0.02932335215379232,0.09485190335684587,0.06341599181261211
208,2.08,0.002831611057431348,0.028351837933168922,0.0058337564698331505,-0.03455642722521711,0.10251900946326978,0.061276665166134774
209,2.09,0.0018760115208802369,0.03151954749175007,0.022729021967769616,-0.036376696246881515,0.10840106507045863,0.059631335255512015
210,2.1,0.00046886055969709963,0.03408068731204106,0.03848733244383451,-0.03909359196183389,0.11207330725731772,0.05930894433395559
211,2.11,-0.001381473164014599,0.03588148376785613,0.05158556745365474,-0.042340701679373496,0.1144387915399844,0.0597688642467993
212,2.12,-0.0043381325461779655,0.037479558997648446,0.06281002503016014,-0.046134349363319435,0.11164384510436533,0.05971468063182081
213,2.13,-0.0069750461547426305,0.03844418606113323,0.0706345358452325,-0.05019975218821991,0.1062829770614058,0.059404869255815625
214,2.14,-0.009508853844718163,0.039618117171686514,0.07582975331278258,-0.0571894331151119,0.09823598713718266,0.05840507702665086
215,2.15,-0.010896684567098594,0.040137129963103424,0.07804107174361022,-0.06588112624533038,0.08862559863659995,0.05700369651101656
216,2.16,-0.010583764426739625,0.03945356103711196,0.07724193715701475,-0.07457281937554884,0.07901521013601724,0.055602315995382255
217,2.17,-0.010295000353603749,0.03863197723323153,0.07450807249883429,-0.07736694122286801,0.06734780506960991,0.05691760335937269
218,2.18,-0.009086358690319549,0.037264091939268135,0.07071244081849216,-0.07639365355515251,0.05436636352768892,0.059968317041746814
219,2.19,-0.007195923141186085,0.03471758903128734,0.06538097994564931,-0.0697873766110329,0.04310376908775805,0.06242537291178237
220,2.2,-0.004304066222298902,0.03166168790972208,0.06022105345289791,-0.06014261530353275,0.032768336015649435,0.06456220449388164
221,2.21,-0.0008374799187357467,0.027914033545143165,0.05482014879679813,-0.052399478695032815,0.027584175812021862,0.06660019225467627
222,2.22,0.002970602209058478,0.024143984784626895,0.05048615779748202,-0.0456811943019682,0.02517621714508567,0.06858490961500785
223,2.23,0.0074690643826199506,0.019886350425099085,0.04669753534419293,-0.037803905649202885,0.0296799907143593,0.07084715299617526
224,2.24,0.011367348789175703,0.015881177919923654,0.044055308898801326,-0.029344590371804945,0.03765468524887995,0.07324876388337456
225,2.25,0.014421554904291482,0.012250556653089214,0.04185470889061277,-0.022152777417853115,0.04548920836790553,0.07034788312782701
226,2.26,0.01622384010311856,0.008713946230377835,0.040109516331938135,-0.015761503131556675,0.053235200968187193,0.06409801474802215
227,2.27,0.01780336426894084,0.004819466308682657,0.03907043592747875,-0.011224158328233308,0.06642684145242801,0.055887135271031715
228,2.28,0.017885915908211814,0.0007050097491328594,0.03772303028215457,-0.00762452608827488,0.08237287604030065,0.04668438163722057
229,2.29,0.0164989838233267,-0.003810088360283948,0.03617039180016999,-0.0020607438581883982,0.09026909586413136,0.03928810610736802
230,2.3,0.013856352455688952,-0.008553788773528526,0.03344498237382181,0.0046926295348336975,0.0932899301243837,0.0329859274638565
231,2.31,0.01053166368360833,-0.013887142665920692,0.02982409530835383,0.014312563817259519,0.09415250338844924,0.02442208090636907
232,2.32,0.006750889060846545,-0.0192240966788569,0.024717493903960608,0.0257013849615813,0.09368326488643312,0.014462612621887447
233,2.33,0.00040603866526750607,-0.024584584723801282,0.018208549302305536,0.032960705378610025,0.09005384877636895,0.008007373139698945
234,2.34,-0.005009742259705704,-0.02947300634681964,0.01051373323804249,0.03824260441809143,0.08491117400098985,0.003230142066535156
235,2.35,-0.00796126673091206,-0.03366713706450196,0.0020062699064319414,0.04352450345757283,0.07976849922561075,-0.001547089006628635
236,2.36,-0.00917369342740276,-0.0373190918843858,-0.0067135003854513,0.04880640249705424,0.07462582445023165,-0.006324320079792424
237,2.37,-0.0070550871676165585,-0.04372289018849706,-0.013197743764279568,0.06273084692168057,0.06410904705965663,-0.018018880734925788
238,2.38,-0.004267832192005341,-0.04951864096137712,-0.019152243381909913,0.08331199429740721,0.0494530024574127,-0.035041340312195746
239,2.39,-0.006780384224461153,-0.04970784777743495,-0.02840473986230421,0.09283929298405047,0.038328432152892215,-0.04767313775234893
240,2.4,-0.00946398930049528,-0.047727472624390546,-0.03729004943079699,0.0966747220003113,0.0290222955914352,-0.05804408674468212
241,2.41,-0.010077168408267842,-0.04594108298685444,-0.044366616301924754,0.0997519827409199,0.021855061926093152,-0.06943915948963875
242,2.42,-0.009267992709181322,-0.044139579728509216,-0.04947030504041971,0.10206651250812912,0.016839603190343208,-0.08186451921943122
243,2.43,-0.006878400795999861,-0.04206960448805225,-0.053064536767956735,0.1081259117483816,0.017539896518865738,-0.09164638103873632
244,2.44,-0.004039480491756304,-0.03948421684390433,-0.054337664313656525,0.1159018232758989,0.020860083202792732,-0.10021655933278814
245,2.45,-0.0007862687785379014,-0.037105231008537715,-0.05373049472456468,0.12154224023664065,0.024790709517892414,-0.10923318695435827
246,2.46,0.0018873582433358354,-0.03409991525906114,-0.05137393261053274,0.12602059993158293,0.0290535145328458,-0.1184927558097416
247,2.47,0.0038176973325348713,-0.03051684789029478,-0.04740541590939073,0.13035082819723814,0.0343359830079565,-0.12394963197715922
248,2.48,0.0047698064857619625,-0.026127329145663812,-0.04260510499027922,0.13460289484407914,0.04015647739070291,-0.12740001554692432
249,2.49,0.005032477226806509,-0.021408302422215312,-0.03686833247632439,0.1385961298834059,0.04361496225649728,-0.13438513412291275
250,2.5,0.004514854783869232,-0.016047497363861095,-0.0313232526249493,0.14246962170574154,0.045980711112035784,-0.14300552647755913
251,2.51,0.003559951699536515,-0.010268045812336443,-0.025340909958427717,0.14452609746711054,0.04812533627224224,-0.14680775971539411
252,2.52,0.0021791994341750567,-0.004160459661129457,-0.020289055176748443,0.14572238866919188,0.050165280360826216,-0.14832905214840886
253,2.53,-0.0005670301135285057,0.004951049383325301,-0.016510130116062723,0.1458274831717216,0.05018392221652385,-0.15098361301344265
254,2.54,-0.003293842189533505,0.01381956758254633,-0.013597312405310896,0.14511073668174193,0.04868020881407284,-0.1544917014352706
255,2.55,-0.004716801790942981,0.01932944144259119,-0.011285901915226812,0.14439399019176227,0.04717649541162183,-0.15799978985709856
256,2.56,-0.005225374449159607,0.022717183931497697,-0.009226064662626005,0.1436772437017826,0.045672782009170826,-0.1615078782789265
257,2.57,-0.0051188268545748076,0.024880490108720253,-0.007182609558430456,0.14296049721180296,0.04416906860671982,-0.16501596670075444
258,2.58,-0.0039100018085115405,0.01704015953274681,-0.0018828461576224972,0.13877682022193066,0.03483586609332456,-0.18630266653547714
259,2.59,-0.0026755355073066903,0.011589170780546037,0.0027542348997382105,0.13276300650522427,0.021369602483166508,-0.2169744087585194
260,2.6,-0.002833515152219678,0.01998741086974148,0.0026712572965342154,0.1303048373530984,0.013603676783558552,-0.2393484838505508
261,2.61,-0.003498277245455406,0.03423832175143863,0.0008076182219287987,0.1314280059017081,0.011579279714047016,-0.25336493275562666
262,2.62,-0.002795817850925199,0.043431858868232545,0.0002648717709928085,0.13169767392814474,0.011661122945289577,-0.2616254330528629
263,2.63,-0.0016092959517463145,0.04884610946952728,0.0014520289679582129,0.13139834160646605,0.013147126377034872,-0.2660486342782061
264,2.64,-0.000607227036440296,0.051510569458052845,0.00463529019867776,0.1310990092847873,0.014633129808780166,-0.2704718355035493
265,2.65,0.0005444314666052825,0.05213937700385173,0.008209449208122856,0.1292934035573284,0.017271904152533206,-0.27509249763793514
266,2.66,0.0015306490542395892,0.05110614266496586,0.012255992104462852,0.1263081343494511,0.02081349052295137,-0.2798678046212003
267,2.67,0.002546722562273863,0.049174781039045073,0.017219287573955185,0.119105851409121,0.02527342647890396,-0.2805913939849702
268,2.68,0.003147736921155646,0.04613341476272209,0.022195781299633528,0.10925471809760846,0.030310209178749714,-0.2787699611123329
269,2.69,0.0032549479795459576,0.04251903598519193,0.02687321326486073,0.10244034804694097,0.0352395472184238,-0.27628809579480995
270,2.7,0.0029276258454526255,0.03796549128868733,0.030576210862284806,0.09730468563736176,0.0401094903838415,-0.2734411467034062
271,2.71,0.0025786564795488784,0.032481837379705406,0.033421653895873114,0.09301548254556748,0.04352961071220656,-0.2724953480073061
272,2.72,0.0022053270739323992,0.026494326875872908,0.0351086250801553,0.08959538421743328,0.04546112088805667,-0.2735015614519861
273,2.73,0.0004492280543645249,0.021697262844205804,0.03548906150916409,0.08731440705532137,0.045129445933685716,-0.2718897943432572
274,2.74,-0.001049897133943471,0.016434200849975083,0.0343364874926554,0.08558289628429107,0.04370610118777321,-0.2690152183521101
275,2.75,-0.00155115040143572,0.010105997130637387,0.031735586884973105,0.08385138551326078,0.042282756441860685,-0.2661406423609631
276,2.76,-0.0011805088496059028,0.0022120583121870326,0.029389793984784942,0.08093011585615552,0.03659932229906632,-0.2664134220305605
277,2.77,-0.00034151642519453414,-0.005651876116259163,0.026595328121311594,0.07692024643695414,0.027018012411671892,-0.2695659537773385
278,2.78,-0.00028846815934198324,-0.01024757769295993,0.0214653845636971,0.07320907955578745,0.01899846563522857,-0.2752782703474322
279,2.79,-0.0004253014355270158,-0.013057009104690712,0.015328157455400577,0.06979865331947731,0.012551338190039866,-0.2835678376617713
280,2.8,0.00039165927325148864,-0.016126414559560234,0.009364629987752473,0.06723678579536398,0.007449566139669251,-0.2896129896338104
281,2.81,0.0016871176890203864,-0.01922560978025889,0.003941183194474492,0.0655282422549961,0.0037007046287326328,-0.2934011222463844
282,2.82,0.003076236144935375,-0.022306703889918067,-0.0008451162665044244,0.06581388481578995,0.002345965349781493,-0.2966293152189988
283,2.83,0.0043463552448629785,-0.025141619935112047,-0.004824292940304455,0.06813644315769771,0.003436647465255785,-0.2992855706535666
284,2.84,0.005748279708776162,-0.027728874220809243,-0.008287703510301597,0.07010847176060044,0.006087919677706727,-0.29881632389330226
285,2.85,0.006724427194440495,-0.029849410150880773,-0.010563070680306128,0.07191410083100691,0.009480017656588551,-0.296863373908563
286,2.86,0.007579436594551254,-0.03171320019012549,-0.011966906711928849,0.07404281554143254,0.01531342980037336,-0.2929297022322025
287,2.87,0.00779100636714635,-0.03291043432757818,-0.012499226176445475,0.0763807986075865,0.02272812485439604,-0.2877130816400794
288,2.88,0.007376145834479119,-0.03276430020554193,-0.012220511135536943,0.07755623785458926,0.02629818936962516,-0.28734677890753624
289,2.89,0.006238190703564574,-0.03195457043588308,-0.011518706807305532,0.07805183768912484,0.027619967563436185,-0.2898168744161736
290,2.9,0.00481735797429571,-0.03153382798496593,-0.010226078929660851,0.08286254006249116,0.03134692915595101,-0.2859950327628569
291,2.91,0.0029471527959703423,-0.030715225730027426,-0.009117420023393823,0.09007007416181248,0.03640985433794653,-0.2786783229177003
292,2.92,0.0003824868856517321,-0.029376680336576123,-0.008059261339080626,0.09680271865184363,0.036660258827431735,-0.2734707562971833
293,2.93,-0.002206956058280463,-0.02739054725412452,-0.007648251371216878,0.10329050493472026,0.034429275715231585,-0.269350686683369
294,2.94,-0.00503705581273083,-0.024295414109090165,-0.007768649369013577,0.1081892987454429,0.03368902922969462,-0.2664948535802677
295,2.95,-0.007267465133027634,-0.02095577086261624,-0.008478066337434644,0.11219544755814306,0.033786230760104466,-0.26434922799380484
296,2.96,-0.008443977632789455,-0.017898061449971553,-0.009725901725806514,0.1162015963708432,0.0338834322905143,-0.26220360240734186
297,2.97,-0.006921068257940017,-0.01950236302309005,-0.009508869062337569,0.12266686383051245,0.03472698870335053,-0.26577640354810744
298,2.98,-0.005133982930815292,-0.020543651590281705,-0.00949311742207852,0.13070369392000178,0.036047522281664635,-0.2730037114598063
299,2.99,-0.007146353598688814,-0.012538626667381555,-0.012756703937961411,0.135761986056741,0.03710342161910443,-0.2774508304145106
300,3.0,-0.009260027889307819,-0.0035900854178377885,-0.016004293149807065,0.13929747421975291,0.038024024351303504,-0.2804765530806381
301,3.01,-0.008997027027274732,0.00023658745640763468,-0.01727056143422664,0.1435732267156673,0.039014491164080484,-0.28823436444702616
302,3.02,-0.007643716448786177,0.002007693848927191,-0.017210883652352404,0.14832785903695075,0.04005015331752114,-0.2990533820740571
303,3.03,-0.00563805741839913,0.0033244809877031817,-0.01645950949629171,0.15166502353408753,0.04260794142906345,-0.3045920091696535
304,3.04,-0.003485657838334395,0.004511079414788313,-0.015094382034597266,0.153577899993008,0.04669517928038231,-0.3048248388828221
305,3.05,-0.0018404186363290824,0.0064231531123684,-0.013254938199831694,0.15366595938142225,0.05066043257395477,-0.30761027803479274
306,3.06,-0.000613412525622043,0.008614591578142016,-0.011024318787814607,0.15190717171457566,0.05450222865918429,-0.3129791428360941
307,3.07,0.00021298817573565108,0.011022930100388753,-0.008395362578679566,0.14514112525229242,0.057558101454341364,-0.32033497579725145
308,3.08,0.0007614196938535841,0.013265095179947468,-0.005556554727537175,0.13336381258457214,0.059827421969197825,-0.3296793671288771
309,3.09,0.0014337701344087428,0.015351425933531664,-0.0031465215410858946,0.11831204349724153,0.05972109172873415,-0.33631225561448164
310,3.1,0.0020777461662648557,0.01701358517188918,-0.0009307837398499067,0.09980270694051972,0.057106261842027835,-0.3400820111607021
311,3.11,0.0020888686100111378,0.018582998930167655,0.0015278869088956844,0.0876700658401206,0.05583625267469068,-0.3401041603372282
312,3.12,0.0018149586301921164,0.01917017082668545,0.0041979853964525015,0.0788223890657059,0.05525902993854368,-0.33819572441421475
313,3.13,0.0006194842659783388,0.018809464152757166,0.006914108367419838,0.07136858133657781,0.051199030511580916,-0.3336264292198806
314,3.14,-0.00020478908488230033,0.01762529653428045,0.009451487526191779,0.06455130375413196,0.04554857151787272,-0.3278420147516076
315,3.15,-0.0011461362392786974,0.016779130440817427,0.012336274627873399,0.056597988779951834,0.038336880456182366,-0.3215432205376025
316,3.16,-0.0012602051305493998,0.015540067289686738,0.014551083542955503,0.04804072438216787,0.03029519452422612,-0.3149709675860518
317,3.17,-0.00016820408970329463,0.013612293618738648,0.015590303281372038,0.039483459984383885,0.022253508592269874,-0.3083987146345011
318,3.18,0.0015331498087097417,0.011535499508794905,0.015725195835489016,0.030926195586599918,0.014211822660313626,-0.30182646168295035
319,3.19,0.002425138485788597,0.010493484039088048,0.015711118664582434,0.019747257778906967,0.005804644777076538,-0.29589361003899833
320,3.2,0.0029781803776167547,0.010026802223777796,0.015325450565351263,0.005899027871720426,-0.002974663659987364,-0.2906117734499072
321,3.21,0.003391633325503191,0.010707144524012158,0.013948043849409487,-0.011155836669075414,-0.01342742594059664,-0.2924513058412491
322,3.22,0.004374676796348778,0.010797094657585786,0.011982533201481908,-0.029935074778029286,-0.02478009104926653,-0.298120367269124
323,3.23,0.005623662970984449,0.011004932394622208,0.00935314552717642,-0.047014669860450366,-0.033090889377905656,-0.3017188746521793
324,3.24,0.007014626596427035,0.01051317022454962,0.006713027373237897,-0.06288356032123164,-0.039234878493372184,-0.3038424668252261
325,3.25,0.00805477799741014,0.009701749985515009,0.0040212332470628154,-0.07747429855422477,-0.04521883105891032,-0.3081759332014533
326,3.26,0.008964155063785114,0.0078743738348904,0.0019707540788718872,-0.09148162154080253,-0.05112973460792127,-0.3135181012602855
327,3.27,0.009908936697918057,0.006020825233344253,-2.7922911373153697e-05,-0.0983746577493172,-0.05354147248958867,-0.3104636682112554
328,3.28,0.010291135984160163,0.0038033238594044807,-0.0012274457675452329,-0.10158148464045992,-0.05414014639332325,-0.30305860519697025
329,3.29,0.00953672667010191,0.00068668384549617,-0.00205989755007498,-0.10346196445770196,-0.05851776905620576,-0.29234897286976
330,3.3,0.008074034648934546,-0.0020188626995033205,-0.002086450585028301,-0.1046918244776259,-0.06474909873449383,-0.28001833329723197
331,3.31,0.005813644418444672,-0.0025715298649106348,-0.0016982525457012662,-0.11077764927107404,-0.07164129444885592,-0.26638255519164983
332,3.32,0.0032983295468442036,-0.0025033411592415697,-0.0008266800306625131,-0.1190872071675459,-0.07883612614795467,-0.2521491039365817
333,3.33,-0.00036859137129739185,-0.0020684444999529306,0.00046120379080773774,-0.12020084041879542,-0.08710422454841682,-0.2448535243587077
334,3.34,-0.003628966668702234,-0.0016361965604433618,0.0016840405635200235,-0.11793748523089713,-0.09587599821249264,-0.2408138310777713
335,3.35,-0.006065158682588922,-0.0017779558402418283,0.0024039909607731034,-0.11575757323281376,-0.10465087543348142,-0.2316557552844
336,3.36,-0.007792463694272682,-0.0018326445300608013,0.0027076831727760884,-0.1136280054263728,-0.11342762513878367,-0.21940958050204465
337,3.37,-0.010318245818426306,-7.753998179487777e-05,0.0023722405318230004,-0.1142143858130795,-0.12287914607032255,-0.21030875123370774
338,3.38,-0.012791088330731915,0.0022509129157018823,0.0015990078035643465,-0.11761515438038653,-0.13302989542179994,-0.2044672710431228
339,3.39,-0.013428505821399296,0.0018087461319033207,0.0011866693405569698,-0.11520735009888147,-0.14469059356170091,-0.20355459938959355
340,3.4,-0.012768322729783444,0.0005640369808536383,0.0006312591842917098,-0.10967185274493912,-0.15716434104921465,-0.20529590156370975
341,3.41,-0.012082823715723598,-0.0005996547580491216,-0.0004794237742003506,-0.10149380904673384,-0.16751573539608278,-0.19938024408746835
342,3.42,-0.011231185475766476,-0.0016401243644540067,-0.0018975597238644498,-0.09066262763615236,-0.1757362701768919,-0.1857769377438338
343,3.43,-0.011185716276059885,-0.0023871591117837505,-0.003398612973329409,-0.07503067946473094,-0.18967213532583416,-0.1787801222897591
344,3.44,-0.011104146690261196,-0.0030224148336846623,-0.004856686497004234,-0.054584503540150014,-0.2093393562034452,-0.17840832183348648
345,3.45,-0.008896457754051462,-0.0058830669856353695,-0.005631540394769319,-0.03480759253288691,-0.22224415750968946,-0.18105685080410694
346,3.46,-0.005521904094594284,-0.008144932703375228,-0.0062955419647464424,-0.015362111759797972,-0.23180010510475435,-0.18520109315120326
347,3.47,-0.0020125884111661394,-0.009878971137077102,-0.006887557831187362,-0.0024331408507405955,-0.2405404153364054,-0.1850782395056739
348,3.48,0.0013360541314462828,-0.010394058751431904,-0.007518582648440915,0.007008486891903809,-0.2488442331135184,-0.18267182788803946
349,3.49,0.00258078490030101,-0.010077045723889056,-0.008336592373657623,0.02126892826109973,-0.2581576943397519,-0.18536116601463146
350,3.5,0.0032866383822880746,-0.009245447377219515,-0.009032879462254667,0.03901312944714786,-0.2682010769844054,-0.1917344748384624
351,3.51,0.0007915651049887357,-0.009674652049998922,-0.010631868659973094,0.0585124192189932,-0.276934047819747,-0.1990717507276641
352,3.52,0.0024711589938988406,-0.010011781704555973,-0.01090441346349265,0.07611050135142386,-0.2841076727378565,-0.20503178700588215
353,3.53,0.01585610893042003,-0.010047514232534374,-0.007911850012689237,0.08309246990125695,-0.2879608519406721,-0.20390369010420684
354,3.54,0.01626048755076593,-0.009737350801307082,-0.006726551411395788,0.09116771749340527,-0.2951096359591837,-0.2104119954559349
355,3.55,0.01203308379995208,-0.00907718134269388,-0.006108140382872566,0.09991503247035807,-0.30428431494513525,-0.2216145981399263
356,3.56,0.008373793298300142,-0.008924775884336947,-0.005053094176134391,0.10877261043558464,-0.3090786374183018,-0.23336984675681746
357,3.57,0.005333466152414166,-0.009123655706803405,-0.003741689091777391,0.11774023108341407,-0.309501355339748,-0.24567663711893015
358,3.58,0.003615578572593795,-0.009809586787316372,-0.0019497783658370383,0.12504831648114098,-0.31445848365763546,-0.2516950445036081
359,3.59,0.0026253060963954155,-0.010440258037257105,-0.00014425550650434132,0.13097482433787186,-0.3231905480999563,-0.2524783183228679
360,3.6,0.0008122972557776729,-0.010556948066076204,0.001033492329156404,0.1345898913458313,-0.3301475210623308,-0.2544727974012533
361,3.61,-0.0011065606331280807,-0.010403195228602492,0.0018715245779605616,0.13588425321304032,-0.33532228794964897,-0.2576833362688612
362,3.62,-0.0007881390584475035,-0.009758143122324226,0.0028979775585869943,0.1352534289018554,-0.34375254494012725,-0.2610272599651249
363,3.63,0.00016512665400482754,-0.008849847430201806,0.003833251665411681,0.13349774929505628,-0.3540849323964569,-0.2644491182697667
364,3.64,-0.0007954399327027269,-0.008219713565248222,0.00442845809057495,0.1271036401688557,-0.3609163956575808,-0.26540616981007137
365,3.65,-0.0021877051880680996,-0.007692716540384774,0.004881332067413527,0.11671671843440225,-0.3647342237629509,-0.26424148780146955
366,3.66,-0.0014165253056536275,-0.005823315700795825,0.0055186061326932285,0.10945600295091784,-0.3700613867754269,-0.2637368828111924
367,3.67,-6.159568547192901e-05,-0.004152938778822714,0.006120657036935623,0.10367118080570192,-0.3761011122856343,-0.2635439025813696
368,3.68,4.7246896183477174e-05,-0.0032903390899960885,0.006688942632265901,0.09590204846291432,-0.384315364952548,-0.2627966842207592
369,3.69,3.784715216155173e-05,-0.002874909638455837,0.007129367283778209,0.08694334564339949,-0.3938332209117419,-0.2617172066608219
370,3.7,0.0009154590146361417,-0.002265140595449565,0.00752274294130578,0.0751581827840058,-0.3993581009847511,-0.2555908747246342
371,3.71,0.0019431916185821256,-0.001649870122335799,0.007726272409305039,0.0618275386808423,-0.40269966013623465,-0.2467049712153537
372,3.72,0.002169965109989294,1.0064797169520232e-05,0.007700515710659576,0.04821813111875448,-0.40468394596196783,-0.23825020711185765
373,3.73,0.0021987451856068656,0.0015981633742579542,0.007473880545324924,0.03445542957770455,-0.4059218576773845,-0.2300325295879839
374,3.74,-0.004587857374586708,0.003137059342351544,0.006958270466358552,0.015126404164065773,-0.4092861711269563,-0.21919826093426356
375,3.75,-0.009683815374974054,0.0044117712544142,0.00633832479142754,-0.0072998364782897625,-0.4138336575258829,-0.20690806803319664
376,3.76,0.005079972572610788,0.007123320966201531,0.006438835063625484,-0.021340599581655947,-0.4158200067884877,-0.19871101357777868
377,3.77,0.025873662299076665,0.010278143358092543,0.0066552922307446406,-0.02698917407957501,-0.4152431691851697,-0.19461037338909454
378,3.78,0.0305540990419048,0.011492503722724208,0.00590335466768435,-0.032637748577494075,-0.4146663315818517,-0.19050973320041045
379,3.79,0.006331343341610521,0.013467753393251056,0.004209338408683221,-0.04721144725163279,-0.41467948196525106,-0.18063426639058724
380,3.8,-0.014600658284776939,0.01457572367870821,0.0023928872935613087,-0.06492589193505903,-0.4149002487782063,-0.16872664144978866
381,3.81,-0.018596906958091346,0.015436218052452651,0.0009098619309495328,-0.07921646227858482,-0.4142846624993329,-0.1562070919427939
382,3.82,-0.013614218271318281,0.016238076376124067,-0.00033973298897761565,-0.09007767569719836,-0.412831383892295,-0.14307463800640655
383,3.83,-0.010728397841807093,0.017553553740628,-0.0015739547128375022,-0.10148583642576237,-0.41186315439117865,-0.13395698273071294
384,3.84,-0.00891705453010971,0.019023537674456678,-0.0027169433907783406,-0.11344160119508725,-0.411380556404356,-0.12885894676649634
385,3.85,-0.004676707874726687,0.020022523571593242,-0.003869828582778721,-0.12280745953799126,-0.41040594922532597,-0.12295360740512648
386,3.86,-0.0006600839102956562,0.020299499792995078,-0.0048186234082669855,-0.13075159725276084,-0.40916125521587743,-0.11660510149488555
387,3.87,0.0014552409159389289,0.020410568898395702,-0.0056384046284033195,-0.13579140522111094,-0.40771751837686254,-0.1085656342163402
388,3.88,0.002356539902623135,0.020093391791694067,-0.0061678236741775925,-0.1392604585808428,-0.40616613279643343,-0.09961164083567636
389,3.89,0.003132136514297358,0.020112557810472224,-0.006167603192513079,-0.1406218445715966,-0.4013259011641143,-0.09492503645916736
390,3.9,0.0032137458537252355,0.019674681683042313,-0.005991367873110224,-0.14095775184989834,-0.3948854921677643,-0.09231471634170378
391,3.91,0.0024505544982611842,0.01846855000989187,-0.005825743040064429,-0.14129365912820008,-0.38844508317141424,-0.08970439622424023
392,3.92,0.0030917394179786066,0.01656226240466315,-0.005207841535045339,-0.1398922239259571,-0.381996055316495,-0.08607620301722707
393,3.93,0.002906528241689515,0.014615655759974673,-0.004743044682353367,-0.13769593111601408,-0.3755430842175808,-0.08198231914878032
394,3.94,-0.0037249151155316854,0.015429785544918471,-0.00433530122251208,-0.1329039223145479,-0.3665113552142381,-0.08323611915585788
395,3.95,-0.011210648529130415,0.01641990137124709,-0.004105482599945833,-0.1259439738035163,-0.3553258498807331,-0.08895630002502222
396,3.96,-0.013173123140091676,0.014449881492603563,-0.004292270488097338,-0.11898402529248472,-0.34414034454722797,-0.09467648089418657
397,3.97,0.002279670736121539,0.0047745268626965195,-0.0048194786136613755,-0.1139450587231564,-0.337795810685688,-0.09966216907795264
398,3.98,0.01576922359653011,-0.004211836397565331,-0.005284054250264146,-0.10992149349201362,-0.3340101394579074,-0.10425961579028686
399,3.99,0.010625683403293822,-0.005881677703354253,-0.005396309937195133,-0.10096652312891473,-0.3283727389493882,-0.1074644441156765
400,4.0,-0.0002907414806946288,-0.004990496598255394,-0.005236441731462832,-0.08888247222932456,-0.3215603771679321,-0.10978562671074273
401,4.01,-0.006032512855114814,-0.006047858956872536,-0.004805757342893107,-0.0790081106228716,-0.3145589533874376,-0.11034807342239154
402,4.02,-0.009483046027317995,-0.007584731551460628,-0.004208392995885574,-0.07014471165905929,-0.3074710311934491,-0.11010587475610024
403,4.03,-0.011812289953059016,-0.009665652556850816,-0.003365881635109412,-0.06016858261357496,-0.298536189245412,-0.11442073711676527
404,4.04,-0.013043559464418982,-0.011834926834842871,-0.0024386546316842958,-0.049488778031623534,-0.28843338008758296,-0.1216174235744641
405,4.05,-0.012601787221017222,-0.015190007514592247,-0.0014152024738588818,-0.037872118788589086,-0.2814563990583017,-0.1251068265425659
406,4.06,-0.01132935993438903,-0.018242316366134208,-0.0004300813811167856,-0.025724810038274527,-0.2762499372196265,-0.12649636467696113
407,4.07,-0.009116789604461766,-0.020759445362113358,0.0004979053735787414,-0.01925841363798781,-0.2709353673266573,-0.12801984864397514
408,4.08,-0.0066775619185544775,-0.022613395860133317,0.0013456646726764652,-0.015951615858771674,-0.2655606701093734,-0.12961783033986862
409,4.09,-0.004291302362654878,-0.024471736142216222,0.0021811524129991787,-0.011420312259207812,-0.2602541396303813,-0.13263690566340805
410,4.1,-0.0019318100262946695,-0.025979030162544332,0.002946385166265782,-0.006097203232918192,-0.2549916879890761,-0.1365749065057628
411,4.11,0.0012473781555021627,-0.027730203388265137,0.0033801236357977106,-0.0005715266923347327,-0.2494713716456241,-0.13291308874852564
412,4.12,0.004241316223197192,-0.028981700990581567,0.0037707180140752025,0.005075949850838538,-0.2437960061498005,-0.12468164427528085
413,4.13,0.012261632823830533,-0.02929077215209508,0.00405667999955717,0.007248807676143806,-0.2414720811554648,-0.1194014249824051
414,4.14,0.01780736328934803,-0.029024104330007877,0.004469119594600796,0.007773744461292599,-0.2407376569857327,-0.11552089482490413
415,4.15,0.01795147316932457,-0.028403498663463193,0.0050657806812943375,0.00829868124644139,-0.24000323281600064,-0.11164036466740317
416,4.16,0.015111561471733467,-0.0275761149076242,0.005700199526479511,0.008823618031590182,-0.2392688086462686,-0.10775983450990216
417,4.17,0.010985805707772623,-0.02658232276754079,0.0062663587689722605,0.009348554816738974,-0.2385343844765365,-0.1038793043524012
418,4.18,-0.012486430590473474,-0.027796765539171805,0.00885840139076393,0.0009056148251446685,-0.23596677655016704,-0.09211783382870284
419,4.19,-0.02511532213557484,-0.027469740048147423,0.010103356038076834,-0.009932698233526986,-0.2329095143715178,-0.0782513173987774
420,4.2,-0.015079795917947069,-0.02375800561878553,0.008950317007909873,-0.019489251940204472,-0.2287379164202495,-0.06998381942619424
421,4.21,0.004898070161140973,-0.018467829309495636,0.006639231209414816,-0.02774180879150439,-0.22343264985866884,-0.06741247841959395
422,4.22,0.017646269200358302,-0.013797384057123057,0.004867971797206374,-0.03692953811860852,-0.21926119724322385,-0.061801578004152376
423,4.23,0.024771585406027485,-0.009628820831305007,0.003489254746400402,-0.047065624629131414,-0.2162395438662064,-0.05310826437148704
424,4.24,0.028045229555018005,-0.005473536811265263,0.0022677060450007275,-0.05878482074174402,-0.21328037433274186,-0.04606394142965661
425,4.25,0.028224232934145922,-0.001482395722233099,0.0012191598085614633,-0.0720877598269613,-0.2103837136413672,-0.04066926890688309
426,4.26,0.02517960417609471,0.0024903423511872576,0.0002840940455682342,-0.0852444282696051,-0.20580960866362685,-0.037473976888798416
427,4.27,0.020212206594743022,0.006303135166486671,-0.000500357038007217,-0.09825359221408428,-0.1995439094376755,-0.036496618093056106
428,4.28,0.015350732263032362,0.009876744698934355,-0.0012494667240870803,-0.11184825391773,-0.1954643879627392,-0.03666661577446485
429,4.29,0.010154511089452808,0.012823325926241327,-0.001802433444118792,-0.12578988761721244,-0.1926804179150248,-0.03751654870853788
430,4.3,0.005890552833082293,0.015973614156464873,-0.0025197096983184336,-0.13771426530758435,-0.1867802061778458,-0.03448194114482856
431,4.31,0.001102228424432125,0.0185769022820323,-0.0029009382494196104,-0.14871614964957552,-0.17945493375551086,-0.029670929022384024
432,4.32,-0.004952747712595521,0.021783948288796047,-0.0029668648532978187,-0.15742441228169504,-0.1731136958971649,-0.028751405108353743
433,4.33,-0.010980095787140232,0.024627424531583723,-0.0027489873018055385,-0.16474826309278234,-0.1673664134748123,-0.030180752524738994
434,4.34,-0.014667983733797355,0.026857823733153197,-0.002443117520842385,-0.17169296949935325,-0.16133794935862894,-0.03391237602070361
435,4.35,-0.017685824653880165,0.028588421552470707,-0.00202975926656506,-0.17844478590410914,-0.15516643384359272,-0.03881528420893462
436,4.36,-0.021793064496170803,0.03142725652142421,-0.0013248426585594848,-0.18442460792660173,-0.1515761636949788,-0.0454479029208383
437,4.37,-0.025621121817215757,0.03451190079757929,-0.0006332319598287388,-0.18962467682932085,-0.15059308107727395,-0.053827616181778205
438,4.38,-0.025836409656632316,0.03513707238663656,-0.0006153657133255632,-0.19206054025204436,-0.14672983758000605,-0.06547784199536398
439,4.39,-0.024768848445075292,0.034901505899683216,-0.0008477240575499589,-0.1931169942844358,-0.1414293199756979,-0.07876013740687478
440,4.4,-0.02362601158504697,0.03519683381378673,-0.0010857089435990334,-0.19377565582255732,-0.13845420497822078,-0.09014456768522884
441,4.41,-0.0221407404948816,0.03561886479699679,-0.0013697369948422406,-0.19403620650506911,-0.13780635365408667,-0.09962961393075973
442,4.42,-0.020441019168628262,0.035880367096707985,-0.0017368008096775708,-0.1919183918479878,-0.13550958249688466,-0.1134978875352716
443,4.43,-0.018285861623949226,0.035704240291401006,-0.0021610214189796985,-0.18740694144784906,-0.1315533045413944,-0.13177753121053967
444,4.44,-0.014841516436029567,0.0336916205866678,-0.0028964604045187475,-0.1793739903316221,-0.12885406393584609,-0.14823561562694235
445,4.45,-0.010896120539386793,0.030886226217384287,-0.0035817717279661224,-0.1690264432856627,-0.12698104310654393,-0.16349643388148552
446,4.46,-0.00667259839849147,0.026787239267495808,-0.004369980884440202,-0.15476171253681098,-0.12476291103320822,-0.17892784843188989
447,4.47,-0.0026816302052972037,0.022850291683263548,-0.004815463001856685,-0.1384555653951833,-0.12236492634014952,-0.19444816820128127
448,4.48,0.0004805061819435478,0.01844922478091735,-0.004805983836884206,-0.12395449911487147,-0.12388931908360452,-0.20641304589933207
449,4.49,0.003365362993429223,0.014680536637550153,-0.004460203125444273,-0.11032571901761618,-0.1273091591258079,-0.2166597939224455
450,4.5,0.006522102681015815,0.01065293684133577,-0.003551745773620323,-0.09868743936217377,-0.12819163039585327,-0.2286498647845111
451,4.51,0.009436655003093715,0.007183637181487554,-0.0026666418795709026,-0.08798199667395487,-0.12788497789560108,-0.24145693420423514
452,4.52,0.012422227468183923,0.002690966423440291,-0.0015378000981166053,-0.07735388524075036,-0.1276923766251771,-0.2477702658475259
453,4.53,0.01478835211003795,-0.0013682042975544477,-0.0007630419372646271,-0.06676582454253506,-0.12755884378161622,-0.2507204169666529
454,4.54,0.016000990866764833,-0.005245626749132207,-0.0002028104289415098,-0.05599849248391292,-0.127082077444641,-0.2502691853912727
455,4.55,0.01647076598739223,-0.00915324511030945,0.00010355841091627249,-0.04505153016326149,-0.12626139046011048,-0.2464097615464212
456,4.56,0.01668248698483628,-0.012350291540961393,-0.00022202319559887673,-0.03410456784261008,-0.12544070347557995,-0.2425503377015697
457,4.57,0.01664076968205492,-0.015561574711205187,-0.0008177475213974301,-0.023157605521958658,-0.12462001649104942,-0.23869091385671815
458,4.58,0.016643412775199196,-0.021375973816845577,-0.0014207688339269143,-0.007614828797433859,-0.1233826076495844,-0.22832836341011103
459,4.59,0.016452783508263385,-0.028156118305244063,-0.0018760443754015366,0.012536648652144829,-0.1217273084941456,-0.21144445207926785
460,4.6,0.015833787521754426,-0.03358588681989057,-0.0024619822589196207,0.02535429117393069,-0.11948811767990465,-0.196517019968115
461,4.61,0.014697923350196608,-0.037418411708235635,-0.002663576420572767,0.03454829823983566,-0.11696042698285194,-0.1825562809362264
462,4.62,0.0131715701260971,-0.040496128905071434,-0.00268338404220697,0.0361977990133434,-0.11621345225766742,-0.17045156576364204
463,4.63,0.011299035453496293,-0.042550798800912434,-0.0021334581750047763,0.03439077619823753,-0.11628231445047787,-0.15919718989784304
464,4.64,0.009166874975487727,-0.04361867072242609,-0.0009525707795051061,0.032583753383131665,-0.11635117664328835,-0.14794281403204404
465,4.65,0.006636784707299004,-0.04403399043553878,-0.0004008194251112398,0.030668160156346814,-0.11826078714802815,-0.13638808823501067
466,4.66,0.004127758294579553,-0.04417010230411182,0.0003876066713237817,0.028677524265511213,-0.12144270246434505,-0.12462576389765008
467,4.67,0.0020036556618902852,-0.04446510881932576,0.001942171107815126,0.03021819071301335,-0.12261806525889042,-0.11488091618833532
468,4.68,0.00015050949862414193,-0.0444808003956133,0.0039498205631719125,0.033682988683351435,-0.12270010026967434,-0.10623534857590268
469,4.69,-0.001863992279010106,-0.04414789739625718,0.007192428796365294,0.035389316432649434,-0.12327465748844715,-0.09309325549247344
470,4.7,-0.0036143024308418516,-0.04308624119453428,0.00996069628038367,0.036178821201952836,-0.1241060036326388,-0.07760678498791154
471,4.71,-0.004645390564287202,-0.04048535221311999,0.012653056847654054,0.03007331865503008,-0.12171092902797473,-0.06665238729770034
472,4.72,-0.005450506931477567,-0.037162876161796615,0.013880496865889273,0.020655558707492368,-0.11776593061427483,-0.0578751289535392
473,4.73,-0.005833895358366213,-0.03259987195663331,0.013937193481170741,0.009671604122831991,-0.1128125857125027,-0.053410688444583784
474,4.74,-0.006340756523420664,-0.02774713090404116,0.012591426735937498,-0.00209497801595147,-0.10735537001015223,-0.05110136326659799
475,4.75,-0.006965780337696948,-0.022098924874120397,0.01006619077313177,-0.011290126866173287,-0.10157775021985596,-0.04835256646423998
476,4.76,-0.007786332033861118,-0.016399823485225406,0.006924411404944666,-0.019041354088402032,-0.09562021582927034,-0.04535699577661613
477,4.77,-0.0083495634635545,-0.010050227955093475,0.0031517705296602696,-0.027925699105937604,-0.0906848562294242,-0.04562079864297279
478,4.78,-0.009004502895269158,-0.0038133584311723333,-0.0003485593686094017,-0.037470969702623015,-0.08634571131119367,-0.04778573073239218
479,4.79,-0.009397344455111022,0.001995614722197992,-0.0038960020127123216,-0.0412985624360274,-0.08096547610964483,-0.04805965597368686
480,4.8,-0.009927711439661535,0.007686374020175642,-0.006434453466653733,-0.04209451725110451,-0.07503323205856299,-0.04733092800476698
481,4.81,-0.010829620689163107,0.013726356968435747,-0.008311200257239065,-0.04337501082116938,-0.07409719005708387,-0.04530284474351148
482,4.82,-0.011652199485532559,0.019889187812967123,-0.008935200617034181,-0.044909029238665014,-0.07577530708688962,-0.042594900792359135
483,4.83,-0.011986008296884548,0.026803578285717555,-0.00857870769371856,-0.0515948924307895,-0.07538172797493864,-0.04353609199610678
484,4.84,-0.011912556292786074,0.03346883434179859,-0.007334371395246198,-0.061127427809360826,-0.07384342497407098,-0.04649362724833901
485,4.85,-0.011585916108495785,0.039937842659821865,-0.005519305745206442,-0.06753530395895235,-0.07444045289217728,-0.0486127301909873
486,4.86,-0.01085955818313091,0.045575302422265505,-0.0034542727275066083,-0.07204427144527317,-0.07633515779962785,-0.05022230353070515
487,4.87,-0.010123757464119532,0.05049570775580305,-0.0009510748591374913,-0.0736531466642348,-0.07775096790400486,-0.05206820043456215
488,4.88,-0.008921892871387853,0.05426763643692361,0.0012165002086406028,-0.07348906827985112,-0.07887400861056346,-0.05405857229851325
489,4.89,-0.006578362619849477,0.05665671950055874,0.003291194421797012,-0.07213164876889315,-0.0781095154465647,-0.056470623599222385
490,4.9,-0.003945710306580327,0.057845656910959914,0.004392838073031121,-0.07022825960390269,-0.07648145008905488,-0.05907559892733037
491,4.91,-0.0008411585165535277,0.057513151489057515,0.00472407443368664,-0.06555698974445864,-0.07076559357410034,-0.059546104505069135
492,4.92,0.001980543561741703,0.056311512581512915,0.004163109861377258,-0.059128701618452,-0.06245485508033957,-0.05866167366942166
493,4.93,0.004458367053761856,0.05432799776603651,0.0027332833444241407,-0.0527964680496788,-0.05464739717876146,-0.06132504892967858
494,4.94,0.006205688501469463,0.05185705570598942,0.0007975083051694745,-0.046508631096699546,-0.047072556611865234,-0.06562822753386789
495,4.95,0.007970451946296687,0.04866588483284021,-0.0012180980397802658,-0.043649199288232216,-0.0402855444896986,-0.06376953487067365
496,4.96,0.008978766507485804,0.04491657538805611,-0.0032053561590227745,-0.042408330014499146,-0.033870469040908666,-0.05900180037699228
497,4.97,0.009967982516963764,0.039936851949814174,-0.005472944513305247,-0.03948233717173669,-0.02639471329419166,-0.05475245305830828
498,4.98,0.010123023105361808,0.03448740325940788,-0.007285053431105332,-0.035761521512382745,-0.018418666104523036,-0.050747613597735636
499,4.99,0.009624529954735268,0.02905482342828602,-0.008648266719239892,-0.03409429606590375,-0.011429084273185524,-0.046535953122939976
500,5.0,0.008757282821864214,0.023239300628469572,-0.009434589911332779,-0.034550840481559875,-0.005459679390943915,-0.042110403706665515
501,5.01,0.007110268157092838,0.01608341363166403,-0.009616164029884475,-0.035081458666730916,-0.002241086021139637,-0.03929078626665836
502,5.02,0.005404180381682342,0.008380388848490166,-0.009041014042105973,-0.03565341874071507,-0.0005577695035557588,-0.037367468038086174
503,5.03,0.004067357645274423,0.0006649894189035624,-0.0076989242020501225,-0.03622537881469921,0.00112554701402812,-0.03544414980951398
504,5.04,0.003512612726207295,-0.006539475091689603,-0.007200666143934194,-0.031889993519429144,-0.0013072618308762867,-0.03587258399247641
505,5.05,0.0032602296457670964,-0.013939443818798497,-0.006086624095104146,-0.02528432397625047,-0.005644312963560485,-0.037389008942980737
506,5.06,0.002507855253793751,-0.022707901743413857,-0.0036738170986166394,-0.019113732533184432,-0.007627933943172958,-0.04312177247452177
507,5.07,0.001974918805219264,-0.031329765907982796,-0.0008297540038680329,-0.013224476788972723,-0.008089750178653592,-0.051580958138078455
508,5.08,0.0020528124262962993,-0.0392750074679135,0.002606945131204962,-0.012251447092808015,-0.008970801123786459,-0.05553800984460747
509,5.09,0.0025887204347320543,-0.04586739573494722,0.005401055896898167,-0.013555966660341987,-0.010046071719308413,-0.0574093495072457
510,5.1,0.004135942317107481,-0.05034448584682224,0.007855754432796859,-0.017234455374320667,-0.00605742086935541,-0.05641922615184946
511,5.11,0.005718309085360827,-0.05353268853859009,0.009396954194916249,-0.02273697520081964,0.001822076785299396,-0.05323050742715887
512,5.12,0.006396194573243035,-0.05616988572166558,0.009392019146094367,-0.028239495027318613,0.0097015744399542,-0.05004178870246827
513,5.13,0.0071648885126067395,-0.05772181990994768,0.009114032526720599,-0.033786519672387674,0.017100136004090518,-0.044386951324652035
514,5.14,0.007262397285733159,-0.05854210380831665,0.008129385106887852,-0.039357624517487484,0.024238477717123376,-0.03739777235473779
515,5.15,0.00714452755301237,-0.0585910176456472,0.006188801410233521,-0.04020345494159405,0.033889241378358304,-0.03667224760245316
516,5.16,0.006208731583538671,-0.05788897918716931,0.003959570111766568,-0.03853053951842272,0.04487921876240461,-0.03928548196632648
517,5.17,0.004905309817185653,-0.05658102096749012,0.00204039930111986,-0.04182859960064569,0.05587029072828713,-0.035122401199653965
518,5.18,0.002913650289006274,-0.0542954444483019,0.0003938651742816644,-0.047528830877851536,0.06686189163923377,-0.027684738010062673
519,5.19,0.0010643493998994088,-0.049940772498541716,-0.002116870319513432,-0.04981474606406842,0.07587860380759576,-0.027751325095100685
520,5.2,-0.0007611147293693828,-0.04431585155689707,-0.004488908557202637,-0.048636822444036235,0.08289178259407691,-0.035431007341910084
521,5.21,-0.0033676531442942987,-0.03971180975822033,-0.005895605662831508,-0.04370288850413157,0.08667543591912259,-0.0431389251013392
522,5.22,-0.006160253554439681,-0.034762070353377784,-0.005852397319488,-0.03661464180011437,0.08860674930602001,-0.05086303773779412
523,5.23,-0.009477370754747468,-0.028117271611313742,-0.005794323952080177,-0.028057955544545585,0.08557138267422057,-0.060919553457666586
524,5.24,-0.012097083834883187,-0.020723664584503688,-0.004512384503473644,-0.01870009593241155,0.07982621998894357,-0.07224861676400958
525,5.25,-0.013626676814054668,-0.014572086272177421,-0.0020455576624848412,-0.006168934984781058,0.07346716210683564,-0.09046965997293352
526,5.26,-0.014005547817351256,-0.007916813645226235,0.0012111706562008585,0.00802332641817635,0.06678675384442438,-0.1122983879693755
527,5.27,-0.013552265355942759,-0.0009966348589330268,0.006007669633564543,0.015774486660197286,0.06085183892770435,-0.11874967754645688
528,5.28,-0.012299415440428861,0.006813602130568013,0.010183613546892987,0.02011194212536939,0.055312026359435135,-0.11705111297961768
529,5.29,-0.010440284580125563,0.01571065406295386,0.014345915566598401,0.02088155523660556,0.05607788539425155,-0.11649404847017705
530,5.3,-0.008203524818432482,0.024734303001506877,0.016423112229351257,0.019920759507931624,0.0599020045204962,-0.11649061318370392
531,5.31,-0.0048810922377343175,0.03219359647357204,0.016757233623955047,0.011751840757871869,0.06550298518413268,-0.11179065463007394
532,5.32,-0.0018940163838470974,0.03902782137781934,0.014931582404132475,0.00012656356539290228,0.07195598659679811,-0.10483867182598453
533,5.33,0.0003297369598136155,0.04728963754590146,0.010198936736672512,-0.007261150510031466,0.08099496486929482,-0.09650890665403407
534,5.34,0.001787894052017157,0.054227757929649366,0.004713177475665286,-0.012228826575951757,0.0915107736029835,-0.08739230111960533
535,5.35,0.00391408309555911,0.05717570837188652,0.0007056187590794502,-0.007582766058706139,0.10647394136111596,-0.08171170355872767
536,5.36,0.00543785038399706,0.057834813186908876,-0.0026244404820919207,0.0038748723861644603,0.1245881765845429,-0.07846560541119643
537,5.37,0.0063563822725572275,0.05697618029399561,-0.006658006715792831,0.02610763571481544,0.14219492251045446,-0.0737368623884444
538,5.38,0.00655093142293959,0.05504248499388399,-0.010492450953151707,0.05926306893169647,0.15928723003046746,-0.0675051724664049
539,5.39,0.006118258799889088,0.051213978950652314,-0.013201467932310466,0.08688189868161672,0.17735913769080844,-0.06689797573993382
540,5.4,0.00509061460158509,0.04658599640282216,-0.014782267474972091,0.10892857694873696,0.19641693505899155,-0.07195138452489355
541,5.41,0.0031393736175133104,0.042729707703501964,-0.014452190191908704,0.12267433892206682,0.21209776035265776,-0.07130831469406959
542,5.42,0.0007810664956300287,0.039265391487175644,-0.01301987086091449,0.1280256907736795,0.2243635784881038,-0.06490460639177331
543,5.43,-0.0008738408484085121,0.036810786045340466,-0.011932171315079999,0.1095888687435046,0.2353169341173791,-0.06066949031270906
544,5.44,-0.002077509316886206,0.034410792204457086,-0.010880927675551117,0.06645229992290452,0.24490753312080166,-0.058686067830290525
545,5.45,-0.0055813511388983035,0.03650615556809554,-0.011033201397722542,0.02536204304731708,0.25212014813246664,-0.056892216531930426
546,5.46,-0.00893888440530818,0.03604524991340803,-0.010315195824562445,-0.014789387997918109,0.2582417697591459,-0.05518533844638777
547,5.47,-0.009611448853467739,0.030880795600042147,-0.008378541705078131,-0.03250665723995942,0.26449773860162124,-0.04335142111754842
548,5.48,-0.009207433340101353,0.022357429537605056,-0.0055411701842650015,-0.038149302247363695,0.2708260164593357,-0.02606687922136633
549,5.49,-0.008117415120603976,0.011827326663706587,-0.00287189883692676,-0.0284556650593412,0.2778307058459259,-0.0028988929012337024
550,5.5,-0.006632825815168331,0.0004908746978794839,-4.984245678763422e-05,-0.008840928321971461,0.2852729684349904,0.02407511609631619
551,5.51,-0.0056735687407442675,-0.012755613612320743,0.0037930674668485223,0.022017883268329288,0.29576013722775685,0.04422383289601376
552,5.52,-0.004210095064560792,-0.024480364284420884,0.007289153419922701,0.05809057500120695,0.3076592297402727,0.061207660105138124
553,5.53,-0.002459157185612391,-0.03478885464012898,0.01144920972515802,0.08280809993366169,0.3195194924766684,0.08037520089657943
554,5.54,-0.00023776450322529792,-0.042884032449163806,0.015009582056009448,0.09583397453558147,0.33133977480830296,0.10179116446112683
555,5.55,0.0030782386661659424,-0.04667288301511,0.015485093052957213,0.10885984913750127,0.34316005713993764,0.1232071280256743
556,5.56,0.006887324404160083,-0.04744943619571562,0.013952804952968547,0.12188572373942108,0.35498033947157226,0.14462309159022174
557,5.57,0.042309558763973354,-0.0505825746851072,0.01655835722524411,0.061423076996497426,0.3853268435175397,0.16827443700191128
558,5.58,0.04593778419509929,-0.044911101481855384,0.014850349492354963,-0.01330060428666868,0.41011826603969015,0.17647553361531731
559,5.59,0.00899345929640015,-0.03302644676354349,0.0062859467898361415,-0.041153787277741584,0.41592761817033946,0.17081106191151615
560,5.6,5.657433688812871e-05,-0.023046311717223152,-0.0015228874931526686,-0.0823614579333165,0.4232022988342261,0.1802688273733824
561,5.61,0.0010026159474030329,-0.01783290254696655,-0.0073374337289204596,-0.13067501730634434,0.4312566770614547,0.19777309653930303
562,5.62,0.0007628350260863691,-0.01585734717158902,-0.012019408520467378,-0.13624202776375366,0.4410840795945755,0.20099135920217695
563,5.63,0.00034660505901798217,-0.01750107633500532,-0.014331828163381464,-0.12026539475353805,0.4518050607784777,0.1970096808526116
564,5.64,0.0010455066537581803,-0.025932076633549565,-0.013895069170904478,-0.08052238819923267,0.4574498186221375,0.20054844596492094
565,5.65,0.0019598531501032134,-0.034602904975891774,-0.01174930680706402,-0.024994459558979183,0.4597230991233264,0.20908206710258276
566,5.66,0.004870332560925917,-0.0418360189252815,-0.007684096437579243,0.021741288443039037,0.4663189318790024,0.22006868351019
567,5.67,0.007887019493517985,-0.04578182693652799,-0.0030897437372592405,0.060029647204399815,0.4770678050360482,0.2334120992948036
568,5.68,0.004892969063798446,-0.04323040210763586,0.0015443005026617787,0.061812070987660075,0.481672857427387,0.2279352530927205
569,5.69,0.0009649473945981422,-0.03606160064665477,0.004716579146235017,0.0469235397590711,0.4834722465848596,0.21386386627471693
570,5.7,-0.0013257288525871345,-0.023087923834230223,0.0055832106526584446,0.0011917262857682742,0.4844375476362104,0.2035057925842424
571,5.71,-0.002609807654992872,-0.009800687744918504,0.0053858251183427006,-0.05863165669793996,0.4850217734689136,0.19484424423874608
572,5.72,-0.0029360274462421985,0.006808048622842452,0.0034755703314280724,-0.11034099582004492,0.4843077800004764,0.18299723172057566
573,5.73,-0.0029619529060995234,0.019811205458834157,0.0017913729372514163,-0.1577632724892135,0.4829078711837218,0.1694671763100113
574,5.74,-0.016565517028959215,0.022622565355154212,0.000791387371547372,-0.16993475261124633,0.4792404811889908,0.1631912849493835
575,5.75,-0.02585030702879638,0.02209211999471137,0.0007009852012317998,-0.16528790587253336,0.4744912648715326,0.16037639061701206
576,5.76,-0.02359161786245588,0.021809905238274634,0.0014446395032170901,-0.16064105913382035,0.4697420485540744,0.15756149628464056
577,5.77,-0.015089016764599655,0.021790837576569452,0.002552454112548206,-0.1559942123951074,0.4649928322366162,0.15474660195226908
578,5.78,-0.0041415163758948825,0.02199195833959478,0.0036933769566457344,-0.15134736565639445,0.4602436159191579,0.15193170761989766
579,5.79,0.035046032473548636,0.0232094936654955,0.0030310552232574116,-0.10596650385280088,0.43894214872012105,0.16094882098321855
580,5.8,0.07810610464449776,0.024649250663860568,0.0017273778591637562,-0.019721069243734124,0.4010353785533463,0.18183586514382066
581,5.81,0.06025139621944809,0.021342341946157157,0.006970566353673603,0.0065406894576136255,0.3734047958464745,0.18908051689225416
582,5.82,0.01438098595305446,0.016527589961352358,0.013981641835460001,-0.02771141692913924,0.35614123070160203,0.18256219260735893
583,5.83,-0.019016197609594186,0.01980160880634216,0.015398239409317427,-0.06995980302370654,0.3427664348257982,0.17818140985524528
584,5.84,-0.03944989293983417,0.024322912276667566,0.012903333703650975,-0.11657856531490488,0.3315170504249232,0.17496890297335274
585,5.85,-0.048085939666174554,0.02891499573614304,0.00707899134511269,-0.14645622840789774,0.31756214179316616,0.16645744606595406
586,5.86,-0.048696380751236515,0.032052833489102074,7.559256159717434e-05,-0.1595391349334601,0.30089303737850503,0.15263005531886475
587,5.87,-0.04293638412687309,0.029545719543444565,-0.007494151915224128,-0.15162235207750185,0.2842652905010061,0.15351382912925915
588,5.88,-0.03399981373414252,0.02391130633369882,-0.014080224153931384,-0.12268066508391146,0.2676789508195094,0.16912643149300371
589,5.89,-0.028041746076040125,0.013702937242492566,-0.0184964968868978,-0.08668333180763943,0.2484259700764653,0.19120905333078494
590,5.9,-0.021842932897842855,0.004625282521898444,-0.019974449379708645,-0.04711086843514047,0.22782178941026565,0.2165700653284556
591,5.91,-0.017157872480849212,-0.002547330585225837,-0.019376726322259973,-0.0214187527404584,0.2052740127705839,0.2191420863514015
592,5.92,-0.011270258491066507,-0.006471751750452913,-0.016722720210132637,-0.002403676331550815,0.18179128356545932,0.2107516306732358
593,5.93,-0.005336014061846762,-0.0071331809984667705,-0.013037213854624162,-0.004992360128662516,0.16022383961212835,0.20183075956993016
594,5.94,0.0012425929296059623,-0.005916488607295621,-0.008551978401140114,-0.02016585818726447,0.13977210463361173,0.192600906162472
595,5.95,0.007094319397422957,-0.00200753232890216,-0.003921704050088497,-0.03816365903821213,0.11688410105256655,0.1803741160082087
596,5.96,0.011883574757101889,0.0025537241253973412,0.00040655176337969084,-0.059295601806404176,0.0912925588957196,0.16482161123618275
597,5.97,0.01601419079712796,0.005711134990444391,0.004609778480592144,-0.06989732189961441,0.06467358188112943,0.14404963201883708
598,5.98,0.019245626855557942,0.007069626595704128,0.008196889436363054,-0.06997303056466342,0.0370275809005608,0.11806026572847528
599,5.99,0.021836472561299475,0.002870161439716379,0.012131589236804227,-0.0560510699318906,0.01485283762802361,0.11041151534520402
600,6.0,0.023882825923489892,-0.00284326459245636,0.01481061810092086,-0.033669423715146175,-0.004015275163821396,0.11384717056469387
601,6.01,0.02376474347400917,-0.009769326135079994,0.016879543377011155,-0.011043436831845476,-0.02290930036054709,0.12370172121607967
602,6.02,0.022903402707157232,-0.015176108591247506,0.017021341365633238,0.011729843727832562,-0.0418189460981858,0.13742571660530178
603,6.03,0.02114605947961347,-0.018532276443966364,0.01573880178931844,0.027865720634614517,-0.05954735130953365,0.1476536019040328
604,6.04,0.018647318741428352,-0.020089404094618783,0.013189382391638804,0.037300167486703985,-0.0760831213914431,0.15435165257763767
605,6.05,0.015487676902834759,-0.019663698381112576,0.009077559801814628,0.036888598104446765,-0.09334129865445237,0.165413088035669
606,6.06,0.012147425644793496,-0.01785529192675475,0.004079208157152715,0.027994645413820855,-0.1112218326624598,0.1802335973548928
607,6.07,0.008801502353399066,-0.013367363225205039,-0.002517917986774079,0.015368578095604926,-0.1273905705497928,0.1901313797754361
608,6.08,0.005992348063461409,-0.008798355511650608,-0.008709034146608823,0.0007089609100152869,-0.14262658714597512,0.19734687302995965
609,6.09,0.0025278607964923684,-0.004463876227426462,-0.015101565222019844,-0.008065279536266023,-0.15673940180207108,0.20166306827645708
610,6.1,-0.0003088940920993504,-0.0016923450496225132,-0.019353051605660792,-0.013860042467738585,-0.1702835944186083,0.20451149117697232
611,6.11,-0.0016808789287882358,-0.0017821451161273922,-0.02212650516002876,-0.011646879804151886,-0.17972046234586594,0.21336994584704036
612,6.12,-0.0026573118656958014,-0.002943366926551556,-0.02214473396612914,-0.00550198924664389,-0.1871407177486272,0.22517920335252464
613,6.13,-0.005696451343570677,-0.004834393260607701,-0.02035603694358228,0.0029293824076710284,-0.1969697464881731,0.2370666594589335
614,6.14,-0.009375187791414294,-0.006807939500070636,-0.01709584462401431,0.013708405711038209,-0.20927199081834555,0.2490344062245001
615,6.15,-0.014523034144736968,-0.008556988433149622,-0.012181922258273031,0.011456293600960874,-0.21790150995330296,0.2527747554658722
616,6.16,-0.017484154982430146,-0.009363879237604528,-0.0061625597899437265,0.0016196937221661795,-0.2243933996003319,0.2517265276638159
617,6.17,-0.009962998733218908,-0.007448409982697348,0.0027371701234864473,-0.008590954263117373,-0.2301475942442435,0.2536628275607868
618,6.18,0.0010814333707482842,-0.004438538294728277,0.011798044231422408,-0.0191783532316127,-0.2351587632908763,0.25860522139467434
619,6.19,0.0007444252803876649,-0.0014563510626705808,0.017495929584871568,-0.03585989216718033,-0.23813504010846795,0.260135425194818
620,6.2,-0.0029145431816908667,0.0003300946966125714,0.020191171871167812,-0.05572017605209728,-0.2400499032679414,0.2598858074131488
621,6.21,-0.006631504520810941,0.0018018144638126104,0.02146162269831753,-0.07001231312407402,-0.2395500117057921,0.2575660779952503
622,6.22,-0.009586724640358117,0.0027337338792827303,0.0212360674785978,-0.07877403848210199,-0.2366517301141739,0.2531902660014437
623,6.23,-0.0077413410441104025,0.001418441869153306,0.01935915688036973,-0.08227008355032585,-0.23302137458216016,0.25833527197672285
624,6.24,-0.005052928833834573,-0.0005146688552278142,0.015853205100407892,-0.08333682090630194,-0.22905327866875985,0.2678726822086735
625,6.25,-0.0030845970127444345,-0.001591301446669165,0.011648006625385517,-0.08240088854427953,-0.21853506222332147,0.27480075060740394
626,6.26,-0.0017259942277443527,-0.0020613705101192124,0.007046861869862612,-0.08004133040325219,-0.20336060098564734,0.279873931868918
627,6.27,4.454917434280111e-06,-0.0018162008232519835,0.002183587410546233,-0.0822694577799844,-0.1897290006112064,0.28048348907685183
628,6.28,0.0012731208052963055,-0.001161178574272335,-0.0023489276535576644,-0.08713801609989855,-0.1769853899537011,0.27852401860750065
629,6.29,0.0031660735898213933,0.0007940898113359953,-0.006363983980229078,-0.09555143687170492,-0.15893485233025192,0.2772718389681257
630,6.3,0.0042705542155493425,0.0028284433040023727,-0.009401018001976761,-0.10590315443661866,-0.13798253793578774,0.2764063991715915
631,6.31,0.005977265082721777,0.005585149891765675,-0.0125153760931931,-0.11221222244188622,-0.11714513646800245,0.2717718127854627
632,6.32,0.0064902055684734426,0.007779715299928184,-0.014185245257209288,-0.1164032427199268,-0.09636794082800162,0.26516247388866243
633,6.33,0.00783300241569038,0.006670745061964495,-0.01565542375815245,-0.11339917180444788,-0.08153901783880843,0.25937944684067005
634,6.34,0.008097678121702388,0.005304079894371408,-0.015497801440766944,-0.1055057258521904,-0.07075220286862219,0.25415793436108164
635,6.35,0.005582587026735565,0.005997862013401186,-0.01257074319035896,-0.09761227989993293,-0.05996538789843596,0.2489364218814932
636,6.36,0.002006550184573256,0.007970750921931218,-0.008176174673986049,-0.08971883394767544,-0.049178572928249724,0.24371490940190474
637,6.37,-0.001511163784056995,0.013745967248477823,-0.01078509864459024,-0.03572705912770166,-0.02018542571475597,0.22518006801796364
638,6.38,-0.004275924691736757,0.01848988238375491,-0.010774628391355118,0.038200377467323736,0.01668122343865261,0.20088775063312864
639,6.39,-0.003989784268337734,0.013732326648429596,0.00098724345661934,0.07919992782446318,0.036465663614457605,0.17211406372990834
640,6.4,-0.0029869426395499237,0.008641821431614847,0.013739770754355923,0.10167754217279174,0.04664136124036057,0.14081960647259634
641,6.41,-0.0018305617672287598,0.00688432244662163,0.02253997596920538,0.11391777346330093,0.05750908148360434,0.11112610995769484
642,6.42,-0.0005781129276182114,0.007417299689173656,0.02738185638267071,0.11589602245756585,0.06907048719389014,0.08303742110729209
643,6.43,0.0003093127100502336,0.01218487951426689,0.027466741830400185,0.1134937524388226,0.08035752134954649,0.054723834726749764
644,6.44,0.0008474580328983407,0.017545772296326916,0.024056007053796808,0.1087317044443074,0.09149675202578177,0.026289096437757082
645,6.45,0.002684754761349848,0.020290090780987126,0.018196154889185197,0.11356257266405287,0.10419952678942568,0.008312688898724436
646,6.46,0.004921898611126794,0.020856647646699242,0.011139855536177617,0.1283221286871621,0.11852057286535295,0.0011606749686247902
647,6.47,0.007560642556399252,0.017755184251200585,0.004122021169716784,0.15182672191424834,0.13675195487269476,0.011306109339210665
648,6.48,0.009676967391488416,0.01289820864760943,-0.002435460627817224,0.18409035560744766,0.15889993435817873,0.03877669008622375
649,6.49,0.009087909529566365,0.0076503824637514165,-0.008000859144647555,0.21653349113930995,0.17794216111186767,0.06558111385641474
650,6.5,0.006614351041816137,0.004053354125457598,-0.012778082024675735,0.24906930351130074,0.19538088702374284,0.0920416006279584
651,6.51,0.005049265575634607,3.2751225748970866e-05,-0.015836905801977517,0.2647000719902685,0.21214899096618425,0.12198642166701892
652,6.52,0.0028460724399094603,-0.0027098449856911445,-0.01810491854784537,0.2706639826127732,0.2285336112989431,0.15392369917656454
653,6.53,-0.006599822384037987,0.0041142989296086025,-0.02128547741573436,0.26673194472028505,0.23664338673868415,0.17374694365163829
654,6.54,-0.014511503439843556,0.009061536701735928,-0.023430733141138298,0.25799380733358923,0.2407343732978317,0.18768684627710747
655,6.55,-0.016972843407064814,0.007042887693275508,-0.02367030590511423,0.2492556699468934,0.2448253598569792,0.20162674890257665
656,6.56,-0.015850906649051394,0.0004745342771974269,-0.022369255087927125,0.2405175325601976,0.2489163464161267,0.21556665152804574
657,6.57,-0.01261069167302229,-0.008678245248914997,-0.019876088962441668,0.23177939517350174,0.25300733297527417,0.2295065541535149
658,6.58,0.015317968987547954,-0.036978341599854136,-0.014618960898804271,0.19598453483906825,0.2605029516530307,0.26400274329910217
659,6.59,0.03110341717822913,-0.05566995629267542,-0.009775490143710956,0.1525271327946826,0.2689627719329649,0.3043205318736513
660,6.6,0.023368712986249623,-0.054308801879922486,-0.007190549615567433,0.12241245246275867,0.2754122310146436,0.33724551898729355
661,6.61,-9.447095003852629e-05,-0.03858764624257513,-0.0063997115231013615,0.11564111506632935,0.27834452531642145,0.3572366607075481
662,6.62,-0.016965900576453957,-0.028797018323068243,-0.0034586635790200123,0.10555326251961657,0.27736440771049164,0.3724752990390048
663,6.63,-0.02775563864839878,-0.023522830308494395,0.0006222633160939796,0.09211422277038572,0.2724309764237941,0.382911749587571
664,6.64,-0.031528131095583396,-0.021848844854237378,0.005565705067895451,0.06824322591533613,0.2692491820593826,0.39224001214185655
665,6.65,-0.030523919171909105,-0.02232699609342206,0.010454474948133525,0.03390683619451332,0.2678246388381619,0.4004565348172644
666,6.66,-0.02836617390266562,-0.020720204881046873,0.014253857162812668,0.0005134956967797269,0.26457989053287245,0.4021405848818005
667,6.67,-0.02422305455079213,-0.020474833379059955,0.016854389702293367,-0.032399638329673595,0.2604082825907513,0.4004982596687814
668,6.68,-0.018882701398622515,-0.019537862243721477,0.018292698606419945,-0.0609125289485787,0.2538043933923537,0.3977508694647599
669,6.69,-0.012385839910676457,-0.02007331981909794,0.018805126562908073,-0.0872384722451694,0.24599164584502844,0.3944542553430546
670,6.7,-0.005793495351342383,-0.020768088030532535,0.01824011645232238,-0.10782605295139196,0.236316728023325,0.3961192598985527
671,6.71,0.0008697075993659674,-0.021789057316554984,0.017207829651272263,-0.1255202835669235,0.225702881988668,0.4002859711035672
672,6.72,0.006369610365094607,-0.021360293282735827,0.015564671284139821,-0.13608042539412046,0.21134409199640813,0.4047184708418568
673,6.73,0.011279247969499234,-0.019904703370137927,0.013866363811779758,-0.14257338612688458,0.19485028999126466,0.4093024980042822
674,6.74,0.013731339750188401,-0.0170179095304065,0.011771539990838156,-0.14726833269046066,0.1818235119873724,0.4077936618554372
675,6.75,0.01602694121386706,-0.012804279518770417,0.009978103409356771,-0.15113683835215774,0.17039032011396327,0.40348429635800215
676,6.76,0.018865727161974592,-0.006068166340311036,0.008282979014721347,-0.1576053461081643,0.15629390614628225,0.4019207439712006
677,6.77,0.021314366242854443,0.0025007977134760516,0.006658997338670208,-0.16686916634614166,0.1393342106533008,0.4033092683069955
678,6.78,0.021303289601933943,0.011719520337722403,0.004788669013072748,-0.17245448316017048,0.12585576588170774,0.4018412963530936
679,6.79,0.020532395676391157,0.020763933543692433,0.003292787882336531,-0.176098835900518,0.114214204701877,0.3988660927791776
680,6.8,0.018606442440519615,0.029829016404827827,0.002190879582489659,-0.1751430357400883,0.10117204462842837,0.3897214135877383
681,6.81,0.01663970324641218,0.03817339391563324,0.0013499433108049982,-0.1718521361047729,0.08741892172144862,0.3774450256062793
682,6.82,0.014371759904918903,0.044888856086008566,0.0007321626964736628,-0.16373617147216002,0.0759447241020402,0.3707759142616306
683,6.83,0.012156518428452792,0.050679451785634766,-2.303931382401439e-05,-0.15304032248555935,0.06568903104093414,0.3671049232059086
684,6.84,0.009121261698724426,0.0547961956030491,-0.0007884709669465128,-0.13767792704495846,0.05420260561929047,0.3604234594179856
685,6.85,0.006254290700438729,0.05828130044531715,-0.001964410251186716,-0.12009011755916968,0.04212926027560042,0.35230634115475945
686,6.86,0.002868473550392662,0.060839597509802806,-0.0033221273569161115,-0.10441403940288564,0.029884156229183924,0.3424162768368276
687,6.87,-0.00016615178663517607,0.06250752151857168,-0.005056462931783018,-0.0898874490195864,0.017535776933970355,0.33146017369817204
688,6.88,-0.003682549152047755,0.061884065664260454,-0.006799409400530255,-0.07759435955656323,0.0008109002876483997,0.3260811068819908
689,6.89,-0.006260687680872793,0.06027146057354113,-0.008819865519957556,-0.0663369449933402,-0.017943359205323355,0.3232881131146383
690,6.9,-0.008634470140408936,0.05737380770104458,-0.011277000637821489,-0.0533302720002097,-0.034059384444423565,0.3199015023017383
691,6.91,-0.009893949649252554,0.05344206675009451,-0.013575366513197622,-0.039525146353521085,-0.04897118216362376,0.3162439337520563
692,6.92,-0.01190093737130225,0.04684364302924551,-0.01605168723344686,-0.02079662617539385,-0.06952673632042257,0.3086792040872141
693,6.93,-0.012631075968034021,0.03934067338648412,-0.01770919191872082,0.0002477209555450527,-0.09273695550352314,0.29927665521822594
694,6.94,-0.012414317421233086,0.02961685974080626,-0.01882926089635238,0.02330127751078816,-0.10945532928086654,0.2947588362980604
695,6.95,-0.011121436045475821,0.01954292574824526,-0.018866333635579855,0.047594144325323176,-0.12216943624770656,0.2932539914692058
696,6.96,-0.01706800285524175,0.007363354569884104,-0.020086507479120025,0.0797612384227215,-0.14504538831503214,0.2844477369072162
697,6.97,-0.011931310746198128,-0.002172708869389115,-0.017226548191465036,0.09721014909023552,-0.16108059251154894,0.2716512113023632
698,6.98,0.00023946210329933368,-0.009124233142036836,-0.011592871497938147,0.1013062281980934,-0.16805708679327488,0.2593743939374981
699,6.99,0.002945459032506263,-0.019416325309401544,-0.008089369708952812,0.1080841329667274,-0.1776122341603821,0.2496968631112292
700,7.0,0.002675099196080175,-0.02984070819647431,-0.005248123317056705,0.11636207027008838,-0.1886097062767896,0.2414731979974107
701,7.01,0.0018728263581444806,-0.039564337366673884,-0.001884090384994991,0.1210283950171087,-0.19951742273867126,0.23617383274203804
702,7.02,0.0010501465426002322,-0.04845770307135058,0.0014899285697593072,0.1220086710629618,-0.21033353366185628,0.23385903782107836
703,7.03,0.0023292539355869624,-0.05540731704152514,0.005145822134217934,0.12771575875373314,-0.21893137357788808,0.2303305619702407
704,7.04,0.004330901674617781,-0.06088986039391622,0.007955848598462692,0.1358470357752568,-0.22639155256892,0.226179638562325
705,7.05,0.006038016917991567,-0.06625394380950039,0.01027265469407904,0.13920597261300122,-0.2354088958796329,0.23067714541277895
706,7.06,0.007302068525881415,-0.07048839141302007,0.011555698490764252,0.1395558373016058,-0.2454080677284523,0.2406276898971993
707,7.07,0.0067620796775725136,-0.07380877433767916,0.011853736090165028,0.1375253874355596,-0.2536222887244445,0.2529221850973092
708,7.08,0.005385579652204163,-0.07581303647132874,0.01146306462673474,0.13310699380154636,-0.2600458378712863,0.26756814367565884
709,7.09,0.0048538318632373924,-0.07442016367134749,0.01037051039063772,0.12220119900724713,-0.2658461957583207,0.2738983190132851
710,7.1,0.004843807575084784,-0.07122764265001842,0.008931757680962726,0.10717727789197516,-0.2712509591281355,0.2749497324866431
711,7.11,0.00536804610474637,-0.06605655303434621,0.007120936679943887,0.08720103652631128,-0.2741542148472245,0.27920652284847336
712,7.12,0.0057967523356059775,-0.06043274680926626,0.005531032349755882,0.06444998130214258,-0.27565586127098546,0.28525930453601805
713,7.13,0.0053419814391777775,-0.05324117610888984,0.0041486103604367434,0.03960644924549828,-0.2774652991244294,0.2931867294469308
714,7.14,0.004544967971734152,-0.046332804471815134,0.003362393764697596,0.01362676135279757,-0.27944185903327445,0.30213203269498795
715,7.15,0.004216595686146503,-0.03871159329352112,0.002777354821193647,-0.007312004706016855,-0.2799290174497181,0.3060483575976401
716,7.16,0.003663536077057877,-0.03169734006909464,0.002838535673796343,-0.025524478679016048,-0.27961065980478617,0.30724484983582834
717,7.17,0.0017876307444812459,-0.02459764247906312,0.003649047359404487,-0.043389619036022536,-0.2772538139601453,0.3077139124421818
718,7.18,-0.0003992380632121574,-0.017560617865914497,0.0048546672034211905,-0.060991986534416585,-0.2733547638864255,0.30763264316300704
719,7.19,-0.0008476911650720249,-0.009430577070845374,0.00668558027520795,-0.07612907807214958,-0.26977476557886515,0.3116454787708836
720,7.2,-0.001080929235051327,-0.0013945425987083905,0.00830428825616892,-0.08982141232603756,-0.2663817452690778,0.3180576351650655
721,7.21,-0.0020307516946796184,0.005771081611564945,0.009185162453992934,-0.10351374657992554,-0.2629887249592905,0.3244697915592473
722,7.22,-0.0028623055708448886,0.015155941765152156,0.010226983514391868,-0.11961911130778648,-0.257410298965722,0.3261634066472326
723,7.23,-0.003893843030100293,0.02450494868855068,0.010528831025415363,-0.1370514183979624,-0.2506301030766085,0.3252622628148234
724,7.24,-0.004539865199765208,0.03441425164180398,0.01020557869037925,-0.15425301106235711,-0.2422199917044547,0.3295925094780746
725,7.25,-0.005360481556679415,0.043289074319877496,0.008975934911647623,-0.1713271215591761,-0.2329092640919438,0.3368133816302337
726,7.26,-0.006001667888558761,0.05204797711617991,0.006732963496133592,-0.186415164955686,-0.2270112000767576,0.3418914285851482
727,7.27,-0.006822625812287684,0.059260083831414734,0.004009287099067862,-0.20045618580633964,-0.22291223727384454,0.3458398126535496
728,7.28,-0.007051824067450727,0.06596109098329007,0.0007583183646698724,-0.21148436703975465,-0.21647964342295853,0.3476008439967305
729,7.29,-0.007433639241091043,0.07082304978643822,-0.0022555114776339454,-0.22101177048630535,-0.20888460414368146,0.3482722951434534
730,7.3,-0.007862924385649698,0.07450301501354081,-0.0052618432195953085,-0.22532795553092824,-0.2022439970358,0.3486087557163325
731,7.31,-0.008303010811378426,0.07649138008674652,-0.00759714786163964,-0.2265638420293041,-0.19616754514140056,0.34874720674556325
732,7.32,-0.008161248384213936,0.07694010752576957,-0.009496904857764403,-0.22299924772124854,-0.1890620628698992,0.3482591577055523
733,7.33,-0.007836479098111143,0.07594640357672278,-0.010547214906759864,-0.2166213660888847,-0.18135352473108746,0.3474039527962555
734,7.34,-0.0065046910601388105,0.07310707875791216,-0.010677669290461383,-0.20780237277423616,-0.17343221105651285,0.3408206226581014
735,7.35,-0.005248000414403615,0.06936141700743498,-0.010177142927612156,-0.19764099504409696,-0.16539389062420634,0.3310873563277611
736,7.36,-0.004652519626443883,0.0651980038400166,-0.009280492601611139,-0.18747961731395776,-0.15735557019189986,0.3213540899974208
737,7.37,-0.004224380954435753,0.06051447014478627,-0.008257662347683306,-0.17731823958381854,-0.14931724975959332,0.31162082366708044
738,7.38,-0.0036701196666307527,0.055190012613556466,-0.0072832447461561416,-0.16715686185367934,-0.1412789293272868,0.3018875573367401
739,7.39,-0.0007047003348161656,0.047149778624042266,-0.00611467654490554,-0.15650434770442162,-0.13393595083403725,0.29301497061978776
740,7.4,0.0016882843519508259,0.0393377261370718,-0.005064399876030923,-0.14381790956149956,-0.12612326113069974,0.2828624134139778
741,7.41,0.0023546977397734723,0.03257194325291189,-0.004488692866100757,-0.12931424947218112,-0.11744995179406895,0.270928485398957
742,7.42,0.0029512307551268764,0.024821495197643505,-0.0042223989372768885,-0.11335447883703505,-0.11003274167462226,0.2603579569017418
743,7.43,0.003525109144004713,0.016241702007528388,-0.004235115387783301,-0.09592042924112053,-0.1038873035740231,0.2511678395484348
744,7.44,0.004283851041675781,0.005121888948656093,-0.004559014369584131,-0.07657003063540918,-0.10043507198547734,0.2412757602753152
745,7.45,0.0047622328065114305,-0.005699378712956789,-0.005125983809737574,-0.05625165080199192,-0.09834322586569308,0.23102910782295244
746,7.46,0.005220785021556269,-0.01676979420775116,-0.005953521091309902,-0.03317894530026785,-0.09509147485240356,0.22504792720608285
747,7.47,0.005420200009641264,-0.026584681977563602,-0.0066626437395388,-0.008585653673731215,-0.0911993728060242,0.221421594225229
748,7.48,0.005944195572065299,-0.03663879860033636,-0.007045561622518445,0.013330283403564312,-0.08670958160542876,0.21661301490123974
749,7.49,0.006188157358852005,-0.045147145672199164,-0.007044350376578723,0.033727752197878554,-0.08188080951639765,0.2111339216271162
750,7.5,0.005889663106510568,-0.052633931741884604,-0.006805124939708505,0.053808688794885984,-0.07872125311272132,0.2099303937681176
751,7.51,0.005344473275650382,-0.059111855459329295,-0.006233784928837736,0.07357296655638003,-0.07723158021423787,0.21300414189252376
752,7.52,0.004705942841182077,-0.06415963139738104,-0.005478349968040139,0.08984007320597813,-0.07530189551342767,0.21061665006716468
753,7.53,0.004099767345061581,-0.06811772166323776,-0.004418894072703706,0.1026030074001129,-0.07293131810578153,0.2027569848787276
754,7.54,0.0036412214348348,-0.07095955311101988,-0.00279991812142148,0.11301296561887755,-0.06987546547994976,0.19756404198097632
755,7.55,0.0033007846508979312,-0.07294901820509912,-0.0008331586292853327,0.12103390873004148,-0.0661238416833765,0.1950786659716723
756,7.56,0.0032898387328639395,-0.07491122729643276,0.0012042752516759573,0.13242651752001694,-0.06231731130327561,0.1943538509218479
757,7.57,0.003361028178067768,-0.07625781080138991,0.0032483930577103743,0.14718540163600013,-0.0584559621199565,0.1953867821856846
758,7.58,0.003215708278187397,-0.07548897001131372,0.005468135941934691,0.15881248609971535,-0.055933014284475925,0.19996008151345715
759,7.59,0.0027716544186024697,-0.07299324107339594,0.007593868641035293,0.16872488359813748,-0.054142852578468084,0.20647176248935806
760,7.6,0.002361460502920634,-0.07066965183593553,0.009606718089490603,0.17812509925934802,-0.0508398796449424,0.21279328708288556
761,7.61,0.00177069699638128,-0.06726929667445827,0.01123128010583318,0.18717813125909302,-0.04651144406726036,0.21898591372594514
762,7.62,0.0016237433572809227,-0.06264497549883122,0.012876383874119712,0.1940787680941408,-0.04077021081157848,0.2254919581289601
763,7.63,0.001077731447415259,-0.056365470254804706,0.013809929478376917,0.19992214431592994,-0.03433500863980184,0.2321519539338976
764,7.64,-0.0002388216283556613,-0.04894901671681719,0.014470455566005621,0.19691413669037366,-0.03221362465356741,0.2392729667992692
765,7.65,-0.0018241078533098186,-0.04054670233637326,0.014356547979816352,0.1879583424601558,-0.0329909591571665,0.24670376524663126
766,7.66,-0.0028566766570354094,-0.030417218719739406,0.013557766284631078,0.1766021882517808,-0.02940667722324998,0.2556148875451817
767,7.67,-0.0037991521460390516,-0.020088699056540423,0.011944117381465691,0.16406643879686927,-0.023678990940099474,0.2652534769711992
768,7.68,-0.004231190676119454,-0.00973542602039456,0.009600720209113133,0.15143286872528006,-0.017401937644942838,0.2766948493633197
769,7.69,-0.0047106216150296235,-4.96127811090534e-05,0.0069940638161846095,0.13874979906452858,-0.010846891403951777,0.2890484733768418
770,7.7,-0.0054949236244947325,0.010046488200710788,0.004257446683075876,0.12778000987321558,-0.008010829086595998,0.2986677635643254
771,7.71,-0.006230709948733255,0.019034658887157586,0.0018325154488855054,0.1175926146034888,-0.006873093732182185,0.30703838127626193
772,7.72,-0.006057375000233189,0.02713936313927198,-0.0003465305205417892,0.10638159283245976,-0.0017006137075514342,0.31303920780004946
773,7.73,-0.005689875471889249,0.03414615527075475,-0.0019751961389693927,0.09457786012186407,0.005808106441141453,0.3176678530058293
774,7.74,-0.005297577613011573,0.04082135570044104,-0.0032061197035681737,0.0827449438151939,0.011836491864067976,0.3250769546956517
775,7.75,-0.004960269153691197,0.0466444562110377,-0.003851854001581277,0.07089538978873307,0.01702093076646417,0.3340712090771929
776,7.76,-0.004258717980996862,0.05284205290184056,-0.003983014655043738,0.057049435948244985,0.02339145370993537,0.3393099208623021
777,7.77,-0.003600599787130951,0.05792901019787909,-0.003690335441133578,0.04220453336360372,0.030355463566682662,0.34266945266855137
778,7.78,-0.0027928867521753195,0.06234963556743374,-0.003149739202519134,0.031462427938364415,0.034328919668797586,0.3437228203216226
779,7.79,-0.0020877627806752527,0.065416550570532,-0.002487798690789303,0.02271833897365172,0.03684600944430718,0.3436531117513989
780,7.8,-0.0012236694748471257,0.06847705005435645,-0.0016804988052347976,0.008184968347540811,0.04126668433563073,0.3443454541215515
781,7.81,-0.00043229735500022355,0.07024720332548368,-0.001008952778641133,-0.009568273529400659,0.046746091440449326,0.3454616324800178
782,7.82,0.00033611055086294655,0.07119365660918602,-0.0006292895401582639,-0.019248801226686943,0.049787133660651725,0.346332040001825
783,7.83,0.0010328068565806604,0.07064143561577116,-0.0005267941806464341,-0.02455759392888633,0.051507692477176514,0.34706935164738983
784,7.84,0.002057296078217227,0.06917510683019139,-0.0007171973245367847,-0.03183605858930828,0.05345874453847987,0.3483929933766733
785,7.85,0.0029677721501162654,0.06639961259159717,-0.0011013757982221723,-0.04012198544843415,0.05552769096803152,0.35001653549944284
786,7.86,0.0038443954726461458,0.06276893372651021,-0.001832187375522462,-0.044819324292268654,0.05918514630660127,0.35629088398343417
787,7.87,0.004477196149599135,0.058150291953502825,-0.002583748610679548,-0.047780146513775636,0.06361128061123543,0.36481575621634144
788,7.88,0.00429691112322018,0.05309395854154324,-0.003622174984387409,-0.047758716973137126,0.06277752444747463,0.3674846826383493
789,7.89,0.0040985186130488346,0.04734890124072273,-0.004469934743221968,-0.046104479209894036,0.05906393348377861,0.3669474288871968
790,7.9,0.004679075155791397,0.04136198407655001,-0.004949312999568145,-0.04959369712752501,0.0576951381930871,0.36918448605203896
791,7.91,0.005425188919178021,0.034777581654758805,-0.005159124658412018,-0.056234017791751766,0.057762865844137874,0.3731212057180688
792,7.92,0.005592365839479583,0.027260460262765168,-0.00534168205812334,-0.05478867600808555,0.05597040729825136,0.3763687752724613
793,7.93,0.005593212472771118,0.019269127352500345,-0.00539970117952917,-0.048296525585918,0.05301688077204487,0.3791861996459181
794,7.94,0.0061946167480307155,0.012042751987348499,-0.005385345565144429,-0.04247097230558279,0.052946016650336235,0.374790881321463
795,7.95,0.0066651026406642135,0.00455257112359508,-0.0052494885655289475,-0.03701826854150403,0.05448751960252967,0.3663612408299396
796,7.96,0.006580999396517041,-0.0037466719948478534,-0.004969768432135258,-0.03156556477742527,0.0560290225547231,0.3579316003384161
797,7.97,0.003977349647684956,-0.015134262739092665,-0.004122569359363018,-0.025987328899056583,0.055244400708813014,0.35097314891868475
798,7.98,0.0016268703116610987,-0.02581164675128917,-0.003397268649546441,-0.02034072319755131,0.05319287802291018,0.34481596606045145
799,7.99,0.0019929785111721114,-0.03280635416596514,-0.002890525579469976,-0.015589067741589569,0.05140954833918585,0.3388290466637136
800,8.0,0.003288520886558493,-0.03795735054044608,-0.00265239969150192,-0.011560524317328073,0.049842916273746776,0.3329796986662567
801,8.01,0.0035581405141909134,-0.04373510154138335,-0.0026940850865128426,-0.007716987364571883,0.04999786245849182,0.32753248344327424
802,8.02,0.0031222539908960937,-0.049494285044361264,-0.0028662521310326003,-0.004058679024371428,0.051876454027601715,0.32248788384380506
803,8.03,0.0024911304862649023,-0.05400811246812417,-0.0031748374392615,-0.00040037068417097393,0.0537550455967116,0.3174432842443358
804,8.04,0.0034247110923690573,-0.05738954556967924,-0.0028697039581675595,0.006551764184748074,0.05226820737509903,0.31151962406736783
805,8.05,0.0035194528651113673,-0.0601402544588597,-0.0025911606906417533,0.015004579844771812,0.049248065624380014,0.3051954603085117
806,8.06,0.0009280820413446224,-0.06360061531562422,-0.00302233884925118,0.0211283414349178,0.04856223278138662,0.301966454562642
807,8.07,-0.002342807455596039,-0.06625508208797871,-0.003325159339198574,0.026002951426055763,0.04912836988721335,0.3003974882426957
808,8.08,-0.005172682644264337,-0.06824108181241714,-0.003207188227655732,0.030571041282874325,0.04812516443547867,0.2992050124352684
809,8.09,-0.007464168827372841,-0.06867731989908181,-0.002577429522368374,0.03498108605073341,0.04631278902605622,0.29820665919886097
810,8.1,-0.009253519159485362,-0.06767410328630764,-0.0015695912677409808,0.03799194866917402,0.043916961663484834,0.3027859171595311
811,8.11,-0.010501603676595684,-0.06518009935620159,-0.00020833171731689248,0.04027525358383585,0.041217746379995,0.3102654651194719
812,8.12,-0.011484129180801661,-0.06154197589713766,0.0014382780031719743,0.0382529959946893,0.03857219225473399,0.3149570327730366
813,8.13,-0.011918919222167947,-0.05683880646729611,0.0031871201108991227,0.034209243592953804,0.03595183245725271,0.3183396221637252
814,8.14,-0.011597116436749173,-0.051092600078690584,0.00506331973617722,0.027722233379341404,0.03496517941526338,0.3228884560491737
815,8.15,-0.01085960656057002,-0.04475945321293678,0.006754247163301665,0.01997095774258785,0.03482388904948459,0.3280407639448092
816,8.16,-0.009919370172747681,-0.03811165533136176,0.00808560426427113,0.012219682105834292,0.034682598683705795,0.3331930718404446
817,8.17,-0.008822747493715909,-0.031225316789457065,0.009073487541725708,0.004468406469080735,0.034541308317927004,0.33834537973608003
818,8.18,-0.007609121144674606,-0.024150368228080598,0.009734701963502467,-0.0032828691676728213,0.03440001795214822,0.34349768763171545
819,8.19,-0.00750111127438595,-0.015592423324330182,0.010235986700419902,-0.012482932324755258,0.03150106536211614,0.3508363693325561
820,8.2,-0.0061010363460904556,-0.007621268440423819,0.010435655874909279,-0.022907311963503832,0.030065888967796942,0.3583522303277659
821,8.21,-0.003942309691938549,-0.0004182980948457555,0.010276132270759925,-0.034090965415729736,0.030176319410344783,0.3656971568197078
822,8.22,-0.002121204692458713,0.007029884552668264,0.010074668969903399,-0.04808111051622114,0.02940693926856058,0.3702143750658736
823,8.23,-0.0005285728048371851,0.01434976019396523,0.009662238546458167,-0.06490255353908883,0.02774997199248241,0.3718788912609571
824,8.24,0.00078998025403965,0.02166257071259464,0.00876448301095702,-0.08204215045239774,0.025523961935711152,0.37290395233238666
825,8.25,0.00208472681410539,0.028045796809170735,0.007452947742601657,-0.09936843938202712,0.022964038803249164,0.3735537825172289
826,8.26,0.003091551284719831,0.034602411777337194,0.00534706385063051,-0.11583612617777267,0.017890654522446443,0.3710744539648635
827,8.27,0.00416978583096005,0.03989028556542053,0.0032343360850939414,-0.13185556254441294,0.011505067541672841,0.3669614854629357
828,8.28,0.005267322184354323,0.044719939434850586,0.0009762911658494208,-0.14367189341438685,0.008644772967834486,0.3615914692113643
829,8.29,0.006412050763265633,0.048073783515243815,-0.0007622946282453439,-0.15356703210265552,0.007395849846794602,0.3556468705919316
830,8.3,0.0071704898243575895,0.05086815388741739,-0.002257841196966344,-0.1593614237294294,0.006158668668435258,0.3507096397350927
831,8.31,0.007852561935348782,0.05258450528822772,-0.0031740542933003327,-0.16296707305957728,0.004927754661936083,0.34631008369632543
832,8.32,0.008944205684038219,0.05367670063674851,-0.0032785657652145955,-0.16685109917303015,0.006208433089664634,0.3412347831991757
833,8.33,0.009794945636341486,0.05400874232364094,-0.003073380267038393,-0.17087618014895928,0.008761747551189756,0.3358170797167102
834,8.34,0.010178379086363069,0.05410247518819475,-0.002638598808591375,-0.17407170031816954,0.010200717092183571,0.329596711653599
835,8.35,0.010059884285177585,0.053772361957983315,-0.0023440721051420444,-0.17674790193358025,0.010942088593495186,0.3228738625115469
836,8.36,0.009327042256080234,0.054367490606376155,-0.0021665665567049547,-0.1797389420204452,0.009743198987204285,0.31297948289032296
837,8.37,0.008204528457332872,0.05493023916295889,-0.002220861183726764,-0.1830522105550268,0.006558505924366739,0.2998391297434713
838,8.38,0.006667976506796798,0.05216378401074897,-0.0027381339759544364,-0.18107358028225773,0.00430489267681144,0.2873902955030778
839,8.39,0.005182941435443899,0.048324809293699665,-0.0035949861293540076,-0.17667608266887105,0.0024768655257941573,0.27525754676604425
840,8.4,0.003739474292440847,0.044753825476691586,-0.004793541861814885,-0.16951361966656345,0.0001084517828025338,0.26107726562641786
841,8.41,0.002457119503402566,0.041154374960198185,-0.0060212355962822265,-0.16019187380932826,-0.002681973572977602,0.2452979765463873
842,8.42,0.0015040150069096337,0.036630499452733965,-0.007418403526548303,-0.14633593466261227,-0.0051011132043782175,0.23219829807790004
843,8.43,0.0007442040405875075,0.03163315206768035,-0.008634166062596807,-0.12793672476237258,-0.007148223796635787,0.22178359480676504
844,8.44,-0.0005528390921035172,0.02608910406629167,-0.009356349862079078,-0.10355255977245968,-0.01421177275862575,0.2086181152906102
845,8.45,-0.0019340987186633458,0.02036078714965249,-0.009577595407626269,-0.07310876325585203,-0.026354351995947503,0.1926675371049656
846,8.46,-0.0029052442625439436,0.01313461159791345,-0.009103035440473927,-0.04747552206635007,-0.03234968284998088,0.17609671141169705
847,8.47,-0.0032630791968344284,0.00691050409025756,-0.008124720738641336,-0.02419242118401704,-0.03534184770312822,0.1592228710831171
848,8.48,-0.003615001063422961,0.0008041922138548145,-0.006800457548800548,-0.0038401711395719546,-0.04022266169780892,0.14389303795242933
849,8.49,-0.0035141795684095487,-0.003972020269880774,-0.005351112686835222,0.01514864280080072,-0.04598207804038243,0.12928147923248254
850,8.5,-0.0032337789060135425,-0.008967914009143214,-0.003953229755344532,0.036391838883753636,-0.04895231194219034,0.11315571238013312
851,8.51,-0.002714416086994505,-0.013254765538488651,-0.002643291905021795,0.05893030192281984,-0.05032000660193342,0.09615994938935866
852,8.52,-0.0019308829543968917,-0.01854510197820987,-0.0015302542631320418,0.08321703567171901,-0.05334622446908578,0.0831801473207147
853,8.53,-0.001185443595951501,-0.023102221988807386,-0.0005335948851561802,0.10843237929543224,-0.05725338200956578,0.07233345939062086
854,8.54,-0.0020445529601860945,-0.030129574922403545,0.0002580111127318573,0.13899234173576666,-0.061612711759708415,0.058716126431355965
855,8.55,-0.0032202151422173137,-0.03689402462175942,0.0009416287297094064,0.17394819714482926,-0.06634394841384368,0.042819966970059214
856,8.56,-0.0012515550071733597,-0.037661883125687634,0.0022688287663996973,0.1967625327937088,-0.06737102199363347,0.03413865533181553
857,8.57,0.0017173531604106388,-0.03614198031536938,0.0036896467531328725,0.2072493842523824,-0.06463719803844703,0.03278269704555522
858,8.58,0.0010770467432100594,-0.04098557494485654,0.0040534988925994405,0.22308261422704492,-0.06557909378798189,0.02868897020940437
859,8.59,-0.0007717083261069976,-0.046606600228500966,0.003913925858050839,0.2421236713113009,-0.06872642136034955,0.022952582243319204
860,8.6,-0.0022812852340821704,-0.051003734222462266,0.003697593074439611,0.2554870473582929,-0.07038487809365636,0.017400018578607467
861,8.61,-0.003473386896152412,-0.05377421243940992,0.0034556095583385144,0.26467273031086336,-0.07094780913927372,0.011982714628098485
862,8.62,-0.003970548816299305,-0.054686606058720735,0.0031413431783623913,0.2723575345956916,-0.07183824008869218,0.010884909359847888
863,8.63,-0.004300436897110002,-0.054240570194352355,0.00289460125628431,0.2791991933912383,-0.07291264997829063,0.012213659887331078
864,8.64,-0.0051731215270714725,-0.054457352142261446,0.0027010919123276484,0.2827143703177848,-0.07422163762905418,0.016554886074090114
865,8.65,-0.006066817568474898,-0.05434272601001962,0.0026300478623973397,0.28343216705699825,-0.07572789170341904,0.02342943126150675
866,8.66,-0.006394877998895417,-0.05216767344565645,0.0027653609752010975,0.28414996379621177,-0.07723414577778387,0.030303976448923388
867,8.67,-0.005770571632882832,-0.04931063360834506,0.003029705150500536,0.2814712924681237,-0.07553185723138786,0.039847296545307366
868,8.68,-0.004999510635817063,-0.04574630233984872,0.0033636799453545183,0.27711746300560275,-0.07224709649201391,0.050706872207514735
869,8.69,-0.0044221698096582555,-0.04154852337758155,0.004032466716485553,0.2687822636386744,-0.0701543394716211,0.05961613075874246
870,8.7,-0.003948699261510665,-0.036933273880107746,0.004573417356187382,0.2585562071785025,-0.06862769631186533,0.06759913251095037
871,8.71,-0.0028054364156506664,-0.031113323187523294,0.005220417459006585,0.2455380443534501,-0.06412271455344963,0.07780727697398009
872,8.72,-0.0018249105922120588,-0.02528093020925476,0.0055003194964320335,0.2311527351525059,-0.058159398373196475,0.08910495578684911
873,8.73,-0.0004176474852184823,-0.013405000855034776,0.005560487721135298,0.21897906656054653,-0.05384014520015075,0.0975436841221596
874,8.74,0.0005279861981742225,-0.003361186334044773,0.005219845418392018,0.20798740567782367,-0.050399558814599794,0.10445445104680008
875,8.75,0.0006115248741028715,0.0009671648908780531,0.004433356442525124,0.19699574479510085,-0.04695897242904884,0.11136521797144057
876,8.76,0.00033398516953573655,0.002431610588842569,0.0034402692180753236,0.18600408391237802,-0.043518386043497885,0.11827598489608104
877,8.77,-0.0009576560460739457,-0.00880403431793269,0.005743583801244893,0.15142449557667914,-0.038576342298539186,0.14109839134931335
878,8.78,-0.001505819238371898,-0.01276335246624822,0.006184088770189052,0.11148704078921214,-0.033293250870151406,0.16753503817159998
879,8.79,-0.0002980012953359293,-0.0006601527720270714,0.004048500905946625,0.07825015807215355,-0.02749091450639901,0.1894183669466926
880,8.8,0.0017269670702992107,0.018545652343381652,0.0007990312767174193,0.05172189293929613,-0.021168709739278764,0.20674291041257728
881,8.81,0.003354134803135422,0.03438891300482454,-0.0023557555522218405,0.02393618275313528,-0.015778840498619613,0.21876543891989236
882,8.82,0.004550570660990713,0.04586058527630765,-0.004884419846504272,-0.00462218417711225,-0.010961859377707134,0.2275300615614799
883,8.83,0.00606325340340267,0.05481870831057567,-0.006895568348095093,-0.033478608091889184,-0.002905950555632763,0.2378155628287134
884,8.84,0.007166646279160818,0.06034796069064778,-0.007996188429047622,-0.06251424801577866,0.0070974640339136535,0.249015539554602
885,8.85,0.007495999517363065,0.06461535051178664,-0.008769726686937708,-0.09032238224508482,0.012778047511355915,0.2579556832545173
886,8.86,0.0073206950678993046,0.06600678832484531,-0.008529915275643713,-0.11753571561525793,0.016363957480795218,0.2658008009751012
887,8.87,0.0077992744882316774,0.06674041356853451,-0.007794282167493627,-0.1424976416031618,0.02417016838048915,0.2723560450825153
888,8.88,0.007967179043556738,0.0655514596239846,-0.0062775812217213825,-0.16616879847511395,0.03439594765492315,0.2781717832984266
889,8.89,0.007716868178670136,0.06342897025421071,-0.0043886328884095195,-0.18129279588920166,0.04320298567860578,0.28120190726834066
890,8.9,0.006935949678801779,0.05991772065878911,-0.0020946069093229656,-0.1918164993572706,0.051246421850822635,0.2827327443213581
891,8.91,0.006712115577521291,0.05682535204974182,0.00027017769216461547,-0.2015645795481607,0.06171558919428664,0.2854238756048953
892,8.92,0.006340130578265233,0.05343557069188731,0.0024828920459466918,-0.21068646975546906,0.07414314098415606,0.28905175626991314
893,8.93,0.005619682796887649,0.04908560863259256,0.004476672720751456,-0.22020404699569407,0.08733680213637521,0.28860085969758903
894,8.94,0.0041758448703872065,0.04388125816454515,0.006018439505067752,-0.22991353303447945,0.10090202746700756,0.2861717501081638
895,8.95,0.0025265504631153436,0.0402991668755366,0.006908363390946088,-0.23454408214344255,0.1078816898945186,0.2776824015968461
