,ts,ax,ay,az,wx,wy,wz
0,0.0,0.017093,-0.009654999999999995,-0.019911,0.032303,-0.019058000000000002,-0.010071
1,0.01,0.026662,0.059497,-0.14141099999999998,0.044022000000000006,0.0011750000000000007,-0.006866
2,0.02,0.019445,0.014227000000000004,-0.18251099999999998,0.041885000000000006,0.029938,0.002716
3,0.03,0.025795,-0.0020009999999999997,-0.242389,0.025908999999999998,0.054443,0.008041
4,0.04,0.036499000000000004,-0.0071319999999999995,-0.17693699999999998,0.0014040000000000025,0.06723,0.014435
5,0.05,0.010376,-0.02661,-0.15759,-0.026291000000000002,0.060837,0.015503
6,0.06,-0.018124,-0.067259,-0.064596,-0.042267,0.032074,0.010178
7,0.07,-0.032433,-0.119782,0.028626,-0.045471,-0.004149999999999999,-0.0004730000000000003
8,0.08,-0.042111,-0.08027000000000001,0.089173,-0.03801,-0.039307,-0.007935
9,0.09,-0.030594,-0.074253,0.056604999999999996,-0.01564,-0.059539999999999996,-0.012192
10,0.1,0.014318,-0.058247,-0.020837,0.002472,-0.053146000000000006,-0.011139
11,0.11,0.062688,-0.019868,-0.069088,0.018448,-0.021194,-0.010071
12,0.12,0.11734100000000001,0.019078,-0.0951,0.024841,0.033142000000000005,-0.010071
13,0.13,0.14157,0.055697,-0.11868499999999998,0.011002,0.094925,-0.014328
14,0.14,0.09719,0.018047,-0.088862,-0.00499,0.116226,-0.022841999999999998
15,0.15,0.075907,0.017678,-0.057666999999999996,-0.018829,0.10131799999999999,-0.029236
16,0.16,-0.019827,0.01376,0.030679,-0.041199,0.061904999999999995,-0.034561
17,0.17,-0.072811,0.014096000000000001,0.045359,-0.058242999999999996,0.016097999999999998,-0.037766
18,0.18,-0.11174599999999997,0.066261,0.085539,-0.069962,-0.033981,-0.031372000000000004
19,0.19,-0.113347,0.07461,0.090416,-0.07103,-0.072327,-0.023911
20,0.2,-0.102064,0.067312,0.057426,-0.068893,-0.079788,-0.01326
21,0.21,-0.034822000000000006,0.133214,0.039425999999999996,-0.064636,-0.058472,0.0005800000000000003
22,0.22,-0.014584999999999999,0.09654,0.058830999999999994,-0.058242999999999996,-0.023314999999999995,0.009109
23,0.23,-0.015596,0.05575700000000001,0.071866,-0.050797,0.016097999999999998,0.017624
24,0.24,0.015323,0.033899,0.104344,-0.035873,0.042725,0.020828
25,0.25,-0.0014540000000000006,0.024503,0.132115,-0.024155000000000003,0.059769,0.022964
26,0.26,-0.008698000000000001,0.0016560000000000012,0.205198,-0.016708,0.053375,0.010178
27,0.27,-0.057626,0.0098,0.223786,-0.003922,0.039536,0.004852
28,0.28,-0.073179,-0.011363,0.230106,0.005676,0.008636000000000001,0.004852
29,0.29,-0.066441,-0.020153000000000004,0.21773499999999998,0.01738,-0.01799,0.004852
30,0.3,-0.00826,0.046248000000000004,0.162395,0.031235000000000002,-0.042496,0.009109
31,0.31,0.022940000000000002,0.017234,0.12526500000000002,0.039764,-0.051025,0.0037840000000000005
32,0.32,0.015049000000000002,-0.016988,0.048742,0.042953,-0.032913,0.00592
33,0.33,0.034063,0.005215999999999999,0.029463999999999997,0.040817,-0.011612,0.0037840000000000005
34,0.34,0.0033679999999999995,-0.019619,-0.003582,0.041885000000000006,0.002243000000000001,0.004852
35,0.35,0.000425,-0.021488,-0.043569,0.034424,0.0065,0.006973
36,0.36,0.034033,-0.033349000000000004,-0.071628,0.028045999999999998,-0.003082,0.011245999999999999
37,0.37,-0.0027300000000000002,-0.039642000000000004,-0.05393099999999999,0.020584,-0.013733,0.008041
38,0.38,0.059191999999999995,-0.042448,-0.090145,0.016327,-0.029708999999999996,0.00592
39,0.39,0.055800999999999996,-0.034479,-0.085073,0.015259,-0.036101999999999995,-0.0004729999999999994
40,0.4,0.086617,-0.005507,-0.11196700000000001,0.019516,-0.035033999999999996,-0.007935
41,0.41,0.054590999999999994,-0.016751,-0.14413399999999998,0.021652,-0.025452000000000002,-0.012192
42,0.42,0.027386,-0.0027890000000000002,-0.155316,0.026978,-0.007339,-0.015396
43,0.43,-0.009585,-0.038377999999999995,-0.206325,0.031235000000000002,0.013962000000000002,-0.017516999999999998
44,0.44,-0.025861,-0.005771,-0.249063,0.035492,0.023544,-0.016464
45,0.45,-0.051289999999999995,-0.039991000000000006,-0.261928,0.038696,0.031006,-0.010071
46,0.46,0.014982999999999991,-0.030441000000000003,-0.28459,0.032303,0.044861,-0.006866
47,0.47,0.044225,0.003556,-0.291586,0.015259,0.065094,-0.007935
48,0.48,0.050325,0.012969999999999999,-0.22948400000000002,-0.0060420000000000005,0.08320599999999999,-0.005797999999999999
49,0.49,0.013882,-0.025481,-0.163606,-0.024155000000000003,0.07788099999999999,-0.009003
50,0.5,0.027672,-0.026962,-0.06954099999999999,-0.045471,0.06723,-0.015396
51,0.51,0.027632999999999998,-0.013269999999999999,0.027816000000000004,-0.061447,0.053375,-0.019653
52,0.52,-0.034147000000000004,-0.051362,0.10025,-0.064636,0.027817,-0.022841999999999998
53,0.53,-0.060247,-0.028551999999999998,0.153448,-0.061447,0.006499999999999999,-0.02179
54,0.54,-0.080403,-0.034115,0.15295599999999998,-0.062515,-0.003082,-0.019653
55,0.55,-0.088528,0.039747000000000005,0.156873,-0.059311,-0.005219,-0.01326
56,0.56,-0.07488099999999999,0.046844,0.150383,-0.050797,-0.002014,-0.007935
57,0.57,-0.087647,0.024858,0.11693900000000002,-0.044403,0.0022429999999999998,0.0005800000000000003
58,0.58,-0.039139,0.0024600000000000004,0.090137,-0.040131,0.011826,0.013366999999999999
59,0.59,0.028458000000000008,0.0033289999999999986,0.074335,-0.034805,0.018219,0.015503
60,0.6,0.063583,-0.033711,0.06902,-0.041199,0.026749000000000002,0.010178
61,0.61,0.064677,-0.034914,0.09829600000000001,-0.046524,0.031006,0.004852
62,0.62,0.036548000000000004,-0.029175,0.188776,-0.044403,0.023544,-0.007935
63,0.63,-0.033806,-0.068583,0.190156,-0.035873,0.005447,-0.017516999999999998
64,0.64,-0.103406,-0.013287,0.236344,-0.024155000000000003,-0.006270999999999999,-0.015396
65,0.65,-0.055143,-0.004795000000000001,0.250093,-0.00499,-0.016937,-0.01326
66,0.66,-0.044936000000000004,0.017184000000000005,0.18399000000000001,0.014191000000000004,-0.019058000000000002,-0.004745
67,0.67,-0.0022609999999999987,0.06676,0.10406099999999999,0.028045999999999998,-0.013733,0.003784000000000001
68,0.68,0.030531000000000006,0.070514,0.041886,0.033371,-0.004150000000000001,0.010178
69,0.69,0.028519,0.037619,-0.047691000000000004,0.031235000000000002,0.004379,0.006973
70,0.7,0.024482000000000004,0.026466000000000003,-0.081684,0.022719999999999997,0.009705,0.002716
71,0.71,0.023037000000000002,-0.012739999999999998,-0.123018,0.012054,0.005447,-0.005797999999999999
72,0.72,-0.011562000000000001,-0.004322,-0.11823399999999999,0.001404,0.005447,-0.012192
73,0.73,-0.093009,0.032314999999999997,-0.110626,-0.010315000000000001,0.00010700000000000032,-0.015396
74,0.74,-0.116959,0.019919,-0.112857,-0.017761000000000002,-0.007339,-0.012192
75,0.75,-0.09350800000000001,-0.008319000000000003,-0.042498,-0.027358999999999998,-0.003082,-0.004745
76,0.76,-0.085472,0.010154999999999999,-0.037096999999999984,-0.029480000000000003,-0.007339,0.0037840000000000005
77,0.77,-0.0021169999999999974,0.0262,0.022378,-0.030548000000000002,0.0022429999999999998,0.011245999999999999
78,0.78,0.0079,-0.035429,0.068815,-0.019897,0.004379,0.011245999999999999
79,0.79,0.049171,-0.013959000000000001,0.101512,-0.009247,0.011826,0.008041
80,0.8,0.105573,-0.047007,0.13609000000000002,0.0056760000000000005,0.013962,0.004852
81,0.81,0.095206,-0.039323000000000004,0.115409,0.023773,0.011826,-0.0015410000000000005
82,0.82,0.11551199999999999,-0.077803,0.045969,0.038696,0.005447,-0.009003
83,0.83,0.071774,-0.057487,-0.014231,0.04509,0.0065,-0.012192
84,0.84,0.052834000000000006,-0.019923,-0.073514,0.042953,0.005447,-0.012192
85,0.85,0.06468,0.014367,-0.113304,0.033371,0.0011750000000000005,-0.007935
86,0.86,0.034066,-0.002942,-0.116426,0.014191,0.004379,-0.004745
87,0.87,0.026361000000000002,-0.0009960000000000004,-0.10259700000000001,-0.008179,0.009705,0.002716
88,0.88,0.016406,-0.015989,-0.049408999999999995,-0.028426999999999997,0.0065,0.010178
89,0.89,0.015874,-0.060934,0.008942000000000002,-0.042267,-0.002014,0.014435
90,0.9,0.032516,-0.041332,0.101262,-0.050797,-0.020125999999999998,0.011245999999999999
91,0.91,0.036898,-0.048417,0.161304,-0.039077999999999995,-0.038238999999999995,0.00592
92,0.92,-0.011798,-0.08773099999999999,0.15661,-0.022034,-0.06274400000000001,-0.0026089999999999998
93,0.93,0.014787,-0.049583999999999996,0.11656400000000001,0.004607999999999999,-0.072327,-0.009003
94,0.94,-0.015727,0.013696000000000002,0.055582000000000006,0.024841,-0.058472,-0.009003
95,0.95,0.006032,0.028529000000000002,0.010518000000000001,0.040817,-0.019058000000000002,-0.007935
96,0.96,-0.030398,0.07634099999999999,-0.046094,0.048279,0.019287000000000002,-0.0004730000000000003
97,0.97,-0.053042,0.031608,-0.10746700000000001,0.046143,0.046981999999999996,0.009109
98,0.98,-0.02744,0.049088,-0.11327000000000001,0.028045999999999998,0.057632,0.016571000000000002
99,0.99,-0.0023250000000000037,0.033249,-0.07158300000000001,0.006728999999999999,0.044861,0.015503
100,1.0,-0.022974,-0.015321999999999997,-0.020056000000000004,-0.014572,0.009704999999999998,0.010178
101,1.01,-0.006024,-0.008283,-0.031408,-0.025223,-0.032913,0.0016480000000000002
102,1.02,-0.0007360000000000004,-0.005149,-0.015959000000000004,-0.027358999999999998,-0.068069,-0.005797999999999999
103,1.03,-0.032876999999999997,0.005103,0.018968000000000002,-0.018829,-0.077652,-0.011139
104,1.04,-0.0007269999999999986,0.025542,0.019500999999999998,-0.011382999999999999,-0.052078,-0.010071
105,1.05,0.007585999999999998,-0.004987,0.018146000000000002,0.00354,-0.012664999999999996,-0.007935
106,1.06,-0.010678,0.050328,0.048675,0.016327,0.026749,-0.0026089999999999998
107,1.07,-0.043081,0.0029819999999999985,-0.022754000000000003,0.024841,0.057632,-0.0004729999999999999
108,1.08,-0.057399,0.0015890000000000001,0.011484999999999999,0.030167000000000003,0.06828300000000001,0.0037840000000000005
109,1.09,-0.042208999999999997,-0.006581,-0.036403,0.025908999999999998,0.062958,0.0037840000000000005
110,1.1,-0.060824,-0.01,-0.078831,0.01738,0.029938,-0.0015409999999999998
111,1.11,-0.09803400000000001,-0.0241,-0.058925,-0.0007170000000000006,0.006499999999999999,-0.003677
112,1.12,-0.104645,-0.035093,-0.049263,-0.011382999999999999,-0.007339,-0.005797999999999999
113,1.13,-0.1114,-0.020281,-0.036567,-0.019897,-0.015869,-0.0004729999999999999
114,1.14,-0.11698399999999999,-0.045245999999999995,0.010628999999999996,-0.017761000000000002,-0.007339,0.004852
115,1.15,-0.083828,-0.019837,0.028502,-0.012436,0.002242999999999999,0.008041
116,1.16,-0.036656,-0.012782,0.07691100000000001,-0.0007169999999999998,0.015030000000000002,0.016571000000000002
117,1.17,-0.034456,-0.026404,0.06055599999999999,0.007797,0.026749000000000002,0.020828
118,1.18,0.035994,-0.002215,0.06830900000000001,0.01738,0.025681,0.020828
119,1.19,0.051198,-0.031376999999999995,0.045364999999999996,0.024841,0.012894,0.016571000000000002
120,1.2,0.10700699999999999,-0.007141,-0.041645999999999996,0.024841,0.0054470000000000005,0.012299
121,1.21,0.069812,-0.004683,-0.066842,0.01738,-0.000946,0.00592
122,1.22,0.048335,0.0131,-0.07910299999999999,0.008865000000000001,0.008636,0.006973
123,1.23,0.017785,-0.011165000000000001,-0.092799,-0.00499,0.007568000000000001,0.009109
124,1.24,0.004248,0.010994,-0.074258,-0.013504,0.008636,0.015503
125,1.25,0.0001969999999999999,-0.003283000000000001,-0.065347,-0.024155000000000003,0.0065,0.022964
126,1.26,0.062565,-0.011585999999999999,-0.076008,-0.035873,-0.003082,0.032547
127,1.27,0.044426,-0.011486,-0.035987,-0.046524,-0.014801,0.030411
128,1.28,0.081845,0.007217000000000001,0.009789,-0.059311,-0.016937,0.024017
129,1.29,0.08198899999999999,-0.020457,0.089499,-0.062515,-0.019058000000000002,0.016571000000000002
130,1.3,0.025054,-0.036997,0.17445,-0.057175,-0.02652,0.00592
131,1.31,-0.018436,-0.000392,0.19453499999999999,-0.039077999999999995,-0.030777,0.004852
132,1.32,-0.018747999999999997,-0.016624,0.219847,-0.014572,-0.031845,0.008041
133,1.33,-0.016431,0.0023649999999999986,0.202035,0.0056760000000000005,-0.015869,0.015503
134,1.34,0.01853,0.017087,0.17161600000000002,0.020584,0.00010700000000000032,0.018692
135,1.35,0.028276999999999997,0.0021709999999999998,0.115406,0.034424,0.011826,0.014435
136,1.36,0.010269,0.026749,0.016173999999999994,0.038696,0.009705,0.004852
137,1.37,0.028064999999999996,0.007818000000000002,0.003041999999999998,0.03656,0.0011749999999999998,-0.002609
138,1.38,-0.012283,0.009830000000000002,-0.055977,0.031235000000000002,-0.015869,-0.007935
139,1.39,-0.023652,0.053501,-0.076112,0.022719999999999997,-0.032913,-0.007935
140,1.4,-0.068371,0.012218000000000001,-0.133009,0.009932999999999999,-0.047820999999999995,-0.0026089999999999998
141,1.41,-0.032808,-0.015361000000000001,-0.203988,-0.013503999999999999,-0.055283000000000006,0.011245999999999999
142,1.42,-0.009452000000000002,0.0012889999999999991,-0.201843,-0.040131,-0.060608,0.015503
143,1.43,0.011363000000000002,0.020511,-0.164741,-0.060378999999999995,-0.060608,0.014435
144,1.44,0.014616999999999998,-0.023395,-0.07231199999999999,-0.07421900000000001,-0.052078,0.00592
145,1.45,-0.06673499999999999,-0.037831000000000004,-0.046649,-0.07635499999999999,-0.031845,-0.0026089999999999998
146,1.46,-0.117595,-0.02454,0.020719999999999992,-0.061447,-0.0062710000000000005,-0.003677
147,1.47,-0.146214,-0.019886,0.092931,-0.040131,0.024612000000000002,0.0005799999999999997
148,1.48,-0.129435,-0.01142,0.19617300000000001,-0.009247000000000002,0.043793,0.009109
149,1.49,-0.075151,0.022868,0.181713,0.029099,0.053375,0.013366999999999999
150,1.5,-0.024925,0.019817999999999995,0.107271,0.056808000000000004,0.049118,0.018692
151,1.51,-0.013687000000000001,0.029174000000000002,0.011270000000000002,0.06957999999999999,0.049118,0.018692
152,1.52,0.020974,-0.0039689999999999994,-0.057972,0.059998,0.046981999999999996,0.021896000000000002
153,1.53,0.009267999999999998,-0.010407,-0.06429299999999999,0.041885000000000006,0.033142000000000005,0.024017
154,1.54,0.040855,0.021515,-0.063949,0.014191,0.012894,0.021896000000000002
155,1.55,0.013126,0.005165,-0.058492999999999996,-0.009247,-0.016937,0.020828
156,1.56,0.030548000000000002,-0.018567,-0.0523,-0.027358999999999998,-0.03717,0.017624
157,1.57,0.069404,0.015833,-0.015691999999999998,-0.031616000000000005,-0.048889,0.018692
158,1.58,0.098635,0.028301,-0.008258,-0.030548000000000002,-0.0457,0.015503
159,1.59,0.1026,0.032152999999999994,-0.015688000000000004,-0.019897,-0.02652,0.014435
160,1.6,0.091387,0.040313,0.013137000000000001,-0.002853,0.0054470000000000005,0.013366999999999999
161,1.61,0.10247,0.023608,-0.014112999999999999,0.013123,0.033142000000000005,0.013366999999999999
162,1.62,0.046849,0.028582,-0.007332999999999998,0.018448,0.050186,0.013366999999999999
163,1.63,0.040409,-0.010326,0.022889,0.018448,0.059769,0.009109
164,1.64,0.013425,0.00011699999999999905,0.062453,0.008865000000000001,0.052307000000000006,0.009109
165,1.65,-0.030021,0.010172,0.091783,0.001404,0.034194999999999996,0.00592
166,1.66,-0.022363,-0.012126000000000001,0.12100799999999999,-0.009247,0.001174999999999999,0.011245999999999999
167,1.67,-0.038501,-0.009942,0.085845,-0.011382999999999999,-0.039307,0.013366999999999999
168,1.68,-0.009195000000000002,0.007488999999999998,0.083424,-0.014572,-0.065933,0.016571000000000002
169,1.69,0.029528,0.022197,0.051091000000000004,-0.022034,-0.06274400000000001,0.01976
170,1.7,0.035745,-0.011262000000000001,0.056448000000000005,-0.016708,-0.053146000000000006,0.020828
171,1.71,0.043331,-0.02738,0.042746,-0.0007170000000000006,-0.0457,0.022964
172,1.72,0.080233,-0.050574,0.03978,0.014191000000000004,-0.020126,0.014435
173,1.73,0.104129,0.018485999999999995,-0.031835,0.029099,0.003311,0.006973
174,1.74,0.070556,-0.021293,-0.034841000000000004,0.03656,0.029938,-0.006866
175,1.75,0.057511,0.003102,-0.06260299999999999,0.034424,0.041656,-0.015396
176,1.76,0.03511,0.023367,-0.063817,0.033371,0.043793,-0.022841999999999998
177,1.77,0.0011430000000000017,0.011028,-0.039431,0.028045999999999998,0.02887,-0.024978999999999998
178,1.78,-0.039235,0.017726,-0.060198,0.018448,0.006499999999999999,-0.023911
179,1.79,-0.10201,0.021946,-0.018688999999999997,0.009932999999999999,-0.015869,-0.022841999999999998
180,1.8,-0.106148,0.01563,-0.047318,0.011002,-0.040359,-0.016464
181,1.81,-0.084161,0.004763,-0.03433,0.011002,-0.044632,-0.010071
182,1.82,-0.05596,0.018165,-0.031238,0.009932999999999999,-0.032913,-0.004745
183,1.83,-0.041793000000000004,0.004979000000000001,-0.055459,0.014191,-0.010544,-0.0015410000000000005
184,1.84,-0.03515,0.006324000000000003,-0.090677,0.009932999999999999,0.018219,0.002716
185,1.85,-0.047157,0.018413,-0.112981,0.00354,0.035263,0.010178
186,1.86,-0.0041010000000000005,0.022981,-0.070493,-0.003922,0.026749000000000002,0.012299
187,1.87,0.011999,0.027812,-0.027932,-0.012436,0.013962,0.012299
188,1.88,0.020114,0.026795999999999997,-0.0052190000000000005,-0.022034,-0.007338999999999998,0.015503
189,1.89,0.058244000000000004,0.005014,0.0038829999999999997,-0.024155000000000003,-0.024384,0.017624
190,1.9,0.068134,0.031073000000000003,0.043410999999999984,-0.026291000000000002,-0.038238999999999995,0.014435
191,1.91,0.08402799999999999,-0.0060490000000000006,0.074778,-0.014572,-0.032913,0.004852
192,1.92,0.02824300000000001,-0.040025,0.079914,0.0014040000000000007,-0.012665000000000001,-0.004745
193,1.93,0.008962999999999999,-0.043085000000000005,0.101538,0.021652,0.007567999999999998,-0.010071
194,1.94,-0.016772,-0.063073,0.055274000000000004,0.041885000000000006,0.023544,-0.011139
195,1.95,-0.048132999999999995,-0.008846,0.017851,0.052536,0.041656,-0.009003
196,1.96,-0.050475,0.012586,-0.0024929999999999987,0.052536,0.053375,-0.005797999999999999
197,1.97,-0.048469,0.010512,-0.021091,0.040817,0.04805,-0.003677
198,1.98,0.002026,0.010957999999999999,-0.06496,0.021652,0.027817,0.00058
199,1.99,0.0036380000000000006,0.0006089999999999983,-0.051436,0.00354,0.00010699999999999946,0.00058
200,2.0,0.020353,0.005252000000000002,-0.049859,-0.013503999999999999,-0.024384,-0.003677
201,2.01,0.030597000000000003,0.018172999999999998,-0.058540999999999996,-0.027358999999999998,-0.033981,-0.0026089999999999998
202,2.02,0.011659,-0.034723000000000004,-0.011761000000000002,-0.03801,-0.040359,-0.0026089999999999998
203,2.03,-0.00044699999999999954,-0.026362,0.037364999999999995,-0.036942,-0.044632,-0.007935
204,2.04,-0.039263,-0.005694000000000001,0.07716,-0.025223,-0.03717,-0.007935
205,2.05,0.0008879999999999998,-0.016487,0.077154,-0.010315000000000001,-0.01799,-0.011139
206,2.06,-0.0032600000000000003,2.1000000000000185e-05,0.10525899999999999,0.009932999999999999,0.0022429999999999998,-0.011139
207,2.07,-0.014952000000000002,0.048905000000000004,0.092514,0.032303,0.020355,-0.014328
208,2.08,-0.011515,0.064275,0.022138,0.05146799999999999,0.033142000000000005,-0.01326
209,2.09,-0.063815,0.082385,-0.046474,0.056808000000000004,0.033142000000000005,-0.014328
210,2.1,-0.07738400000000001,0.045979,-0.09748,0.053604,0.025681,-0.010071
211,2.11,-0.106503,0.036821,-0.156643,0.040817,0.012894,-0.006866
212,2.12,-0.08872000000000001,0.046889,-0.150949,0.021652,0.0011749999999999998,-0.003677
213,2.13,-0.125682,0.028464999999999997,-0.154828,0.005676,-0.010544,0.0005800000000000001
214,2.14,-0.098205,-0.005368,-0.11443099999999999,-0.0060420000000000005,-0.013733,0.00592
215,2.15,-0.085051,0.02093,-0.078063,-0.014572,-0.008408,0.010178
216,2.16,-0.08504,0.031034,-0.035987,-0.014572,0.007568000000000001,0.014435
217,2.17,-0.087127,0.042532,0.013193999999999999,-0.013503999999999999,0.023544,0.01976
218,2.18,-0.054648,0.052875000000000005,0.058771000000000004,-0.009247,0.031006,0.02829
219,2.19,-0.077208,-0.0019029999999999984,0.092809,-0.007111,0.031006,0.04213
220,2.2,-0.072728,-0.05193300000000001,0.078706,-0.0017850000000000001,0.023544,0.049591
221,2.21,-0.022885,-0.07568,0.03383,-0.007110999999999998,0.0022429999999999998,0.055984000000000006
222,2.22,0.046435,-0.090326,-0.002029000000000003,-0.013503999999999999,-0.020125999999999998,0.054916
223,2.23,0.11704500000000001,-0.11605599999999999,-0.004267,-0.019897,-0.030777,0.040008999999999996
224,2.24,0.12584700000000001,-0.10285,0.003256,-0.020966,-0.031845,0.02829
225,2.25,0.095955,-0.082625,-0.028132,-0.017761000000000002,-0.033981,0.016571000000000002
226,2.26,0.10307100000000001,-0.062806,-0.04767,-0.0049900000000000005,-0.020126,0.011245999999999999
227,2.27,0.094961,-0.045152,-0.022512,0.002472,0.013962000000000002,0.011245999999999999
228,2.28,0.087399,-0.029392,-0.020972,0.008865000000000001,0.050186,0.015503
229,2.29,0.099098,-0.010767,-0.013875,0.014191,0.074677,0.020828
230,2.3,0.07071000000000001,-0.02277,-0.003529000000000001,0.015259,0.080002,0.020828
231,2.31,0.053116,-0.07799400000000001,0.007647,0.005676,0.06723,0.016571000000000002
232,2.32,0.042906,-0.049175,0.030869999999999998,-0.008179,0.044861,0.011245999999999999
233,2.33,0.045506,-0.061859000000000004,0.083887,-0.019897,0.012894,0.006973
234,2.34,0.032476,-0.078558,0.086248,-0.019897,-0.035033999999999996,-0.0004730000000000003
235,2.35,0.025887,-0.024498,0.101437,-0.018829,-0.061676,-0.0015409999999999998
236,2.36,0.034617,0.011035,0.024958,-0.011382999999999999,-0.063797,0.00058
237,2.37,0.071072,0.003299000000000001,0.003212,-0.008179,-0.044632,0.004852
238,2.38,0.063145,0.053275,-0.024181,-0.007111,-0.006270999999999999,0.008041
239,2.39,0.11902599999999999,0.042782,-0.025639999999999996,-0.010315000000000001,0.029938,0.008041
240,2.4,0.057896,0.041578,0.018615,-0.008179,0.038467,0.003784
241,2.41,0.031157,0.01157,0.050068,-0.011382999999999999,0.035263,-0.003677
242,2.42,0.028057,0.016946,0.06789400000000001,-0.012436,0.023544,-0.0026089999999999998
243,2.43,-0.0243,0.026009,0.095992,-0.008179,-0.003082,-0.009003
244,2.44,-0.003892,0.012868,0.07957,0.001404,-0.027587999999999998,-0.010071
245,2.45,0.024867,0.054113,0.043233999999999995,0.009932999999999999,-0.039307,-0.007935
246,2.46,0.003963,0.049998,0.014107,0.022719999999999997,-0.038238999999999995,-0.009003
247,2.47,-0.006103,0.012897,-0.037898,0.029099,-0.021194,-0.005797999999999999
248,2.48,0.0091,0.039464,-0.074767,0.031235000000000002,0.003311,-0.007935
249,2.49,-0.010699,0.053488000000000015,-0.079542,0.032303,0.020355,-0.007935
250,2.5,-0.002542,0.022795000000000003,-0.086867,0.030167000000000003,0.023544,-0.006866
251,2.51,-0.003106000000000001,0.030208,-0.078637,0.026978,0.021422999999999998,-0.010071
252,2.52,-0.029718,0.023464,-0.098347,0.019516,0.007568000000000001,-0.01326
253,2.53,-0.020847,0.028782,-0.118848,0.008865000000000001,-0.003081999999999999,-0.012192
254,2.54,-0.028576999999999998,0.066482,-0.150703,-0.011382999999999999,-0.010544,-0.010071
255,2.55,-0.009659999999999998,0.06933500000000001,-0.126107,-0.025223,-0.023315,-0.0026089999999999998
256,2.56,-0.0427,0.028913,-0.129821,-0.032684,-0.027587999999999998,-0.0004730000000000001
257,2.57,-0.007571999999999999,0.041842000000000004,-0.095903,-0.045471,-0.022262999999999998,-0.0004729999999999999
258,2.58,-0.040809,0.014818000000000001,-0.030777999999999993,-0.049727999999999994,-0.011612,-0.0004730000000000001
259,2.59,-0.053499,0.016684,0.041641000000000004,-0.049727999999999994,0.009705,-0.001541
260,2.6,-0.062835,-0.019749000000000003,0.088479,-0.040131,0.007568000000000001,-0.003677
261,2.61,-0.089604,-0.027479000000000003,0.117704,-0.024155000000000003,-0.007339000000000002,-0.004745
262,2.62,-0.052549000000000005,-0.035227999999999995,0.083663,-0.010315000000000001,-0.025452000000000002,-0.003677
263,2.63,-0.053127999999999995,-0.008348999999999999,0.020313000000000005,-0.00499,-0.038238999999999995,-0.0026089999999999998
264,2.64,-0.030913999999999997,-0.016262000000000002,-0.019081,-0.002853,-0.048889,-0.004745
265,2.65,0.024391999999999997,0.048397,-0.057711,-0.007111,-0.03717,-0.003677
266,2.66,0.039389,0.073212,-0.045734,-0.013503999999999999,-0.013733,-0.0026089999999999998
267,2.67,0.050076999999999997,0.061903999999999994,-0.01101,-0.016708,0.003311000000000001,-0.0026089999999999998
268,2.68,0.037506,0.030226999999999997,-0.023888,-0.016708,0.023544,-0.00047300000000000006
269,2.69,0.00038099999999999934,0.011021,0.052384,-0.013503999999999999,0.032074,0.0016480000000000002
270,2.7,0.002971999999999999,-0.013041,0.101219,-0.007111,0.034194999999999996,0.008041
271,2.71,0.017705,-0.034432,0.127365,0.006729000000000001,0.023544,0.011245999999999999
272,2.72,0.043164999999999995,-0.009534000000000004,0.076663,0.020584,0.00010699999999999946,0.00592
273,2.73,0.03329,-0.027094,0.05864199999999999,0.026978,-0.019058000000000002,0.0016480000000000002
274,2.74,0.08605299999999999,-0.002357999999999999,0.0042309999999999995,0.020584,-0.027587999999999998,-0.004745
275,2.75,0.070109,0.090532,-0.027924,0.008864999999999998,-0.029708999999999996,-0.011139
276,2.76,0.027811000000000002,0.037658,-0.04626,-0.003922,-0.021194,-0.009003
277,2.77,-0.009161,0.013172999999999999,-0.046236,-0.017761000000000002,-0.012665000000000001,-0.005797999999999999
278,2.78,-0.015178999999999996,0.011403,-0.013890999999999999,-0.024155000000000003,-0.0009459999999999998,-0.0015410000000000005
279,2.79,-0.044663999999999995,-0.012329999999999999,0.046682,-0.025223,0.003311,0.00592
280,2.8,-0.047490999999999985,-0.05334,0.053158000000000004,-0.018829,-0.008408,0.006973
281,2.81,-0.085469,-0.040945,0.10996900000000001,-0.009247,-0.01799,0.002716
282,2.82,-0.051522000000000005,-0.036389000000000005,0.101438,0.002472,-0.021194,-0.003677
283,2.83,-0.028408999999999997,0.025135,0.093908,0.011002,-0.029708999999999996,-0.007935
284,2.84,-0.017044,0.030499000000000002,0.055260000000000004,0.020584,-0.025452000000000002,-0.005797999999999999
285,2.85,-0.044632,0.052748,0.008539999999999999,0.022719999999999997,-0.010543999999999998,-0.004745
286,2.86,0.004104,0.05758200000000001,0.017406,0.016327,0.003311000000000001,-0.0015410000000000005
287,2.87,-0.011341,0.051458000000000004,0.018595,0.013123,0.017151,-0.004745
288,2.88,-0.008823000000000001,0.010092000000000005,0.057977999999999995,0.011002,0.016097999999999998,-0.007935
289,2.89,-0.06380599999999999,0.007983999999999998,0.11110899999999999,0.014191,0.009705,-0.015396
290,2.9,-0.098554,-0.011378999999999995,0.143648,0.018448,0.010773,-0.017516999999999998
291,2.91,-0.11514,0.022904,0.128031,0.033371,0.016097999999999998,-0.014328
292,2.92,-0.097756,0.078329,0.086911,0.04509,0.027817,-0.007935
293,2.93,-0.114749,0.110857,0.092401,0.05146799999999999,0.053375,0.0005799999999999997
294,2.94,-0.075162,0.11144200000000001,0.065084,0.050414999999999995,0.074677,0.015503
295,2.95,-0.11959600000000001,0.10772000000000001,0.086645,0.033371,0.088531,0.030411
296,2.96,-0.07649199999999999,0.099988,0.095638,0.007797,0.078949,0.044266
297,2.97,-0.051775,0.048418,0.152701,-0.024155,0.044861,0.054916
298,2.98,0.097777,-0.000219999999999998,0.081554,-0.050797,0.003311000000000001,0.053848
299,2.99,0.10273299999999999,0.075375,0.188378,-0.073166,-0.036101999999999995,0.052779999999999994
300,3.0,0.102072,-0.01976,0.24393,-0.066772,-0.089371,0.048523000000000004
301,3.01,0.11719700000000001,-0.023728,0.215549,-0.033752,-0.15329,0.034668
302,3.02,0.158931,0.155552,0.160456,0.008864999999999998,-0.174591,0.024017
303,3.03,0.235963,0.202078,-0.014870999999999997,0.050414999999999995,-0.13836700000000002,0.013366999999999999
304,3.04,0.230852,0.272733,-0.21556999999999998,0.084503,-0.067001,0.008041
305,3.05,0.281421,0.371086,-0.341179,0.099411,0.018219000000000003,0.00592
306,3.06,0.290975,0.39157600000000004,-0.49272299999999997,0.08876,0.08107,0.008041
307,3.07,0.257845,0.413537,-0.574643,0.057861,0.10771199999999999,0.009109
308,3.08,0.22670500000000002,0.360912,-0.638111,0.008864999999999998,0.084274,0.013366999999999999
309,3.09,0.22949499999999998,0.258432,-0.6371760000000001,-0.04866,0.036331,0.017624
310,3.1,0.19162200000000001,0.23401599999999997,-0.51826,-0.10298199999999999,-0.019058000000000002,0.014435
311,3.11,0.181845,0.165632,-0.437517,-0.145599,-0.063797,0.012299
312,3.12,0.22785,0.17183800000000002,-0.255765,-0.161575,-0.09256,0.026154000000000004
313,3.13,0.207283,0.194149,-0.17059000000000002,-0.143463,-0.085114,0.041061
314,3.14,0.16443,0.212589,-0.11698599999999999,-0.110443,-0.06486499999999999,0.053848
315,3.15,0.197223,0.159217,-0.11528499999999998,-0.060378999999999995,-0.048889,0.07728600000000001
316,3.16,0.289549,0.210123,-0.165029,0.00033600000000000296,-0.039307,0.09433
317,3.17,0.370014,0.245946,-0.257448,0.05146799999999999,-0.022262999999999998,0.10285899999999999
318,3.18,0.45736499999999997,0.259709,-0.34259,0.08982799999999999,0.006500000000000002,0.11244200000000001
319,3.19,0.513664,0.321009,-0.47971199999999997,0.126038,0.023544,0.110306
320,3.2,0.527988,0.345379,-0.5396479999999999,0.146286,0.051239,0.106049
321,3.21,0.547221,0.355572,-0.63737,0.146286,0.090668,0.110306
322,3.22,0.46229,0.37446599999999997,-0.6867979999999999,0.138824,0.131134,0.115631
323,3.23,0.447945,0.37411,-0.733784,0.10794100000000001,0.163101,0.128418
324,3.24,0.41265,0.363526,-0.719681,0.06318700000000001,0.179077,0.15078699999999998
325,3.25,0.397149,0.305317,-0.668329,0.017379999999999996,0.17482,0.165695
326,3.26,0.410062,0.202147,-0.621607,-0.016708,0.163101,0.171036
327,3.27,0.42678,0.182501,-0.54425,-0.034805,0.15351900000000002,0.1689
328,3.28,0.409789,0.086267,-0.500418,-0.036942,0.146057,0.14971900000000002
329,3.29,0.282116,0.062598,-0.568438,-0.039077999999999995,0.119431,0.13588
330,3.3,0.15375,-0.012831000000000002,-0.6023649999999999,-0.042267,0.082138,0.12309300000000001
331,3.31,0.112451,0.042352999999999995,-0.672826,-0.044403,0.06828300000000001,0.12309300000000001
332,3.32,0.055495,0.029118,-0.76137,-0.050797,0.06723,0.133743
333,3.33,-0.008849,-0.00013500000000000315,-0.763256,-0.064636,0.076813,0.132675
334,3.34,-0.105163,-0.181427,-0.657871,-0.084885,0.10983299999999999,0.14546199999999998
335,3.35,-0.23687600000000003,-0.24623,-0.5935630000000001,-0.07849099999999999,0.12262,0.16037
336,3.36,-0.183645,-0.375598,-0.47827200000000003,-0.052917,0.103439,0.164642
337,3.37,-0.108981,-0.30832600000000004,-0.404123,-0.022034,0.084274,0.15931700000000001
338,3.38,0.017237000000000006,-0.250408,-0.470192,0.029099,0.031006,0.143326
339,3.39,0.058298,-0.31000500000000003,-0.538538,0.08769199999999999,-0.012665000000000001,0.11776700000000001
340,3.4,0.14368399999999998,-0.18,-0.644964,0.133499,-0.011612,0.098587
341,3.41,0.22159,-0.039396,-0.639994,0.176117,0.007568000000000001,0.08367899999999999
342,3.42,0.405037,0.25213100000000005,-0.493453,0.23896799999999999,0.094925,0.080475
343,3.43,0.48396000000000006,0.5366479999999999,-0.778245,0.316727,0.10450699999999999,0.065567
344,3.44,0.430526,0.399308,-0.694508,0.351883,0.125809,0.025085
345,3.45,0.413242,0.520734,-0.7768729999999999,0.373184,0.211029,-0.017516999999999998
346,3.46,0.262734,0.616552,-0.927967,0.391296,0.267502,-0.051605
347,3.47,0.048132000000000015,0.5735819999999999,-1.056566,0.372116,0.294128,-0.091019
348,3.48,-0.195972,0.612596,-1.1197290000000002,0.322052,0.30052199999999996,-0.129379
349,3.49,-0.34123400000000004,0.75902,-1.098581,0.269852,0.33567800000000003,-0.15493800000000002
350,3.5,-0.559227,0.865792,-1.084462,0.21020500000000003,0.398529,-0.15493800000000002
351,3.51,-0.744378,0.905593,-1.075674,0.131363,0.462433,-0.14003
352,3.52,-0.8731469999999999,0.906719,-1.098601,0.044022000000000006,0.47522,-0.111267
353,3.53,-0.9910770000000001,0.9062399999999999,-1.029603,-0.050797,0.429413,-0.073975
354,3.54,-1.033319,0.8175399999999999,-0.9914639999999999,-0.143463,0.32608000000000004,-0.033507999999999996
355,3.55,-0.9915799999999999,0.772127,-0.9595790000000001,-0.22442600000000001,0.15457200000000001,0.004852
356,3.56,-0.901241,0.738015,-0.925817,-0.27876300000000004,-0.057404,0.034668
357,3.57,-0.8026399999999999,0.64284,-0.9777680000000001,-0.317108,-0.24063099999999998,0.053848
358,3.58,-0.592079,0.725214,-1.0880459999999998,-0.33628800000000003,-0.370605,0.049591
359,3.59,-0.403926,0.855284,-1.160291,-0.327759,-0.441971,0.027222000000000003
360,3.6,-0.364588,0.934241,-1.253396,-0.28302,-0.418533,0.008041
361,3.61,-0.380083,1.020846,-1.1654959999999999,-0.25,-0.342896,-0.011139
362,3.62,-0.419868,1.041883,-1.1035780000000002,-0.185013,-0.235306,-0.022841999999999998
363,3.63,-0.621189,1.097275,-0.89107,-0.092331,-0.154343,-0.022841999999999998
364,3.64,-0.831404,1.192843,-0.725533,0.00033600000000000296,-0.090439,-0.014328
365,3.65,-1.035535,1.1821190000000001,-0.743096,0.09515400000000003,-0.095764,0.0005800000000000008
366,3.66,-1.250512,1.27871,-0.731755,0.173981,-0.14369200000000001,0.048523000000000004
367,3.67,-1.36729,1.28459,-0.878592,0.22724899999999998,-0.19270299999999999,0.11456300000000001
368,3.68,-1.308818,1.377429,-0.9693209999999999,0.26345799999999997,-0.259811,0.191269
369,3.69,-1.2863209999999998,1.3991149999999999,-1.073908,0.267731,-0.294968,0.257309
370,3.7,-1.28902,1.319984,-1.1858540000000002,0.25387600000000005,-0.307755,0.314835
371,3.71,-1.1671129999999998,1.187608,-1.212708,0.220856,-0.321594,0.367035
372,3.72,-0.9346,1.1490690000000001,-1.261727,0.18249500000000002,-0.33757,0.378754
373,3.73,-0.806768,1.1039459999999999,-1.276437,0.13989300000000002,-0.35675,0.343597
374,3.74,-0.6831520000000001,0.997859,-1.2557770000000001,0.096222,-0.380188,0.296738
375,3.75,-0.637663,0.961217,-1.2298120000000001,0.06425499999999999,-0.404694,0.241333
376,3.76,-0.5623229999999999,0.9549540000000001,-1.136723,0.052536,-0.421738,0.189133
377,3.77,-0.590044,0.928858,-1.116062,0.056808000000000004,-0.417465,0.138
378,3.78,-0.498175,0.90446,-1.051714,0.077042,-0.386581,0.093262
379,3.79,-0.41918599999999995,0.9770209999999999,-1.023571,0.101547,-0.329056,0.049591
380,3.8,-0.258226,1.013024,-0.9894290000000001,0.122849,-0.226791,0.002716
381,3.81,-0.27775,0.9000870000000001,-1.0587520000000001,0.136703,-0.11492899999999999,-0.047348
382,3.82,-0.184868,1.2419149999999999,-0.8640030000000001,0.11538699999999999,-0.0009460000000000024,-0.104874
383,3.83,-0.193144,1.40586,-0.680322,0.05574,0.173752,-0.177307
384,3.84,-0.465081,1.200312,-0.44938999999999996,-0.018829,0.33779899999999996,-0.24015799999999998
385,3.85,-0.543004,1.117977,-0.124945,-0.094467,0.45178199999999996,-0.281708
386,3.86,-0.576896,1.208695,0.3967540000000001,-0.145599,0.491196,-0.309402
387,3.87,-0.572473,1.1829100000000001,0.917264,-0.143463,0.4422,-0.34137
388,3.88,-0.597191,1.10018,1.348307,-0.07421900000000001,0.33461,-0.360535
389,3.89,-0.5998979999999999,1.07802,1.55409,0.052536,0.20784,-0.356277
390,3.9,-0.5262180000000001,1.087385,1.503328,0.199554,0.08320599999999999,-0.333908
391,3.91,-0.25049699999999997,1.274075,1.127952,0.33696,-0.055283000000000006,-0.305145
392,3.92,0.02621100000000001,1.502759,0.666452,0.41685500000000003,-0.12239100000000001,-0.301956
393,3.93,0.237675,1.557022,0.120425,0.41259799999999996,-0.09149199999999999,-0.328583
394,3.94,0.24007199999999998,1.51284,-0.236656,0.352951,-0.020126,-0.361603
395,3.95,0.182528,1.3342180000000001,-0.347542,0.258133,0.110901,-0.38504
396,3.96,0.06311900000000001,1.110132,-0.22860100000000003,0.168655,0.265366,-0.394623
397,3.97,-0.055517,0.9044040000000001,-0.045201999999999985,0.117523,0.37188699999999997,-0.391434
398,3.98,-0.200444,0.654558,0.139499,0.110062,0.44538900000000003,-0.373322
399,3.99,-0.322257,0.364471,0.24643800000000002,0.13456700000000002,0.46563699999999997,-0.33177199999999996
400,4.0,-0.42155600000000004,0.033309000000000005,0.20155599999999999,0.175049,0.41024799999999995,-0.2668
401,4.01,-0.29694,-0.267909,0.045771999999999986,0.202744,0.29838600000000004,-0.185837
402,4.02,0.08845700000000001,-0.338702,-0.125573,0.20060699999999998,0.156708,-0.11445599999999999
403,4.03,0.5133409999999999,-0.393455,-0.315452,0.176117,0.0011749999999999955,-0.063324
404,4.04,0.884025,-0.42626499999999995,-0.43058,0.143082,-0.120255,-0.023911
405,4.05,1.273509,-0.469883,-0.504189,0.10366800000000001,-0.17991600000000002,0.0027160000000000005
406,4.06,1.690262,-0.42239099999999996,-0.473868,0.061065999999999995,-0.156479,0.004852
407,4.07,1.961748,-0.329531,-0.40173400000000004,0.024841,-0.101089,-0.019653
408,4.08,2.046712,-0.349867,-0.25338,0.0003359999999999995,-0.028656,-0.071854
409,4.09,1.907134,-0.47495699999999996,-0.054977,-0.010315000000000001,0.042725,-0.125122
410,4.1,1.626644,-0.538301,0.154565,-0.001785,0.075745,-0.168793
411,4.11,1.346732,-0.597004,0.265255,0.028045999999999998,0.08320599999999999,-0.190094
412,4.12,1.021522,-0.738113,0.284102,0.04509,0.082138,-0.17944300000000002
413,4.13,0.759497,-0.9022530000000001,0.286979,0.054672000000000005,0.062958,-0.151749
414,4.14,0.551146,-1.004785,0.279341,0.056808000000000004,0.018219,-0.108078
415,4.15,0.48296400000000006,-1.09541,0.21249099999999999,0.046143,-0.043564,-0.066528
416,4.16,0.4412,-1.190244,0.113304,0.030167000000000003,-0.110672,-0.026047000000000004
417,4.17,0.561145,-1.191897,-0.028107,0.024841,-0.194824,-0.0004729999999999994
418,4.18,0.637666,-1.217742,-0.179868,0.020584,-0.254486,0.014435
419,4.19,0.770245,-1.200441,-0.301637,0.006729000000000001,-0.261948,0.015503
420,4.2,0.8663129999999999,-1.173059,-0.453093,-0.012436,-0.23744200000000001,0.011245999999999999
421,4.21,0.906659,-1.113258,-0.48745,-0.024155000000000003,-0.217194,-0.0036770000000000006
422,4.22,0.844756,-1.1277760000000001,-0.443213,-0.014572,-0.195892,-0.010071
423,4.23,0.761907,-1.127934,-0.45061,0.019516,-0.193771,-0.004745
424,4.24,0.6816989999999999,-1.088681,-0.531938,0.070648,-0.203354,0.008041
425,4.25,0.666618,-1.047396,-0.578613,0.122849,-0.21186799999999997,0.02829
426,4.26,0.80588,-0.8890040000000001,-0.700387,0.169724,-0.21293600000000001,0.045334
427,4.27,0.936356,-0.71859,-0.880798,0.20700100000000002,-0.221466,0.041061
428,4.28,0.959377,-0.5662739999999999,-0.95373,0.21446199999999999,-0.21186799999999997,0.021896000000000002
429,4.29,0.9894299999999999,-0.415625,-1.0544229999999999,0.203812,-0.19056700000000001,0.0005800000000000008
430,4.3,0.960558,-0.356419,-1.093907,0.17717,-0.172455,-0.03244
431,4.31,0.9285479999999999,-0.261079,-1.083326,0.14840699999999998,-0.146896,-0.072922
432,4.32,0.831483,-0.14072300000000001,-0.995226,0.117523,-0.100021,-0.10594200000000001
433,4.33,0.6711050000000001,-0.0644,-0.79929,0.105804,-0.056351,-0.127243
434,4.34,0.48574799999999996,0.018978,-0.586974,0.122849,-0.013733,-0.13256800000000002
435,4.35,0.35565599999999997,0.07532799999999999,-0.428494,0.1548,0.038467,-0.115524
436,4.36,0.159025,0.21518200000000004,-0.217061,0.19635,0.086395,-0.08357200000000001
437,4.37,-0.048933,0.26834,-0.111553,0.241089,0.10771199999999999,-0.03244
438,4.38,-0.122072,0.361856,-0.118567,0.284775,0.075745,0.020828
439,4.39,-0.029056,0.7420979999999999,-0.101037,0.289032,0.066162,0.080475
440,4.4,0.205985,0.918538,-0.148637,0.268784,0.061904999999999995,0.13588
441,4.41,0.490899,1.156005,-0.181201,0.21232600000000001,0.04805,0.15931700000000001
442,4.42,0.745981,1.416675,-0.196716,0.110062,0.058700999999999996,0.132675
443,4.43,0.7819510000000001,1.568357,-0.038647,-0.009246999999999998,0.065094,0.087936
444,4.44,0.571244,1.6062610000000002,0.208179,-0.120026,0.071487,0.033614999999999985
445,4.45,0.34728600000000004,1.4680360000000001,0.431489,-0.203125,0.061904999999999995,-0.007935
446,4.46,-0.007021,1.371112,0.70729,-0.25,0.062958,-0.029236
447,4.47,-0.272117,1.29175,0.9350040000000001,-0.260651,0.084274,-0.023911
448,4.48,-0.547329,1.242931,1.162057,-0.240402,0.09385700000000001,0.022964
449,4.49,-0.7038479999999999,1.254787,1.332867,-0.186081,0.082138,0.10818499999999999
450,4.5,-0.752374,0.9887379999999999,1.279426,-0.112579,0.062958,0.208313
451,4.51,-0.691637,0.7130770000000001,1.019685,-0.084885,0.07041900000000001,0.30099499999999996
452,4.52,-0.402242,0.6526569999999999,0.78372,-0.10618599999999999,0.088531,0.367035
453,4.53,-0.177344,0.46585,0.561549,-0.180756,0.135406,0.40219099999999997
454,4.54,-0.176015,0.15690699999999996,0.49557299999999993,-0.292603,0.190796,0.40538
455,4.55,-0.355551,-0.26708699999999996,0.5670000000000001,-0.407654,0.193985,0.383011
456,4.56,-0.524051,-0.5170939999999999,0.774297,-0.48648100000000005,0.110901,0.343597
457,4.57,-0.548621,-0.642444,0.9484889999999999,-0.48436,-0.057404,0.30099499999999996
458,4.58,-0.45563400000000004,-0.5434060000000001,0.9451139999999999,-0.407654,-0.25662199999999996,0.258377
459,4.59,-0.23014600000000002,-0.28481300000000004,0.796131,-0.27449,-0.43771400000000005,0.21363800000000002
460,4.6,-0.045134000000000014,-0.079957,0.56626,-0.141342,-0.512283,0.167831
461,4.61,0.148632,0.210721,0.24936999999999998,-0.026291,-0.454758,0.134811
462,4.62,0.352979,0.48198199999999997,-0.099944,0.079178,-0.325851,0.107117
463,4.63,0.39015700000000003,0.659625,-0.42354899999999995,0.14735399999999998,-0.094696,0.0858
464,4.64,0.41575100000000004,0.743742,-0.632447,0.14840699999999998,0.263229,0.078354
465,4.65,0.23609699999999997,0.772933,-0.6832199999999999,0.091949,0.642471,0.080475
466,4.66,-0.10867099999999998,0.565282,-0.530822,-0.027358999999999998,0.934357,0.080475
467,4.67,-0.41005,0.18896400000000002,-0.301565,-0.15945399999999998,1.067505,0.08367899999999999
468,4.68,-0.694449,-0.050177,0.159452,-0.281952,1.0930790000000001,0.08154299999999999
469,4.69,-0.930681,-0.301039,0.49007,-0.36930799999999997,1.008926,0.087936
470,4.7,-1.151815,-0.616991,0.64854,-0.402328,0.800125,0.09433
471,4.71,-1.297816,-0.888927,0.672455,-0.397003,0.523163,0.106049
472,4.72,-1.328977,-1.1342700000000001,0.506061,-0.351196,0.217422,0.11244200000000001
473,4.73,-1.321511,-1.311269,0.137036,-0.271301,-0.076584,0.139069
474,4.74,-1.242055,-1.433136,-0.351106,-0.178619,-0.294968,0.17741400000000002
475,4.75,-1.1171010000000001,-1.5252219999999999,-0.816719,-0.087006,-0.413208,0.224289
476,4.76,-0.812182,-1.472665,-1.217696,-0.0017850000000000019,-0.418533,0.274353
477,4.77,-0.4842,-1.351083,-1.6325100000000001,0.073853,-0.35035700000000003,0.32016
478,4.78,-0.167786,-1.301877,-1.984158,0.122849,-0.267273,0.341476
479,4.79,0.155564,-1.191624,-2.149927,0.158005,-0.21826199999999998,0.331879
480,4.8,0.45749399999999996,-0.9344979999999999,-2.21699,0.192093,-0.183105,0.288208
481,4.81,0.614958,-0.62695,-2.273155,0.211258,-0.156479,0.22216799999999998
482,4.82,0.524563,-0.378996,-2.178454,0.211258,-0.11492899999999999,0.165695
483,4.83,0.29304600000000003,-0.231304,-2.0412790000000003,0.208069,-0.077652,0.116699
484,4.84,0.028777,-0.0007399999999999908,-1.834283,0.201675,-0.033981,0.082611
485,4.85,-0.15376099999999998,0.081963,-1.6147040000000001,0.187836,0.044861,0.080475
486,4.86,-0.412754,0.157148,-1.254882,0.170792,0.156708,0.107117
487,4.87,-0.575148,0.168724,-1.022111,0.172913,0.24406399999999998,0.158249
488,4.88,-0.6655949999999999,0.184915,-0.746605,0.18676800000000002,0.27920500000000004,0.189133
489,4.89,-0.68586,0.232611,-0.586648,0.198486,0.26004,0.194458
490,4.9,-0.73,0.403566,-0.446254,0.20060699999999998,0.187607,0.178482
491,4.91,-0.7022189999999999,0.490641,-0.304041,0.179306,0.087463,0.152924
492,4.92,-0.642999,0.717302,-0.091883,0.136703,-0.025451999999999995,0.118835
493,4.93,-0.640414,0.9234129999999999,0.126737,0.090897,-0.141571,0.08154299999999999
494,4.94,-0.7101109999999999,0.958593,0.371519,0.054672000000000005,-0.24169899999999997,0.045334
495,4.95,-0.716925,1.054797,0.646301,0.022720000000000004,-0.299225,0.016571000000000002
496,4.96,-0.669531,1.090152,0.850009,0.014191,-0.322662,-0.005797999999999999
497,4.97,-0.611217,1.1671280000000002,1.074391,0.040817,-0.317337,-0.026047000000000004
498,4.98,-0.5445810000000001,1.145425,1.093708,0.081299,-0.2939,-0.050552
499,4.99,-0.44934399999999997,1.144341,1.036948,0.136703,-0.284317,-0.084641
500,5.0,-0.355618,1.226996,1.011102,0.173981,-0.24809299999999998,-0.134705
501,5.01,-0.36232600000000004,1.2946540000000002,0.9374790000000001,0.197418,-0.191635,-0.187958
502,5.02,-0.467362,1.2632860000000001,1.008564,0.202744,-0.120255,-0.23590100000000003
503,5.03,-0.562774,1.249382,1.1479620000000001,0.213394,-0.06486499999999999,-0.275314
504,5.04,-0.436518,1.467319,1.282564,0.24855,-0.038238999999999995,-0.301956
505,5.05,-0.22183699999999998,1.623818,1.3148600000000001,0.302872,-0.033981,-0.311539
506,5.06,-0.111921,1.633261,1.215215,0.354004,-0.010544,-0.324326
507,5.07,-0.116183,1.520752,1.052569,0.36999499999999996,0.037399,-0.33177199999999996
508,5.08,-0.137665,1.439476,0.884283,0.34123200000000004,0.10450699999999999,-0.31366
509,5.09,-0.131364,1.171917,0.927076,0.266663,0.187607,-0.274246
510,5.1,-0.133411,0.7760739999999999,1.064589,0.162262,0.25151100000000004,-0.23590100000000003
511,5.11,-0.120941,0.319781,1.189834,0.06957999999999999,0.218491,-0.220993
512,5.12,-0.030808,-0.024042000000000008,1.310653,0.016327,0.072556,-0.24443099999999998
513,5.13,0.19663699999999998,-0.12365599999999999,1.193206,0.016327,-0.14476,-0.30728099999999997
514,5.14,0.27097,-0.19510999999999998,0.9759899999999999,0.058928999999999995,-0.37698400000000004,-0.380783
515,5.15,0.42989700000000003,-0.187695,0.541058,0.12498499999999998,-0.5314479999999999,-0.434036
516,5.16,0.752893,-0.05319299999999999,0.120438,0.170792,-0.537842,-0.453217
517,5.17,1.02296,0.265431,-0.214035,0.172913,-0.413208,-0.470261
518,5.18,1.149973,0.42747700000000005,-0.485599,0.142029,-0.23104899999999998,-0.480911
519,5.19,1.060913,0.465735,-0.552554,0.065323,0.01928700000000001,-0.466003
520,5.2,0.826624,0.320429,-0.385408,-0.048660000000000016,0.294128,-0.425522
521,5.21,0.450167,0.081477,0.02208099999999999,-0.16050699999999998,0.505051,-0.361603
522,5.22,0.055041000000000014,-0.310217,0.4837739999999999,-0.24360700000000002,0.5892029999999999,-0.288101
523,5.23,-0.388019,-0.6682100000000001,0.9090530000000001,-0.293671,0.526352,-0.21139499999999997
524,5.24,-0.632627,-1.136478,1.167545,-0.301132,0.381485,-0.124054
525,5.25,-0.750079,-1.46165,1.19585,-0.267044,0.165222,-0.045226999999999996
526,5.26,-0.706298,-1.7157080000000002,1.000864,-0.195663,-0.10002099999999997,-0.0004730000000000012
527,5.27,-0.377988,-1.726164,0.588987,-0.09553500000000001,-0.37911999999999996,0.020828
528,5.28,-0.069844,-1.6823299999999999,0.08964,0.014191000000000004,-0.551697,0.041061
529,5.29,0.14139000000000002,-1.7376470000000002,-0.393586,0.10366800000000001,-0.551697,0.060242
530,5.3,0.254744,-1.763249,-0.8492569999999999,0.164398,-0.444107,0.076218
531,5.31,0.325957,-1.7141419999999998,-1.2009370000000001,0.21020500000000003,-0.305618,0.091141
532,5.32,0.448009,-1.690364,-1.363708,0.240021,-0.129852,0.12309300000000001
533,5.33,0.5527920000000001,-1.606588,-1.313657,0.267731,0.088531,0.16250599999999998
534,5.34,0.603725,-1.550474,-1.189964,0.313538,0.26855500000000004,0.18808
535,5.35,0.524904,-1.5431190000000001,-1.104567,0.368927,0.346329,0.202988
536,5.36,0.5923,-1.49915,-1.053307,0.431778,0.299454,0.206177
537,5.37,0.698661,-1.3473,-1.2223190000000002,0.48503100000000005,0.165222,0.202988
538,5.38,0.790608,-1.1853129999999998,-1.336296,0.48823500000000003,0.04805,0.19659400000000002
539,5.39,0.9769549999999999,-1.287519,-1.615961,0.42431599999999997,-0.077652,0.202988
540,5.4,0.70806,-0.8731450000000001,-1.513785,0.295425,-0.23744200000000001,0.167831
541,5.41,0.642251,-0.543888,-1.4744549999999998,0.205933,-0.208679,0.116699
542,5.42,0.335185,-0.6562560000000001,-1.276232,0.13563499999999998,-0.100021,0.151855
543,5.43,0.24700500000000003,-0.659464,-1.01826,0.059998,0.025681,0.220032
544,5.44,0.205168,-0.582543,-0.6969390000000001,-0.012436,0.045913999999999996,0.265839
545,5.45,0.11765,-0.46770900000000004,-0.352869,-0.051849,0.011825999999999995,0.296738
546,5.46,0.236002,-0.459696,-0.11137999999999999,-0.031616000000000005,-0.051025,0.334015
547,5.47,0.385629,-0.291135,0.11019200000000001,0.024841,-0.09149199999999999,0.357452
548,5.48,0.548289,-0.014533999999999991,0.18240499999999998,0.080231,-0.07872,0.349991
549,5.49,0.6180329999999999,0.192645,0.103673,0.10794100000000001,-0.071259,0.323364
550,5.5,0.6606920000000001,0.45355100000000004,0.191341,0.101547,-0.024384000000000003,0.293533
551,5.51,0.704871,0.674664,0.171234,0.067459,0.066162,0.260513
552,5.52,0.65399,0.8444860000000001,0.315344,0.022719999999999997,0.1418,0.23175
553,5.53,0.5466810000000001,0.916177,0.488926,-0.030548000000000002,0.168427,0.20938099999999998
554,5.54,0.611549,0.181295,0.400865,-0.14240999999999998,-0.14369200000000001,0.21256999999999998
555,5.55,0.005799999999999996,1.135585,0.824501,-0.264908,-0.407883,0.09433
556,5.56,0.270021,1.4860280000000001,1.066857,-0.328827,-0.42385900000000004,0.064499
557,5.57,0.46370100000000003,1.167178,1.130067,-0.319244,-0.315201,0.12735
558,5.58,0.644258,1.095027,1.125153,-0.325623,-0.140503,0.175293
559,5.59,0.455133,1.031504,1.162951,-0.338409,-0.054214,0.116699
560,5.6,0.268832,0.951141,1.183964,-0.319244,-0.046752999999999996,0.018692
561,5.61,0.16531600000000002,0.925467,1.161693,-0.281952,-0.008407999999999999,-0.03244
562,5.62,-0.043947,0.8547889999999999,1.143303,-0.24893200000000001,0.187607,-0.033507999999999996
563,5.63,-0.42632,0.53569,1.104208,-0.227631,0.462433,-0.012192
564,5.64,-0.782899,0.076237,1.041915,-0.210587,0.653122,0.022964
565,5.65,-0.896051,-0.210909,0.959058,-0.192474,0.6818850000000001,0.064499
566,5.66,-0.730477,-0.274148,0.8544290000000001,-0.176498,0.571091,0.091141
567,5.67,-0.55997,-0.337474,0.739851,-0.16050699999999998,0.414505,0.095398
568,5.68,-0.336619,-0.427991,0.486505,-0.15945399999999998,0.204651,0.063431
569,5.69,-0.12274,-0.290875,0.298654,-0.183945,0.010773000000000005,0.009109
570,5.7,0.060234,-0.138577,0.12726800000000002,-0.190338,0.013962000000000002,-0.037766
571,5.71,-0.019234000000000008,-0.033135000000000005,0.12346700000000001,-0.210587,0.121552,-0.072922
572,5.72,-0.095412,0.07219600000000001,0.264081,-0.255325,0.33779899999999996,-0.08996599999999999
573,5.73,-0.236967,0.10905999999999999,0.471657,-0.27449,0.539139,-0.067596
574,5.74,-0.425113,-0.005389999999999999,0.658142,-0.26384,0.633942,-0.026047000000000004
575,5.75,-0.6074579999999999,-0.043646,0.765416,-0.238281,0.6094510000000001,0.034668
576,5.76,-0.668626,-0.169253,0.751889,-0.200989,0.48693800000000004,0.12309300000000001
577,5.77,-0.610612,-0.317232,0.520837,-0.158386,0.311172,0.20938099999999998
578,5.78,-0.38169000000000003,-0.48563599999999996,0.07303799999999999,-0.13707,0.106644,0.266907
579,5.79,-0.15525300000000006,-0.5833619999999999,-0.310929,-0.148788,-0.06700100000000002,0.278625
580,5.8,-0.0075729999999999955,-0.695046,-0.647645,-0.185013,-0.150085,0.261581
581,5.81,-0.07115700000000001,-0.893424,-0.9515889999999999,-0.24147,-0.150085,0.241333
582,5.82,-0.213642,-1.035693,-1.078912,-0.311783,-0.101089,0.217896
583,5.83,-0.332304,-1.161294,-1.047439,-0.362915,-0.028656,0.19659400000000002
584,5.84,-0.432989,-1.250709,-0.865698,-0.355453,0.059769,0.19873
585,5.85,-0.5099279999999999,-1.292713,-0.752213,-0.27769499999999997,0.105576,0.21363800000000002
586,5.86,-0.503484,-1.4110120000000002,-0.791651,-0.155182,0.110901,0.24772600000000003
587,5.87,-0.38605500000000004,-1.4225139999999998,-0.95705,-0.019897,0.088531,0.27223200000000003
588,5.88,-0.239287,-1.328845,-1.17584,0.101547,0.062958,0.278625
589,5.89,-0.103827,-1.25064,-1.348877,0.193161,0.07788099999999999,0.26263400000000003
590,5.9,0.020320000000000005,-1.1540709999999998,-1.4742629999999999,0.2379,0.09811399999999999,0.21044899999999997
591,5.91,0.173092,-0.9762430000000001,-1.544789,0.23896799999999999,0.15351900000000002,0.143326
592,5.92,0.10981099999999999,-0.825516,-1.45002,0.203812,0.225952,0.074097
593,5.93,-0.145894,-0.754645,-1.2366840000000001,0.136703,0.316498,0.006973
594,5.94,-0.47271199999999997,-0.701141,-0.923112,0.06425499999999999,0.32501199999999997,-0.044159
595,5.95,-0.786705,-0.6078479999999999,-0.516306,0.044022000000000006,0.27175900000000003,-0.078247
596,5.96,-0.992625,-0.599925,-0.08372499999999998,0.091949,0.17588800000000002,-0.079315
597,5.97,-1.107406,-0.545379,0.13096,0.164398,0.075745,-0.059066999999999995
598,5.98,-0.975434,-0.412234,0.165114,0.234695,-0.049957,-0.033507999999999996
599,5.99,-0.592234,-0.11200999999999998,0.172238,0.285828,-0.184174,-0.042023000000000005
600,6.0,-0.189468,0.26966799999999996,0.164207,0.312469,-0.266205,-0.096359
601,6.01,0.08571000000000001,0.575151,0.18609,0.312469,-0.263,-0.178375
602,6.02,0.15087,0.903863,0.366212,0.28157,-0.19056700000000001,-0.272125
603,6.03,-0.036766000000000014,1.154834,0.625237,0.233643,-0.080841,-0.369064
604,6.04,-0.271443,1.376766,0.913385,0.189957,0.0011750000000000024,-0.448959
605,6.05,-0.498321,1.5032780000000001,1.275399,0.150543,0.032074,-0.50116
606,6.06,-0.658053,1.547966,1.753991,0.122849,0.050186,-0.519257
607,6.07,-0.87946,1.565037,2.151628,0.138824,0.04805,-0.528854
608,6.08,-1.058859,1.488868,2.357193,0.205933,-0.040359,-0.535248
609,6.09,-1.243808,1.403066,2.360663,0.296494,-0.140503,-0.533112
610,6.1,-1.2694299999999998,1.384477,2.197342,0.376373,-0.225723,-0.505417
611,6.11,-1.115737,1.488637,1.898405,0.44349700000000003,-0.291763,-0.453217
612,6.12,-0.715324,1.758377,1.45818,0.48503100000000005,-0.355682,-0.397827
613,6.13,-0.264096,2.031055,1.011132,0.48397799999999996,-0.417465,-0.363739
614,6.14,0.029363,2.120014,0.538691,0.44136000000000003,-0.454758,-0.360535
615,6.15,0.236698,2.013462,0.09510700000000001,0.343353,-0.456879,-0.355209
616,6.16,0.358072,1.8885740000000002,-0.14582799999999999,0.187836,-0.368469,-0.324326
617,6.17,0.43661000000000005,1.551741,-0.15398599999999998,-0.003921999999999995,-0.20654299999999998,-0.28064
618,6.18,0.231006,0.9263450000000001,0.160075,-0.195663,-0.038239,-0.22950700000000002
619,6.19,-0.011939000000000005,0.251999,0.5504600000000001,-0.33628800000000003,0.026749000000000002,-0.185837
620,6.2,0.08016499999999999,-0.042305,0.765981,-0.388474,-0.098953,-0.156006
621,6.21,0.288715,-0.19403,0.965307,-0.362915,-0.321594,-0.164536
622,6.22,0.536809,-0.310083,0.821125,-0.287277,-0.590042,-0.238037
623,6.23,0.7755340000000001,-0.257911,0.5497449999999999,-0.178619,-0.829727,-0.350952
624,6.24,0.9297200000000001,-0.02427500000000002,0.27452600000000005,-0.096603,-0.865952,-0.439362
625,6.25,0.919259,0.23497300000000002,-0.064364,-0.040131,-0.729599,-0.483047
626,6.26,0.789791,0.304044,-0.265253,-0.016708,-0.513351,-0.481979
627,6.27,0.650729,0.31983,-0.342968,-0.025223,-0.22891199999999998,-0.437241
628,6.28,0.35618299999999997,0.215513,-0.245577,-0.047592,0.09278899999999997,-0.354141
629,6.29,0.07001400000000002,-0.141628,-0.16963499999999998,-0.073166,0.365494,-0.236969
630,6.3,-0.139793,-0.616614,-0.084824,-0.11151099999999999,0.49865699999999996,-0.116592
631,6.31,-0.21680500000000003,-1.02242,-0.0668,-0.16477999999999998,0.469894,-0.015396
632,6.32,-0.323943,-1.443643,-0.077394,-0.22442600000000001,0.330353,0.064499
633,6.33,-0.322883,-1.8443669999999999,-0.11561400000000001,-0.280884,0.12262,0.122025
634,6.34,-0.182505,-2.183215,-0.321655,-0.313904,-0.13092,0.158249
635,6.35,0.063452,-2.363917,-0.596808,-0.330948,-0.383377,0.14546199999999998
636,6.36,0.345403,-2.374131,-0.875243,-0.327759,-0.576187,0.10179099999999999
637,6.37,0.5813050000000001,-2.23455,-1.156415,-0.307526,-0.685913,0.045334
638,6.38,0.661222,-2.0973599999999997,-1.40094,-0.269165,-0.685913,-0.013259999999999996
639,6.39,0.671003,-2.027741,-1.572384,-0.231888,-0.588974,-0.047348
640,6.4,0.668658,-1.9122009999999998,-1.551776,-0.17968800000000001,-0.430252,-0.056930999999999995
641,6.41,0.715974,-1.774315,-1.5007540000000001,-0.10405,-0.21933000000000002,-0.06546
642,6.42,0.751603,-1.632808,-1.418916,-0.009246999999999998,0.008636000000000005,-0.076111
643,6.43,0.705341,-1.530625,-1.283617,0.090897,0.20677199999999998,-0.068649
644,6.44,0.72039,-1.4567379999999999,-1.272532,0.187836,0.34526100000000004,-0.047348
645,6.45,0.75879,-1.2764229999999999,-1.19456,0.267731,0.399582,-0.031372000000000004
646,6.46,0.830177,-1.0485360000000001,-1.108117,0.312469,0.40918000000000004,-0.036697
647,6.47,0.84867,-0.774468,-1.009079,0.31140100000000004,0.403854,-0.053741
648,6.48,0.774687,-0.588318,-0.866165,0.291153,0.352722,-0.072922
649,6.49,0.643806,-0.419573,-0.753767,0.247482,0.284546,-0.077179
650,6.5,0.422521,-0.262718,-0.542675,0.188889,0.252579,-0.059066999999999995
651,6.51,0.269171,-0.19623,-0.395052,0.12498499999999998,0.231277,-0.024979
652,6.52,0.166323,-0.098207,-0.167447,0.091949,0.185471,0.015503
653,6.53,0.109274,-0.072299,-0.04113,0.075974,0.12901300000000002,0.066635
654,6.54,0.17039300000000002,-0.036282999999999996,0.135967,0.07811,0.06828300000000001,0.115631
655,6.55,0.357275,0.051729,0.287483,0.08982799999999999,0.032074,0.147598
656,6.56,0.546285,0.282933,0.46936300000000003,0.10794100000000001,0.031006,0.144394
657,6.57,0.580754,0.621919,0.692448,0.142029,0.065094,0.11776700000000001
658,6.58,0.527666,0.8452290000000001,0.9220729999999999,0.188889,0.125809,0.09751900000000001
659,6.59,0.5008060000000001,1.158089,1.097599,0.25601199999999996,0.18866,0.087936
660,6.6,0.53955,1.430624,1.133312,0.316727,0.254715,0.084747
661,6.61,0.541551,1.7277810000000002,1.190456,0.331635,0.353775,0.086868
662,6.62,0.471458,1.878363,1.190877,0.301819,0.47735600000000006,0.096466
663,6.63,0.22713899999999998,1.751587,1.323346,0.225113,0.611572,0.118835
664,6.64,-0.12573800000000002,1.551451,1.715628,0.11538699999999999,0.740479,0.147598
665,6.65,-0.346963,1.435001,2.174876,0.028045999999999998,0.764969,0.183807
666,6.66,-0.526941,1.404898,2.64854,0.001404,0.6328739999999999,0.204056
667,6.67,-0.861773,1.1047280000000002,2.927851,0.020584,0.460312,0.19873
668,6.68,-1.088662,0.730093,2.932987,0.05574,0.287735,0.19873
669,6.69,-1.032949,0.647292,2.8185830000000003,0.11538699999999999,0.106644,0.20724499999999998
670,6.7,-0.8806700000000001,0.6559,2.725491,0.191025,-0.006270999999999999,0.217896
671,6.71,-0.895494,0.469563,2.483602,0.25174,0.0022429999999999998,0.220032
672,6.72,-0.885969,0.193172,2.1946830000000004,0.313538,0.024612000000000002,0.22749299999999997
673,6.73,-0.75384,0.16263699999999998,1.7919580000000002,0.38916,0.007568000000000001,0.24240100000000003
674,6.74,-0.438004,0.195178,1.3961780000000001,0.467987,-0.008408,0.246658
675,6.75,-0.09733,0.350437,0.922797,0.516998,0.024612000000000002,0.240265
676,6.76,0.17815799999999998,0.438108,0.469088,0.513794,0.10450699999999999,0.223221
677,6.77,0.404861,0.528029,0.023074000000000008,0.448822,0.22701999999999997,0.189133
678,6.78,0.450639,0.49153500000000006,-0.24588800000000002,0.320984,0.394257,0.144394
679,6.79,0.32510700000000003,0.340117,-0.414646,0.149475,0.551926,0.087936
680,6.8,0.10815999999999999,0.131529,-0.397575,-0.027358999999999998,0.642471,0.047455000000000004
681,6.81,-0.141218,-0.163338,-0.336929,-0.178619,0.658447,0.034668
682,6.82,-0.381131,-0.5129779999999999,-0.41305699999999995,-0.3022,0.584946,0.046387
683,6.83,-0.542143,-0.8869290000000001,-0.48955,-0.404465,0.43261700000000003,0.07728600000000001
684,6.84,-0.5777100000000001,-1.2436209999999999,-0.680558,-0.485413,0.223816,0.122025
685,6.85,-0.43384799999999996,-1.4698120000000001,-0.920968,-0.544006,-0.004150000000000001,0.16037
686,6.86,-0.26095999999999997,-1.66638,-1.1345399999999999,-0.5855560000000001,-0.191635,0.165695
687,6.87,-0.128465,-1.766605,-1.293824,-0.5983430000000001,-0.329056,0.148651
688,6.88,-0.157816,-1.7822099999999998,-1.318166,-0.572769,-0.361008,0.119904
689,6.89,-0.13839500000000002,-1.7271029999999998,-1.377192,-0.50885,-0.336517,0.10072300000000001
690,6.9,-0.246577,-1.7031,-1.367024,-0.420441,-0.2939,0.095398
691,6.91,-0.31651799999999997,-1.702478,-1.2762149999999999,-0.321365,-0.226791,0.10285899999999999
692,6.92,-0.310634,-1.59275,-1.281468,-0.202057,-0.176727,0.11776700000000001
693,6.93,-0.272264,-1.566416,-1.278677,-0.079559,-0.117065,0.132675
694,6.94,-0.161392,-1.477922,-1.280365,0.024841,-0.06274400000000001,0.15078699999999998
695,6.95,-0.002338000000000007,-1.4091879999999999,-1.292797,0.12178,-0.03717,0.15504500000000002
696,6.96,0.128627,-1.294291,-1.236336,0.205933,-0.027587999999999998,0.139069
697,6.97,0.310057,-1.14083,-1.18956,0.286896,-0.008407999999999999,0.110306
698,6.98,0.503012,-0.9878540000000001,-1.177458,0.363602,0.019287,0.07196
699,6.99,0.566918,-0.7857310000000001,-1.1769129999999999,0.42431599999999997,0.066162,0.025085000000000003
700,7.0,0.572281,-0.606589,-1.177173,0.455215,0.142853,-0.022842000000000005
701,7.01,0.43395100000000003,-0.440379,-1.071742,0.44988999999999996,0.236603,-0.057999
702,7.02,0.16842100000000002,-0.260651,-0.959649,0.425385,0.305847,-0.088898
703,7.03,-0.07930899999999999,-0.11888399999999999,-0.77015,0.379578,0.330353,-0.10913099999999999
704,7.04,-0.373046,0.008456000000000005,-0.513097,0.32311999999999996,0.316498,-0.110199
705,7.05,-0.667255,0.113724,-0.145919,0.266663,0.26004,-0.100616
706,7.06,-0.752681,0.166497,0.177055,0.23683200000000001,0.126877,-0.092087
707,7.07,-0.791971,0.264746,0.394708,0.241089,-0.06593300000000002,-0.086761
708,7.08,-0.650741,0.484746,0.43654,0.252808,-0.25235,-0.104874
709,7.09,-0.381023,0.812526,0.359136,0.26026900000000003,-0.370605,-0.151749
710,7.1,-0.291573,1.046689,0.326994,0.249619,-0.388702,-0.198624
711,7.11,-0.330492,1.254874,0.341914,0.20700100000000002,-0.282181,-0.24443099999999998
712,7.12,-0.383816,1.460158,0.512441,0.152679,-0.13836700000000002,-0.275314
713,7.13,-0.412497,1.513815,0.810934,0.11645499999999999,0.013962000000000002,-0.287033
714,7.14,-0.517729,1.5262200000000001,1.089679,0.11645499999999999,0.1418,-0.287033
715,7.15,-0.687893,1.428754,1.314864,0.143082,0.195053,-0.296616
716,7.16,-0.833144,1.294222,1.5673979999999998,0.191025,0.17056300000000002,-0.310471
717,7.17,-0.881865,1.1985620000000001,1.64989,0.257065,0.086395,-0.326447
718,7.18,-0.8423129999999999,1.294964,1.624826,0.313538,-0.036101999999999995,-0.340302
719,7.19,-0.492546,1.576295,1.431578,0.359329,-0.208679,-0.346695
720,7.2,-0.20839499999999997,1.7539900000000002,1.114542,0.394485,-0.41534399999999994,-0.363739
721,7.21,0.006306999999999993,1.7962369999999999,0.709589,0.385971,-0.5655359999999999,-0.392502
722,7.22,0.298299,1.8649529999999999,0.390856,0.316727,-0.608154,-0.413803
723,7.23,0.565736,1.9330610000000001,0.22367399999999998,0.202744,-0.532516,-0.42019700000000004
724,7.24,0.686546,1.931716,0.201904,0.073853,-0.370605,-0.410599
725,7.25,0.406871,1.421886,0.35386999999999996,-0.061447,-0.16713,-0.382904
726,7.26,0.199977,0.8141010000000001,0.71897,-0.180756,0.018219,-0.326447
727,7.27,0.142104,0.222059,1.0754540000000001,-0.232956,0.087463,-0.25614899999999996
728,7.28,0.348947,-0.187366,1.203223,-0.22442600000000001,-0.014801000000000003,-0.21778899999999998
729,7.29,0.541432,-0.561161,1.152221,-0.181824,-0.21293600000000001,-0.220993
730,7.3,0.842053,-0.776254,0.921284,-0.130692,-0.441971,-0.278519
731,7.31,1.249608,-0.744639,0.594954,-0.077423,-0.660355,-0.392502
732,7.32,1.482297,-0.522779,0.294792,-0.043335000000000005,-0.741318,-0.523529
733,7.33,1.4521870000000001,-0.29301900000000003,0.030673000000000006,-0.03801,-0.648636,-0.631119
734,7.34,1.332797,-0.116737,-0.103906,-0.045471,-0.451553,-0.69397
735,7.35,1.0817780000000001,-0.14708,-0.131903,-0.046524,-0.22358699999999998,-0.709946
736,7.36,0.719494,-0.199548,-0.089293,-0.055054,0.054443000000000005,-0.684372
737,7.37,0.329437,-0.335179,-0.002648000000000001,-0.072098,0.30052199999999996,-0.6225890000000001
738,7.38,-0.11455899999999995,-0.668397,0.101462,-0.085938,0.43261700000000003,-0.514999
739,7.39,-0.375918,-1.058471,0.118501,-0.10298199999999999,0.44433599999999995,-0.39569099999999996
740,7.4,-0.401025,-1.390198,0.144972,-0.105118,0.376144,-0.283844
741,7.41,-0.322303,-1.6678970000000002,0.035683,-0.10618599999999999,0.21636999999999998,-0.205017
742,7.42,-0.176278,-1.859678,-0.25943299999999997,-0.098724,-0.002014000000000002,-0.158142
743,7.43,0.101301,-1.865171,-0.6406649999999999,-0.094467,-0.270462,-0.138962
744,7.44,0.324155,-1.803139,-1.097693,-0.09979199999999999,-0.501633,-0.127243
745,7.45,0.551852,-1.7495610000000001,-1.4989540000000001,-0.131744,-0.618805,-0.116592
746,7.46,0.6352369999999999,-1.626657,-1.7987400000000002,-0.186081,-0.623062,-0.102737
747,7.47,0.5657300000000001,-1.570941,-1.970231,-0.260651,-0.575134,-0.079315
748,7.48,0.600841,-1.517327,-1.937014,-0.339478,-0.49736,-0.030304
749,7.49,0.708533,-1.389334,-1.64168,-0.387421,-0.38765,0.027222000000000003
750,7.5,0.788353,-1.399009,-1.379062,-0.381027,-0.310944,0.07728600000000001
751,7.51,0.907809,-1.3688799999999999,-1.0769799999999998,-0.323502,-0.27153,0.096466
752,7.52,0.855246,-1.2006620000000001,-0.745356,-0.244675,-0.226791,0.082611
753,7.53,0.792608,-1.072929,-0.449954,-0.13707,-0.188431,0.059174000000000004
754,7.54,0.7106939999999999,-0.903824,-0.34884,0.0035400000000000006,-0.184174,0.031479
755,7.55,0.650836,-0.684363,-0.374825,0.127106,-0.146896,0.0005799999999999988
756,7.56,0.694593,-0.34012800000000004,-0.4949,0.22192399999999998,-0.048889,-0.011139
757,7.57,0.580854,-0.10749,-0.632808,0.27731300000000003,0.086395,-0.003677
758,7.58,0.49506700000000003,0.018724000000000005,-0.719148,0.286896,0.22169499999999998,0.01976
759,7.59,0.5011260000000001,0.140401,-0.7404069999999999,0.25387600000000005,0.35591100000000003,0.052779999999999994
760,7.6,0.348632,0.199188,-0.613226,0.18249500000000002,0.457108,0.09751900000000001
761,7.61,0.17652400000000001,0.194244,-0.420022,0.096222,0.46670500000000004,0.13694800000000001
762,7.62,0.059338,0.23670700000000003,-0.110058,0.026978,0.363373,0.171036
763,7.63,-0.019633,0.31282,0.348182,-0.035873,0.231277,0.204056
764,7.64,0.08181499999999997,0.472367,0.595688,-0.059311,0.057632,0.23068200000000003
765,7.65,0.262281,0.6260979999999999,0.704427,-0.042267,-0.136246,0.23921199999999998
766,7.66,0.466136,0.838046,0.739506,-0.032684,-0.22891199999999998,0.215775
767,7.67,0.644324,1.125667,0.639413,-0.032684,-0.24169899999999997,0.17955
768,7.68,0.671243,1.361317,0.675867,-0.033752,-0.154343,0.14013699999999998
769,7.69,0.465297,1.671417,0.7640680000000001,-0.063568,0.039536,0.122025
770,7.7,0.21014899999999997,1.715756,0.8279219999999999,-0.091263,0.256836,0.141205
771,7.71,-0.14840599999999998,1.560414,0.962309,-0.13281199999999999,0.45285,0.191269
772,7.72,-0.413504,1.473433,1.195673,-0.192474,0.59346,0.246658
773,7.73,-0.460611,1.484478,1.509671,-0.231888,0.561508,0.290344
774,7.74,-0.654262,1.261069,1.740161,-0.24360700000000002,0.448593,0.288208
775,7.75,-0.7266640000000001,1.045555,1.6874790000000002,-0.267044,0.303711,0.265839
776,7.76,-0.630243,1.019536,1.587085,-0.303253,0.149246,0.26263400000000003
777,7.77,-0.553937,0.9723930000000001,1.520173,-0.353333,0.075745,0.25411999999999996
778,7.78,-0.6746,0.735258,1.459096,-0.412979,0.103439,0.24772600000000003
779,7.79,-0.9914120000000001,0.41303100000000004,1.5225950000000001,-0.46411099999999994,0.16735799999999998,0.278625
780,7.8,-1.173152,0.07225500000000001,1.560274,-0.47583000000000003,0.200378,0.34786999999999996
781,7.81,-1.150184,-0.19611099999999998,1.522675,-0.45878599999999997,0.187607,0.432022
782,7.82,-0.939441,-0.37538499999999997,1.363613,-0.42895500000000003,0.15351900000000002,0.483154
783,7.83,-0.646755,-0.479645,1.1873129999999998,-0.378891,0.086395,0.489548
784,7.84,-0.289744,-0.5212399999999999,1.002153,-0.325623,0.027817,0.456512
785,7.85,-0.020846000000000003,-0.47359799999999996,0.9131049999999999,-0.279816,0.021422999999999998,0.387283
786,7.86,0.187801,-0.380544,0.752265,-0.232956,0.055511000000000005,0.293533
787,7.87,0.172233,-0.314395,0.6339779999999999,-0.186081,0.135406,0.204056
788,7.88,0.003600999999999993,-0.300041,0.55615,-0.150925,0.274948,0.134811
789,7.89,-0.20848699999999998,-0.335436,0.506891,-0.127487,0.423019,0.10391199999999999
790,7.9,-0.408285,-0.5165109999999999,0.368433,-0.110443,0.509308,0.111374
791,7.91,-0.617009,-0.76756,0.256794,-0.108322,0.5135649999999999,0.142273
792,7.92,-0.643567,-0.849284,0.26907800000000004,-0.1147,0.482681,0.185944
793,7.93,-0.665445,-0.976136,0.13761099999999998,-0.094467,0.423019,0.22749299999999997
794,7.94,-0.621549,-1.201992,-0.10172300000000001,-0.065704,0.312241,0.26263400000000003
795,7.95,-0.5537489999999999,-1.2772270000000001,-0.522253,-0.055054,0.17056300000000002,0.294601
796,7.96,-0.38855500000000004,-1.376681,-0.8138770000000001,-0.07635499999999999,0.039536,0.312714
797,7.97,-0.159724,-1.457274,-1.169058,-0.148788,-0.072327,0.334015
798,7.98,0.013536000000000006,-1.5120770000000001,-1.29859,-0.196732,-0.093628,0.33827199999999996
799,7.99,0.073914,-1.5451709999999999,-1.325975,-0.218033,-0.11174,0.334015
800,8.0,0.179722,-1.526131,-1.334025,-0.207382,-0.125595,0.323364
801,8.01,0.25600500000000004,-1.494208,-1.285532,-0.162643,-0.120255,0.30950900000000003
802,8.02,0.245682,-1.466012,-1.256646,-0.082748,-0.120255,0.285019
803,8.03,0.26743,-1.369038,-1.329625,0.019516,-0.120255,0.249863
804,8.04,0.24670799999999998,-1.184343,-1.314771,0.114319,-0.09256,0.220032
805,8.05,0.25369899999999995,-1.0255,-1.386017,0.183563,-0.025452,0.185944
806,8.06,0.23144299999999998,-0.8029149999999999,-1.365335,0.225113,0.062958,0.147598
807,8.07,0.147275,-0.5106649999999999,-1.235587,0.233643,0.160965,0.10497999999999999
808,8.08,-0.08346,-0.32514899999999997,-1.032666,0.228302,0.22914099999999998,0.063431
809,8.09,-0.37516900000000003,-0.144556,-0.75926,0.22724899999999998,0.255783,0.041061
810,8.1,-0.665478,0.01795000000000001,-0.505784,0.23683200000000001,0.235535,0.030411
811,8.11,-0.8466440000000001,0.178048,-0.325966,0.249619,0.178009,0.038939999999999995
812,8.12,-1.044554,0.345057,-0.146298,0.25387600000000005,0.091721,0.064499
813,8.13,-1.106283,0.5204479999999999,0.010561,0.245346,-0.024384000000000003,0.10818499999999999
814,8.14,-0.977902,0.642748,0.040301,0.23257399999999998,-0.183105,0.15504500000000002
815,8.15,-0.762482,0.797692,0.10103999999999999,0.219788,-0.325851,0.185944
816,8.16,-0.429569,1.004764,0.14800000000000002,0.18676800000000002,-0.38765,0.176361
817,8.17,-0.186085,1.193007,0.22298400000000002,0.156937,-0.378052,0.138
818,8.18,-0.157084,1.276835,0.408966,0.14415,-0.324799,0.082611
819,8.19,-0.16595,1.4224510000000001,0.545195,0.142029,-0.25235,0.020828
820,8.2,-0.130278,1.58332,0.8332510000000001,0.155869,-0.155411,-0.03244
821,8.21,-0.19351,1.6256059999999999,1.057325,0.192093,-0.065933,-0.070786
822,8.22,-0.346867,1.617033,1.237706,0.23257399999999998,-0.002014000000000002,-0.111267
823,8.23,-0.570982,1.557923,1.346525,0.258133,0.035263,-0.161331
824,8.24,-0.745386,1.4692969999999999,1.466855,0.274109,0.041656,-0.19222999999999998
825,8.25,-0.9239209999999999,1.270559,1.4813,0.284775,0.008635999999999998,-0.219925
826,8.26,-1.0872549999999999,1.1322290000000002,1.643413,0.29435700000000004,-0.043564,-0.242294
827,8.27,-0.9916739999999999,1.187096,1.7013080000000003,0.327377,-0.129852,-0.24122600000000002
828,8.28,-0.71443,1.224107,1.508022,0.40834000000000004,-0.270462,-0.22311399999999998
829,8.29,-0.312303,1.199266,1.076708,0.49888599999999994,-0.378052,-0.227386
830,8.3,0.16699799999999998,1.320943,0.529655,0.537231,-0.418533,-0.251877
831,8.31,0.573696,1.460465,0.035482000000000014,0.512741,-0.375931,-0.27319299999999996
832,8.32,0.8973180000000001,1.605893,-0.27566999999999997,0.41580200000000006,-0.242767,-0.297684
833,8.33,0.87313,1.484532,-0.262291,0.25387600000000005,-0.0009460000000000024,-0.328583
834,8.34,0.41979399999999994,0.953669,-0.045692999999999984,0.057861,0.237671,-0.346695
835,8.35,0.061572000000000016,0.390049,0.28472800000000004,-0.110443,0.332474,-0.337097
836,8.36,-0.070126,0.006944000000000007,0.68252,-0.210587,0.27388,-0.301956
837,8.37,-0.053638,-0.376247,0.944075,-0.251053,0.099182,-0.276382
838,8.38,-0.043958,-0.684132,0.924207,-0.242538,-0.17565899999999998,-0.267853
839,8.39,0.17695299999999994,-0.841038,0.7192850000000001,-0.19354200000000002,-0.513351,-0.285965
840,8.4,0.621744,-0.623574,0.386903,-0.13707,-0.7445069999999999,-0.328583
841,8.41,0.984399,-0.32009099999999996,0.003268999999999994,-0.09765599999999999,-0.774338,-0.37439
842,8.42,1.115512,-0.147697,-0.454269,-0.092331,-0.65715,-0.40741
843,8.43,1.08189,-0.12427,-0.695028,-0.125366,-0.48138400000000003,-0.429779
844,8.44,0.90756,-0.054496,-0.7655,-0.176498,-0.22998000000000002,-0.419128
845,8.45,0.608476,-0.214112,-0.6132770000000001,-0.232956,0.07041900000000001,-0.37864699999999996
846,8.46,0.28234699999999996,-0.46481000000000006,-0.251004,-0.271301,0.343124,-0.30300900000000003
847,8.47,-0.07091500000000002,-0.7895840000000001,0.031283000000000005,-0.291534,0.501846,-0.216721
848,8.48,-0.23087199999999997,-1.218905,0.184648,-0.300064,0.49758900000000006,-0.148544
849,8.49,-0.27472399999999997,-1.542716,0.257092,-0.298996,0.375092,-0.096359
850,8.5,-0.320096,-1.803594,0.296261,-0.284088,0.15351900000000002,-0.082504
851,8.51,-0.276443,-1.970823,0.152584,-0.242538,-0.129852,-0.095291
852,8.52,-0.170975,-2.037273,-0.10273399999999999,-0.183945,-0.402557,-0.111267
853,8.53,0.01414800000000001,-1.981596,-0.503749,-0.120026,-0.59111,-0.115524
854,8.54,0.261074,-1.8528650000000002,-0.860325,-0.073166,-0.6401060000000001,-0.119781
855,8.55,0.388948,-1.6079510000000001,-1.161832,-0.046524,-0.570862,-0.126175
856,8.56,0.495778,-1.5104799999999998,-1.3409309999999999,-0.031616000000000005,-0.451553,-0.127243
857,8.57,0.582228,-1.397498,-1.285013,-0.009247000000000002,-0.281113,-0.12831099999999998
858,8.58,0.6571640000000001,-1.244193,-1.043406,0.03656,-0.077652,-0.127243
859,8.59,0.633307,-1.199279,-0.87602,0.127106,0.078949,-0.12298599999999998
860,8.6,0.549639,-1.214699,-0.7303029999999999,0.243225,0.146057,-0.111267
861,8.61,0.488755,-1.210169,-0.728452,0.362534,0.140732,-0.086761
862,8.62,0.521821,-1.0838969999999999,-0.891057,0.46266199999999996,0.090668,-0.06546
863,8.63,0.576852,-0.949801,-1.100063,0.514862,0.04805,-0.048416
864,8.64,0.586477,-0.774417,-1.2309940000000001,0.5063479999999999,0.057632,-0.029236
865,8.65,0.58435,-0.638911,-1.296262,0.456268,0.078949,-0.019653
866,8.66,0.506733,-0.432662,-1.2032040000000002,0.380646,0.10876500000000001,-0.014328
867,8.67,0.383278,-0.281451,-1.053936,0.299683,0.137527,0.0016479999999999993
868,8.68,0.316831,-0.20974299999999999,-0.78164,0.228302,0.139664,0.036804
869,8.69,0.176857,-0.209891,-0.427544,0.178238,0.10131799999999999,0.07196
870,8.7,0.150851,-0.13888399999999998,-0.239905,0.161194,0.016097999999999998,0.110306
871,8.71,0.252594,-0.064099,-0.095058,0.16758699999999999,-0.098953,0.139069
872,8.72,0.338801,0.145825,0.121044,0.169724,-0.16819800000000001,0.15399200000000002
873,8.73,0.486887,0.3943,0.165506,0.18144200000000002,-0.20761100000000002,0.15504500000000002
874,8.74,0.568892,0.6352899999999999,0.256171,0.197418,-0.22465500000000002,0.133743
875,8.75,0.718254,0.961051,0.272499,0.198486,-0.17138699999999998,0.10391199999999999
876,8.76,0.715329,1.24196,0.321223,0.184631,-0.09256,0.066635
877,8.77,0.596453,1.53976,0.372577,0.140961,0.062958,0.024017
878,8.78,0.504089,1.887071,0.633555,0.056808000000000004,0.281342,-0.001540999999999999
879,8.79,0.23219099999999998,1.9601950000000001,0.926692,-0.040131,0.48480200000000007,0.01976
880,8.8,-0.002602999999999994,1.8176720000000002,1.2710860000000002,-0.11683699999999998,0.590271,0.038939999999999995
881,8.81,0.023986,1.9087,1.646534,-0.167969,0.577484,0.035736000000000004
882,8.82,-0.062912,1.968287,1.9245700000000001,-0.192474,0.476288,0.017624
883,8.83,-0.335217,1.77712,1.8678709999999998,-0.215912,0.34205599999999997,-0.020721
884,8.84,-0.335889,1.737237,1.670294,-0.25,0.150314,-0.039886000000000005
885,8.85,-0.266164,1.8631209999999998,1.49486,-0.304321,0.007567999999999998,-0.047348
886,8.86,-0.45585699999999996,1.663647,1.333795,-0.399124,0.013962,-0.051605
887,8.87,-0.974094,1.212214,1.333218,-0.509918,0.086395,-0.03244
888,8.88,-1.4753319999999999,0.65382,1.487358,-0.601532,0.1418,0.026154000000000004
889,8.89,-1.774309,0.200653,1.7473130000000001,-0.652664,0.146057,0.111374
890,8.9,-1.854754,-0.168213,1.924218,-0.645203,0.07788099999999999,0.19873
891,8.91,-1.674612,-0.5162899999999999,2.023909,-0.568512,-0.076584,0.26263400000000003
892,8.92,-1.335576,-0.734172,1.9108580000000002,-0.43428,-0.297089,0.283951
893,8.93,-0.8929860000000001,-0.775722,1.402625,-0.25851399999999997,-0.5655359999999999,0.24772600000000003
894,8.94,-0.413897,-0.682825,0.6575449999999999,-0.077423,-0.7807310000000001,0.182739
895,8.95,-0.073384,-0.4956,-0.05021500000000001,0.05146799999999999,-0.814819,0.110306
896,8.96,0.0931,-0.379467,-0.730967,0.08982799999999999,-0.6560819999999999,0.05705300000000001
897,8.97,0.106549,-0.271416,-1.239814,0.06639099999999999,-0.395096,0.027222000000000003
898,8.98,-0.016883000000000002,-0.23474,-1.52006,-0.034805,-0.055283000000000006,0.022964
899,8.99,-0.244141,-0.271635,-1.410123,-0.202057,0.32608000000000004,0.059174000000000004
900,9.0,-0.526507,-0.5054270000000001,-0.9934729999999999,-0.366104,0.629684,0.13588
901,9.01,-0.69163,-0.843297,-0.473754,-0.47369399999999995,0.7724300000000001,0.226425
902,9.02,-0.798086,-1.208309,-0.10591199999999999,-0.540817,0.747925,0.302063
903,9.03,-0.9093319999999999,-1.561149,0.17399900000000001,-0.573837,0.620102,0.36491399999999996
904,9.04,-0.910643,-1.762284,0.321414,-0.565308,0.377213,0.389404
905,9.05,-0.806315,-1.860542,0.293189,-0.500336,0.054442999999999984,0.368103
906,9.06,-0.62608,-1.8677080000000001,0.139066,-0.397003,-0.245956,0.330826
907,9.07,-0.44595,-1.704589,-0.194772,-0.268097,-0.462204,0.290344
908,9.08,-0.378812,-1.6821409999999999,-0.7607189999999999,-0.143463,-0.607086,0.263702
909,9.09,-0.266445,-1.557868,-1.22571,-0.046524,-0.649704,0.25411999999999996
910,9.1,-0.12149000000000001,-1.3691,-1.606849,0.023773,-0.564484,0.255188
911,9.11,0.070015,-1.180779,-1.845747,0.081299,-0.384445,0.25198400000000004
912,9.12,0.298249,-0.995876,-1.9351599999999998,0.140961,-0.13410899999999998,0.24772600000000003
913,9.13,0.412736,-0.818023,-1.7643509999999998,0.20060699999999998,0.160965,0.23068200000000003
914,9.14,0.404937,-0.7649229999999999,-1.632768,0.26345799999999997,0.414505,0.202988
915,9.15,0.285665,-0.750162,-1.4612399999999999,0.333771,0.523163,0.156113
916,9.16,0.185564,-0.722378,-1.391599,0.391296,0.506119,0.10285899999999999
917,9.17,0.051639999999999985,-0.5951489999999999,-1.3035940000000001,0.41792299999999993,0.43154899999999996,0.046387
918,9.18,-0.07053799999999999,-0.37637,-1.2590379999999999,0.405136,0.3591,-0.015396
919,9.19,-0.31014899999999995,-0.140587,-1.203283,0.35827600000000004,0.306915,-0.063324
920,9.2,-0.655663,0.08032800000000001,-0.972877,0.297546,0.29092399999999996,-0.08357200000000001
921,9.21,-0.871373,0.302087,-0.6956479999999999,0.24855,0.310104,-0.061203
922,9.22,-1.004119,0.422285,-0.398608,0.226181,0.320755,-0.015396
923,9.23,-1.044058,0.5009060000000001,-0.17045,0.231506,0.29092399999999996,0.041061
924,9.24,-1.042737,0.41436000000000006,-0.0025320000000000065,0.242157,0.200378,0.09219400000000001
925,9.25,-0.8903129999999999,0.48096700000000003,0.046976,0.250687,0.038467,0.125229
926,9.26,-0.6571170000000001,0.509603,0.039407,0.250687,-0.15115399999999998,0.131607
927,9.27,-0.325492,0.615082,0.122195,0.22724899999999998,-0.294968,0.09751900000000001
928,9.28,-0.02665300000000001,0.80848,0.21979,0.178238,-0.338638,0.036804
929,9.29,0.12909,0.9661700000000001,0.43583299999999997,0.131363,-0.322662,-0.048416
930,9.3,0.098161,1.132549,0.6814180000000001,0.10899400000000001,-0.275787,-0.141098
931,9.31,-0.004307000000000004,1.245027,1.057041,0.099411,-0.183105,-0.2146
932,9.32,-0.201208,1.3507799999999999,1.368249,0.118591,-0.09149199999999999,-0.262527
933,9.33,-0.46662600000000004,1.417838,1.572401,0.160126,-0.028656,-0.29129
934,9.34,-0.654415,1.377016,1.724859,0.20488,-0.0020139999999999984,-0.295563
935,9.35,-0.638258,1.3736959999999998,1.992034,0.257065,0.019287000000000002,-0.282776
936,9.36,-0.361027,1.597548,1.991104,0.335907,-0.016937,-0.269989
937,9.37,-0.034443,1.8483180000000001,1.7417639999999999,0.42324799999999996,-0.15115399999999998,-0.294495
938,9.38,0.099895,1.871363,1.36907,0.467987,-0.27153,-0.35202
939,9.39,0.303477,1.829782,0.8658370000000001,0.43603500000000006,-0.327988,-0.39355500000000004
940,9.4,0.424437,1.8823580000000002,0.479083,0.34762600000000005,-0.333313,-0.401016
941,9.41,0.5100680000000001,1.8449919999999997,0.315008,0.20060699999999998,-0.29070999999999997,-0.405273
942,9.42,0.346127,1.5607280000000001,0.278615,0.026978000000000016,-0.204422,-0.404221
943,9.43,0.040547,0.934159,0.372585,-0.15199300000000002,-0.110672,-0.38504
944,9.44,-0.097179,0.43935799999999997,0.652051,-0.28834499999999996,-0.095764,-0.336044
945,9.45,0.028253999999999994,0.14674600000000002,0.818281,-0.347992,-0.202286,-0.296616
946,9.46,0.212225,-0.16203599999999999,0.797379,-0.340546,-0.41427600000000003,-0.264664
947,9.47,0.527284,-0.373619,0.524145,-0.297928,-0.645432,-0.249756
948,9.48,0.97503,-0.282842,0.096502,-0.25851399999999997,-0.793503,-0.26040599999999997
949,9.49,1.355024,-0.10243900000000002,-0.380202,-0.26384,-0.812683,-0.293427
950,9.5,1.56512,0.013796999999999995,-0.747466,-0.32243299999999997,-0.741318,-0.327515
951,9.51,1.620447,0.11264300000000001,-0.815934,-0.422562,-0.5591430000000001,-0.35202
952,9.52,1.521855,0.199629,-0.491752,-0.5152439999999999,-0.2939,-0.361603
953,9.53,1.198706,-0.026988999999999985,0.06443000000000003,-0.565308,-0.010543999999999998,-0.333908
954,9.54,0.778872,-0.276892,0.6382770000000001,-0.5578609999999999,0.204651,-0.29023699999999997
955,9.55,0.422965,-0.537642,1.032884,-0.48648100000000005,0.269623,-0.251877
956,9.56,0.132151,-0.8818370000000001,1.2438049999999998,-0.385284,0.22488400000000003,-0.213531
957,9.57,-0.048808,-1.246138,1.2295040000000002,-0.269165,0.12901300000000002,-0.174118
958,9.58,-0.162759,-1.512708,1.091888,-0.139206,-0.028656000000000008,-0.157074
959,9.59,-0.212731,-1.627542,0.783131,0.006728999999999999,-0.20761100000000002,-0.165588
960,9.6,-0.143675,-1.677843,0.334962,0.150543,-0.330124,-0.162399
961,9.61,-0.124625,-1.7742040000000001,-0.196657,0.274109,-0.373795,-0.14216600000000001
962,9.62,-0.030777999999999996,-1.723834,-0.756425,0.36039699999999997,-0.369537,-0.116592
963,9.63,0.10941300000000001,-1.7406240000000002,-1.1595030000000002,0.400879,-0.33757,-0.084641
964,9.64,0.283763,-1.659382,-1.487452,0.41047700000000004,-0.28536999999999996,-0.052673000000000005
965,9.65,0.46887299999999993,-1.62295,-1.7086689999999998,0.405136,-0.23637399999999997,-0.018585
966,9.66,0.635025,-1.630586,-1.9062540000000001,0.388092,-0.19696,0.002716
967,9.67,0.8073140000000001,-1.560846,-1.909646,0.36146500000000004,-0.160736,0.011245999999999999
968,9.68,1.016674,-1.405226,-1.9270990000000001,0.333771,-0.140503,0.006973
969,9.69,1.097664,-1.180964,-1.932064,0.297546,-0.124527,-0.027114999999999997
970,9.7,1.02398,-0.954199,-1.8582459999999998,0.24429299999999998,-0.11492899999999999,-0.077179
971,9.71,0.806643,-0.719001,-1.707122,0.168655,-0.100021,-0.11766099999999999
972,9.72,0.565639,-0.573522,-1.382157,0.090897,-0.094696,-0.13256800000000002
973,9.73,0.396812,-0.376929,-1.007493,0.033371,-0.082977,-0.13363599999999998
974,9.74,0.229586,-0.20412,-0.561271,0.024841,-0.068069,-0.143219
975,9.75,0.06210199999999999,-0.196367,-0.087112,0.06318700000000001,-0.031845,-0.12831099999999998
976,9.76,-0.09800699999999997,-0.1497,0.19001400000000002,0.159073,0.024612000000000002,-0.08996599999999999
977,9.77,-0.161629,-0.084826,0.31003200000000003,0.291153,0.080002,-0.039886000000000005
978,9.78,-0.07640599999999999,0.064324,0.28165100000000004,0.418991,0.157776,0.014435
979,9.79,0.040717,0.21984800000000002,0.187211,0.512741,0.235535,0.070892
980,9.8,0.214966,0.358091,-0.025466000000000003,0.565994,0.280273,0.119904
981,9.81,0.37709699999999996,0.521299,-0.240788,0.559601,0.286667,0.14653
982,9.82,0.560062,0.785192,-0.35273899999999997,0.494629,0.272827,0.142273
983,9.83,0.657574,1.019299,-0.418466,0.38703899999999997,0.237671,0.12735
984,9.84,0.749983,1.223416,-0.370512,0.267731,0.197189,0.119904
985,9.85,0.7540479999999999,1.364565,-0.320027,0.145218,0.152451,0.124161
986,9.86,0.7775989999999999,1.354978,-0.175795,0.029099,0.137527,0.132675
987,9.87,0.663913,1.275253,0.11277000000000001,-0.087006,0.189728,0.13588
988,9.88,0.529223,1.214682,0.47491300000000003,-0.176498,0.24939,0.139069
989,9.89,0.628254,1.330219,0.818077,-0.225494,0.24192800000000003,0.14546199999999998
990,9.9,0.5398310000000001,1.430727,1.143551,-0.23081999999999997,0.198257,0.126282
991,9.91,0.21049400000000001,1.150919,1.2231969999999999,-0.240402,0.157776,0.09751900000000001
992,9.92,0.099682,1.070906,1.13706,-0.262772,0.08320599999999999,0.080475
993,9.93,0.16885,1.197295,1.154492,-0.301132,0.038467,0.07728600000000001
994,9.94,0.045228,1.040777,1.208207,-0.377823,0.11409000000000001,0.054916
995,9.95,-0.331642,0.620664,1.229033,-0.469437,0.20677199999999998,0.029343
996,9.96,-0.681136,0.20647600000000002,1.382204,-0.5493319999999999,0.256836,0.027222000000000003
997,9.97,-0.868693,-0.110194,1.5478690000000002,-0.610062,0.26004,0.057053
998,9.98,-0.970141,-0.353459,1.7284279999999999,-0.618576,0.183334,0.082611
999,9.99,-0.939375,-0.551134,1.699772,-0.574905,0.023543999999999995,0.09219400000000001
1000,10.0,-0.724722,-0.561446,1.529722,-0.483292,-0.166061,0.090073
1001,10.01,-0.42731099999999994,-0.470102,1.1865059999999998,-0.360779,-0.307755,0.070892
1002,10.02,-0.08279899999999997,-0.19313,0.7668659999999999,-0.235077,-0.340775,0.035736000000000004
1003,10.03,0.096979,-0.027668,0.406089,-0.145599,-0.221466,-0.003677
1004,10.04,0.133163,0.202042,0.173905,-0.092331,0.012893999999999987,-0.037766
1005,10.05,0.05521899999999999,0.312236,0.01226399999999999,-0.07849099999999999,0.294128,-0.059066999999999995
1006,10.06,-0.165805,0.277929,-0.075927,-0.091263,0.5444640000000001,-0.052673000000000005
1007,10.07,-0.451632,0.023535,-0.10184700000000001,-0.136017,0.685074,-0.007934999999999998
1008,10.08,-0.639608,-0.23388600000000004,-0.125005,-0.206314,0.689346,0.048523000000000004
1009,10.09,-0.7232770000000001,-0.581041,-0.087824,-0.292603,0.614777,0.10179099999999999
1010,10.1,-0.742758,-0.831247,-0.07864600000000001,-0.374634,0.48586999999999997,0.15504500000000002
1011,10.11,-0.8023170000000001,-1.144144,-0.141807,-0.443878,0.287735,0.191269
1012,10.12,-0.825501,-1.401254,-0.317704,-0.48754899999999995,0.043793,0.22216799999999998
1013,10.13,-0.756441,-1.5649469999999999,-0.464967,-0.498199,-0.210815,0.223221
1014,10.14,-0.624649,-1.527669,-0.674768,-0.47476199999999996,-0.368469,0.220032
1015,10.15,-0.40250199999999997,-1.4891809999999999,-0.8718950000000001,-0.425766,-0.384445,0.218964
1016,10.16,-0.276496,-1.386401,-1.062538,-0.358658,-0.30348200000000003,0.220032
1017,10.17,-0.155202,-1.4315799999999999,-1.200911,-0.272369,-0.189499,0.228546
1018,10.18,-0.040461000000000004,-1.393632,-1.311192,-0.167969,-0.079788,0.23494
1019,10.19,0.094963,-1.340734,-1.417511,-0.052917,0.009704999999999998,0.23921199999999998
1020,10.2,0.124151,-1.322082,-1.5048979999999998,0.039764,0.102386,0.23494
1021,10.21,0.16247999999999999,-1.252245,-1.527223,0.10261500000000001,0.182266,0.215775
1022,10.22,0.147704,-1.09407,-1.467277,0.136703,0.242996,0.176361
1023,10.23,0.085589,-0.899389,-1.407949,0.156937,0.26216100000000003,0.119904
1024,10.24,-0.116836,-0.7027869999999999,-1.355011,0.156937,0.248322,0.058105
1025,10.25,-0.404593,-0.49868900000000005,-1.264341,0.131363,0.218491,0.016571000000000002
1026,10.26,-0.767185,-0.368411,-1.0992879999999998,0.098343,0.18866,0.014435
1027,10.27,-0.980672,-0.294375,-0.994218,0.062134,0.149246,0.059174000000000004
1028,10.28,-1.093625,-0.24015,-0.9216280000000001,0.028045999999999998,0.07788099999999999,0.11776700000000001
1029,10.29,-1.0421989999999999,-0.150701,-0.722553,-0.007110999999999998,0.0011750000000000024,0.165695
1030,10.3,-0.8948520000000001,-0.15450899999999998,-0.5621010000000001,-0.026291000000000002,-0.09362800000000003,0.190201
1031,10.31,-0.695857,-0.03661,-0.380126,-0.028426999999999997,-0.187378,0.184875
1032,10.32,-0.48639,0.094641,-0.14824400000000001,-0.010315000000000001,-0.239578,0.15504500000000002
1033,10.33,-0.32508400000000004,0.285783,0.143085,0.032303,-0.243835,0.10497999999999999
1034,10.34,-0.304359,0.550335,0.306184,0.104736,-0.22465500000000002,0.049591
1035,10.35,-0.252027,0.919319,0.560764,0.189957,-0.154343,-0.005798000000000001
1036,10.36,-0.177488,1.299226,0.674034,0.28370700000000004,-0.02652,-0.036697
1037,10.37,-0.120745,1.5780459999999998,0.6866979999999999,0.366791,0.090668,-0.060135
1038,10.38,-0.192483,1.7653729999999999,0.7581220000000001,0.40727199999999997,0.193985,-0.088898
1039,10.39,-0.193467,1.921745,0.925119,0.399811,0.277084,-0.111267
1040,10.4,-0.34155599999999997,1.925529,1.1718,0.382767,0.312241,-0.127243
1041,10.41,-0.46433,1.835272,1.469093,0.368927,0.29092399999999996,-0.156006
1042,10.42,-0.502259,1.838666,1.594156,0.36146500000000004,0.264297,-0.178375
1043,10.43,-0.35980999999999996,1.9584759999999999,1.572541,0.35827600000000004,0.203583,-0.18051099999999998
1044,10.44,-0.16451500000000002,2.057601,1.426026,0.36146500000000004,0.092789,-0.189026
1045,10.45,-0.010566000000000006,2.070985,1.114742,0.350815,-0.011611999999999996,-0.21885700000000002
1046,10.46,0.138456,2.137996,0.6774319999999999,0.29435700000000004,-0.094696,-0.246552
1047,10.47,0.319758,2.299202,0.37474,0.180374,-0.113876,-0.262527
1048,10.48,0.322538,2.416617,0.404192,-0.004989999999999994,0.019287000000000002,-0.279572
1049,10.49,-0.11327600000000003,2.058928,0.8471069999999999,-0.21696500000000002,0.267502,-0.268921
1050,10.5,-0.643472,1.285066,1.49725,-0.355453,0.45071400000000006,-0.216721
1051,10.51,-0.951364,0.5016579999999999,2.004613,-0.385284,0.4422,-0.13256800000000002
1052,10.52,-0.8568620000000001,-0.13864899999999994,2.162779,-0.33521999999999996,0.257904,-0.031372000000000004
1053,10.53,-0.544215,-0.580859,2.011098,-0.229752,-0.06486499999999999,0.046387
1054,10.54,0.04322699999999996,-0.917675,1.437529,-0.108322,-0.488846,0.07515
1055,10.55,0.851649,-0.936573,0.6928880000000001,-0.010314999999999998,-0.832916,0.050658999999999996
1056,10.56,1.57607,-0.7983210000000001,-0.036171000000000016,0.018448,-0.975662,-0.024978999999999998
1057,10.57,2.031375,-0.5962970000000001,-0.5430649999999999,-0.019897,-0.926666,-0.144287
1058,10.58,2.307789,-0.34589099999999995,-0.7077319999999999,-0.082748,-0.681656,-0.278519
1059,10.59,2.294608,-0.054864,-0.542564,-0.124298,-0.28536999999999996,-0.391434
1060,10.6,1.8716509999999997,-0.058588999999999995,-0.08965400000000001,-0.113647,0.17482,-0.453217
1061,10.61,1.231662,-0.251985,0.283468,-0.049727999999999994,0.539139,-0.45640600000000003
1062,10.62,0.6845060000000001,-0.5551729999999999,0.49687200000000004,0.042953,0.698929,-0.425522
1063,10.63,0.386357,-0.827101,0.671045,0.13030999999999998,0.734085,-0.371185
1064,10.64,0.181891,-1.0751030000000001,0.606997,0.205933,0.704254,-0.314728
1065,10.65,-0.01680500000000001,-1.381413,0.406452,0.25387600000000005,0.5551149999999999,-0.268921
1066,10.66,-0.011163,-1.531901,0.11478699999999999,0.28157,0.323959,-0.232712
1067,10.67,0.074494,-1.587769,-0.311297,0.27092,0.074677,-0.20713800000000002
1068,10.68,0.095213,-1.742994,-1.078516,0.170792,-0.26088,-0.166656
1069,10.69,0.233346,-1.7593310000000002,-1.448575,0.062134,-0.418533,-0.12831099999999998
1070,10.7,0.464555,-1.6857520000000001,-1.67935,-0.050797,-0.502686,-0.094223
1071,10.71,0.590026,-1.6546740000000002,-1.764489,-0.144531,-0.515472,-0.06439199999999999
1072,10.72,0.706889,-1.6793770000000001,-1.727998,-0.20845,-0.48458900000000005,-0.044159
1073,10.73,0.759108,-1.5925209999999999,-1.622938,-0.237213,-0.42385900000000004,-0.033507999999999996
1074,10.74,0.70917,-1.554286,-1.397285,-0.229752,-0.336517,-0.030304
1075,10.75,0.6018560000000001,-1.4624110000000001,-1.129226,-0.176498,-0.23104899999999998,-0.028183
1076,10.76,0.5596140000000001,-1.379745,-0.887125,-0.09765599999999999,-0.135178,-0.035629
1077,10.77,0.528129,-1.262285,-0.660207,0.0035400000000000006,-0.057404,-0.050552
1078,10.78,0.413566,-1.098495,-0.532343,0.120712,-0.02652,-0.070786
1079,10.79,0.321475,-1.016775,-0.541922,0.225113,-0.021194,-0.075043
1080,10.8,0.319745,-0.81968,-0.624891,0.29328899999999997,-0.004149999999999999,-0.070786
1081,10.81,0.348806,-0.694617,-0.633137,0.331635,0.029938,-0.059066999999999995
1082,10.82,0.389463,-0.522196,-0.683511,0.34016399999999997,0.08320599999999999,-0.048416
1083,10.83,0.437229,-0.357245,-0.641609,0.334839,0.10131799999999999,-0.047348
1084,10.84,0.409686,-0.269529,-0.6090260000000001,0.320984,0.095993,-0.049484
1085,10.85,0.322961,-0.121501,-0.5279699999999999,0.297546,0.09811399999999999,-0.057999
1086,10.86,0.19753199999999999,0.04726099999999999,-0.38365900000000003,0.274109,0.12048299999999999,-0.055878
1087,10.87,0.085699,0.24111,-0.271455,0.258133,0.126877,-0.035629
1088,10.88,-0.018351000000000003,0.43433,-0.21799200000000002,0.24429299999999998,0.105576,0.01976
1089,10.89,0.07948,0.647043,-0.182891,0.22937,0.049118,0.089005
1090,10.9,0.255144,0.823293,-0.18465399999999998,0.194214,-0.0020139999999999984,0.156113
1091,10.91,0.512149,1.003249,-0.281023,0.129242,-0.051025,0.189133
1092,10.92,0.669975,1.046149,-0.315206,0.034424,-0.124527,0.1689
1093,10.93,0.842777,1.259388,-0.291133,-0.089142,-0.121323,0.139069
1094,10.94,0.9150799999999999,1.438823,-0.160615,-0.238281,-0.06486499999999999,0.095398
1095,10.95,0.662697,1.352662,0.17746999999999996,-0.384216,0.032074000000000005,0.051712
1096,10.96,0.20999,1.2412450000000002,0.60242,-0.5056609999999999,0.132202,0.017624
1097,10.97,-0.03280999999999998,1.353736,1.0424799999999999,-0.572769,0.169495,0.013366999999999999
1098,10.98,-0.29097,1.517307,1.62566,-0.577026,0.105576,0.041061
1099,10.99,-0.644119,1.475511,1.888295,-0.524826,-0.008407999999999999,0.096466
1100,11.0,-0.754282,1.3214139999999999,1.869154,-0.45878599999999997,-0.155411,0.184875
1101,11.01,-0.5546939999999999,1.4360680000000001,1.7331560000000001,-0.422562,-0.265137,0.263702
1102,11.02,-0.294398,1.622608,1.5005190000000002,-0.43960600000000005,-0.274719,0.30950900000000003
1103,11.03,-0.5207649999999999,1.35855,1.4116540000000002,-0.521637,-0.17778,0.34573400000000004
1104,11.04,-0.8212649999999999,0.922316,1.54535,-0.623901,-0.06806899999999999,0.399002
1105,11.05,-0.9532069999999999,0.5841729999999999,1.870988,-0.678238,-0.035033999999999996,0.452255
1106,11.06,-1.005495,0.244533,2.0915470000000003,-0.6739649999999999,-0.049957,0.49487299999999995
1107,11.07,-0.9958950000000001,-0.154532,2.132685,-0.611115,-0.126648,0.517242
1108,11.08,-0.8217209999999999,-0.477268,1.964321,-0.513123,-0.25235,0.508713
1109,11.09,-0.485624,-0.49075799999999997,1.6362,-0.397003,-0.355682,0.47355699999999995
1110,11.1,-0.22440900000000003,-0.449212,1.1614870000000002,-0.287277,-0.39402800000000004,0.416046
1111,11.11,0.018056000000000003,-0.33047600000000005,0.6913590000000001,-0.231888,-0.314133,0.334015
1112,11.12,0.050692,-0.287866,0.248543,-0.229752,-0.146896,0.240265
1113,11.13,0.001569000000000001,-0.24515,0.07017899999999999,-0.25,0.056579999999999984,0.16037
1114,11.14,-0.180861,-0.25493699999999997,0.03957,-0.268097,0.272827,0.106049
1115,11.15,-0.487757,-0.435853,-0.07142000000000001,-0.27769499999999997,0.43367,0.090073
1116,11.16,-0.710554,-0.6790579999999999,-0.026479000000000003,-0.286209,0.505051,0.10818499999999999
1117,11.17,-0.81081,-0.885134,-0.054524,-0.297928,0.5135649999999999,0.141205
1118,11.18,-0.8820129999999999,-1.073121,-0.08820700000000001,-0.300064,0.449661,0.171036
1119,11.19,-0.9422780000000001,-1.3211469999999998,-0.181645,-0.294739,0.305847,0.181686
1120,11.2,-0.852649,-1.4855180000000001,-0.355833,-0.271301,0.12901300000000002,0.178482
1121,11.21,-0.756209,-1.584257,-0.620555,-0.21910100000000002,-0.040358999999999985,0.1689
1122,11.22,-0.618437,-1.6672939999999998,-0.968665,-0.161575,-0.165009,0.16676300000000002
1123,11.23,-0.519678,-1.659109,-1.231536,-0.100861,-0.20761100000000002,0.164642
1124,11.24,-0.37458400000000003,-1.637612,-1.5991229999999999,-0.039077999999999995,-0.19696,0.165695
1125,11.25,-0.172952,-1.523034,-1.918484,0.019516,-0.174591,0.15504500000000002
1126,11.26,-0.016010999999999984,-1.397848,-2.1165950000000002,0.068512,-0.126648,0.151855
1127,11.27,0.12746300000000002,-1.239579,-2.327384,0.10261500000000001,-0.059539999999999996,0.151855
1128,11.28,0.24939099999999997,-1.0572620000000001,-2.402168,0.11645499999999999,0.018219000000000003,0.14546199999999998
1129,11.29,0.307692,-0.8403879999999999,-2.358105,0.106873,0.102386,0.116699
1130,11.3,0.223333,-0.57509,-2.050072,0.081299,0.178009,0.055984000000000006
1131,11.31,0.056353,-0.36782,-1.8572490000000001,0.074905,0.20890799999999998,0.004852000000000002
1132,11.32,-0.25817500000000004,-0.237256,-1.536014,0.06318700000000001,0.269623,-0.047348
1133,11.33,-0.5300779999999999,-0.016149999999999998,-1.1370930000000001,0.068512,0.32608000000000004,-0.066528
1134,11.34,-0.871394,0.051414,-0.639542,0.094086,0.33461,-0.066528
1135,11.35,-1.12071,0.084868,-0.32524699999999995,0.145218,0.322891,-0.027114999999999997
1136,11.36,-1.222086,0.131606,-0.053449,0.203812,0.236603,0.024017000000000004
1137,11.37,-1.1982959999999998,0.28733800000000004,0.042844,0.246414,0.12901300000000002,0.069824
1138,11.38,-1.020551,0.522291,0.092025,0.26452600000000004,0.010772999999999998,0.09219400000000001
1139,11.39,-0.774907,0.769771,0.129403,0.24855,-0.097885,0.090073
1140,11.4,-0.5308470000000001,1.0832959999999998,0.213187,0.213394,-0.16713,0.06131
1141,11.41,-0.351754,1.216887,0.344641,0.178238,-0.23104899999999998,0.016571000000000002
1142,11.42,-0.14441899999999994,1.471499,0.576591,0.151611,-0.235306,-0.04628
1143,11.43,-0.11308299999999999,1.609324,0.795732,0.13563499999999998,-0.183105,-0.113403
1144,11.44,-0.179195,1.787294,1.068151,0.149475,-0.11174,-0.18158
1145,11.45,-0.416796,1.8510240000000002,1.380474,0.192093,-0.024384000000000003,-0.22311399999999998
1146,11.46,-0.638733,1.849402,1.636951,0.25601199999999996,0.07148700000000001,-0.22843899999999998
1147,11.47,-0.8388969999999999,1.8047799999999998,1.727444,0.334839,0.119431,-0.22843899999999998
1148,11.48,-1.037668,1.653229,1.8028380000000002,0.400879,0.152451,-0.216721
1149,11.49,-1.069926,1.610012,1.828166,0.467987,0.196121,-0.19222999999999998
1150,11.5,-0.932723,1.604622,1.619759,0.530838,0.173752,-0.156006
1151,11.51,-0.62264,1.611377,1.284184,0.5585479999999999,0.043793,-0.13363599999999998
1152,11.52,-0.293842,1.645519,0.8882549999999999,0.541504,-0.123459,-0.147491
1153,11.53,-0.088599,1.528708,0.49373900000000004,0.467987,-0.26088,-0.186905
1154,11.54,0.12055999999999999,1.470849,0.149904,0.34123200000000004,-0.30348200000000003,-0.216721
1155,11.55,0.272127,1.453202,0.092288,0.149475,-0.18631,-0.22311399999999998
1156,11.56,0.188997,1.231103,0.314308,-0.044403,0.004378999999999994,-0.21566799999999997
1157,11.57,-0.09747500000000002,0.612716,0.671237,-0.183945,0.11409000000000001,-0.189026
1158,11.58,-0.116877,0.048270000000000035,0.9100739999999999,-0.24147,0.040588,-0.141098
1159,11.59,0.166198,-0.367747,0.854341,-0.229752,-0.160736,-0.086761
1160,11.6,0.649623,-0.573455,0.548199,-0.191406,-0.389771,-0.06546
1161,11.61,1.22041,-0.624287,0.137953,-0.157318,-0.560211,-0.08996599999999999
1162,11.62,1.7534939999999999,-0.454347,-0.3918860000000001,-0.158386,-0.602829,-0.15921
1163,11.63,2.136803,-0.28468899999999997,-0.767479,-0.205261,-0.539978,-0.257202
1164,11.64,2.124714,0.029809,-0.779576,-0.309647,-0.341843,-0.371185
1165,11.65,1.9429290000000001,0.289174,-0.425545,-0.425766,-0.02865600000000001,-0.470261
1166,11.66,1.372292,0.274846,0.17461499999999994,-0.500336,0.27175900000000003,-0.53418
1167,11.67,0.7694340000000001,0.131866,0.9007639999999999,-0.520569,0.526352,-0.552292
1168,11.68,0.16031499999999993,0.0004839999999999983,1.501611,-0.48754899999999995,0.702118,-0.528854
1169,11.69,-0.478785,-0.345573,1.8491830000000002,-0.410843,0.748993,-0.460678
1170,11.7,-0.955881,-0.78866,1.999742,-0.303253,0.624359,-0.350952
1171,11.71,-1.2120819999999999,-1.0959299999999998,1.803559,-0.185013,0.36763,-0.23057600000000003
1172,11.72,-1.027479,-1.316086,1.338885,-0.073166,0.019287000000000002,-0.118729
1173,11.73,-0.553972,-1.376431,0.6143149999999999,0.009932999999999999,-0.31308,-0.031372000000000004
1174,11.74,-0.059756,-1.41042,-0.198196,0.048279,-0.536774,0.016571000000000002
1175,11.75,0.336552,-1.4938799999999999,-0.8685889999999999,0.046143,-0.629456,0.036804
1176,11.76,0.5163310000000001,-1.5759020000000001,-1.3150700000000002,0.023773,-0.614548,0.033615
1177,11.77,0.5442739999999999,-1.698854,-1.6226,0.005676,-0.536774,0.021896000000000002
1178,11.78,0.6614800000000001,-1.669518,-1.6596830000000002,0.011002,-0.399353,0.011245999999999999
1179,11.79,0.6655300000000001,-1.575611,-1.52678,0.046143,-0.22891199999999998,0.0005799999999999997
1180,11.8,0.569843,-1.4592200000000002,-1.244158,0.122849,-0.056351,-0.0004730000000000001
1181,11.81,0.552589,-1.379357,-1.0424719999999998,0.228302,0.07788099999999999,0.009109
1182,11.82,0.550473,-1.220689,-0.8570049999999999,0.354004,0.135406,0.033615
1183,11.83,0.601381,-1.0460690000000001,-0.8176770000000001,0.479706,0.121552,0.053848
1184,11.84,0.701494,-0.953844,-0.9061100000000001,0.575592,0.07788099999999999,0.070892
1185,11.85,0.763971,-0.8211440000000001,-1.13753,0.622452,0.031006,0.089005
1186,11.86,0.851168,-0.659714,-1.294875,0.608612,0.035263,0.096466
1187,11.87,0.826116,-0.431353,-1.3680370000000002,0.5351100000000001,0.075745,0.095398
1188,11.88,0.751186,-0.350285,-1.300035,0.439224,0.10983299999999999,0.09751900000000001
1189,11.89,0.565861,-0.23569,-1.1112229999999998,0.349747,0.095993,0.110306
1190,11.9,0.387874,-0.272541,-0.854383,0.289032,0.052307000000000006,0.139069
1191,11.91,0.29328899999999997,-0.23376599999999997,-0.595951,0.245346,0.013962000000000002,0.180618
1192,11.92,0.246977,-0.198545,-0.338969,0.226181,0.003311,0.22749299999999997
1193,11.93,0.25935199999999997,-0.146142,-0.151567,0.230438,-0.029708999999999996,0.26902800000000004
1194,11.94,0.300154,-0.04006099999999999,0.025128,0.25174,-0.085114,0.30632
1195,11.95,0.5234979999999999,0.111034,0.101312,0.273056,-0.14263900000000002,0.322296
1196,11.96,0.7669090000000001,0.26810900000000004,0.113419,0.286896,-0.174591,0.316971
1197,11.97,0.9383520000000001,0.536958,-0.045448000000000016,0.278381,-0.16819800000000001,0.27967800000000004
1198,11.98,1.083705,0.723773,-0.083848,0.23683200000000001,-0.137299,0.22749299999999997
1199,11.99,1.067442,0.8593299999999999,-0.11873,0.162262,-0.085114,0.176361
1200,12.0,0.935308,1.0125870000000001,-0.05341099999999999,0.06425499999999999,-0.004150000000000001,0.138
1201,12.01,0.574561,0.9823370000000001,0.23012399999999997,-0.055054,0.138596,0.134811
1202,12.02,0.34382399999999996,0.9848319999999999,0.585318,-0.172226,0.254715,0.144394
1203,12.03,0.194113,1.018885,1.092696,-0.252121,0.24192800000000003,0.165695
1204,12.04,-0.015046000000000004,0.993392,1.356364,-0.28941300000000003,0.09811399999999999,0.164642
1205,12.05,-0.256385,0.75859,1.584665,-0.32243299999999997,-0.051025,0.156113
1206,12.06,-0.08310300000000001,0.8923270000000001,1.631991,-0.345871,-0.184174,0.152924
1207,12.07,0.143861,1.098742,1.480957,-0.365036,-0.259811,0.12735
1208,12.08,0.114873,1.1366290000000001,1.319469,-0.40979,-0.19802899999999998,0.086868
1209,12.09,-0.20438599999999998,0.918394,1.236059,-0.483292,-0.003082000000000001,0.065567
1210,12.1,-0.636916,0.696235,1.354603,-0.581299,0.277084,0.08154299999999999
1211,12.11,-1.0415590000000001,0.393029,1.6280290000000002,-0.675034,0.510376,0.12309300000000001
1212,12.12,-1.410085,-0.07836899999999998,1.8330229999999998,-0.7304229999999999,0.577484,0.19233699999999998
1213,12.13,-1.542445,-0.459611,1.9582709999999999,-0.737885,0.49012799999999995,0.27116399999999996
1214,12.14,-1.397592,-0.656193,1.9367759999999998,-0.696335,0.254715,0.32869
1215,12.15,-1.058913,-0.727838,1.7364580000000003,-0.611115,-0.055283000000000034,0.351059
1216,12.16,-0.555502,-0.65004,1.273599,-0.500336,-0.34928899999999996,0.31590300000000004
1217,12.17,-0.024820999999999985,-0.451937,0.7197479999999999,-0.377823,-0.5218659999999999,0.25198400000000004
1218,12.18,0.294668,-0.189383,0.144592,-0.290482,-0.49736,0.181686
1219,12.19,0.42542299999999994,-0.008979000000000001,-0.393073,-0.244675,-0.34928899999999996,0.110306
1220,12.2,0.303962,-0.05179400000000001,-0.73754,-0.232956,-0.16394,0.055984000000000006
1221,12.21,0.19522899999999999,-0.043231,-0.8255540000000001,-0.23081999999999997,0.06828300000000001,0.033615
1222,12.22,0.10720199999999999,-0.071476,-0.776347,-0.223358,0.34526100000000004,0.051712
1223,12.23,0.008027,-0.293135,-0.625951,-0.205261,0.574295,0.07728600000000001
1224,12.24,-0.226406,-0.511321,-0.503253,-0.182877,0.705322,0.09219400000000001
1225,12.25,-0.5058729999999999,-0.8267549999999999,-0.338661,-0.14773599999999998,0.738342,0.098587
1226,12.26,-0.699706,-0.874933,-0.154088,-0.087006,0.72023,0.093262
1227,12.27,-0.9131540000000001,-0.9526399999999999,-0.108805,-0.0017850000000000019,0.631821,0.090073
1228,12.28,-1.1213870000000001,-1.113817,-0.212554,0.099411,0.49012799999999995,0.116699
1229,12.29,-1.081553,-1.063821,-0.5051979999999999,0.172913,0.35591100000000003,0.16676300000000002
1230,12.3,-0.939583,-0.9566959999999999,-0.8551790000000001,0.21659899999999999,0.235535,0.237076
1231,12.31,-0.775857,-0.917653,-1.2952540000000001,0.21553000000000003,0.143921,0.312714
1232,12.32,-0.524984,-1.026702,-1.558917,0.161194,0.07041900000000001,0.37235999999999997
1233,12.33,-0.281616,-0.9630569999999999,-1.7532290000000001,0.074905,0.017151,0.407516
1234,12.34,-0.087897,-0.965093,-1.764184,-0.008178999999999999,-0.041428,0.418167
1235,12.35,-0.09267,-0.953574,-1.680279,-0.056122000000000005,-0.105347,0.400055
1236,12.36,0.009361,-0.896423,-1.541936,-0.063568,-0.157547,0.363846
1237,12.37,0.094899,-0.762049,-1.384708,-0.027358999999999998,-0.17778,0.30844099999999997
1238,12.38,0.12090999999999999,-0.548417,-1.2648760000000001,0.034424,-0.13836700000000002,0.22749299999999997
1239,12.39,-0.010864000000000006,-0.34683600000000003,-1.076141,0.105804,-0.039307,0.15399200000000002
1240,12.4,-0.19988699999999998,-0.15221300000000001,-1.019083,0.179306,0.092789,0.10072300000000001
1241,12.41,-0.365792,0.08939199999999997,-0.858975,0.234695,0.225952,0.069824
1242,12.42,-0.562724,0.26855300000000004,-0.738334,0.26239,0.34845,0.058105
1243,12.43,-0.818079,0.373342,-0.473738,0.26345799999999997,0.435806,0.051712
1244,12.44,-0.962576,0.402348,-0.12034600000000005,0.26026900000000003,0.48586999999999997,0.070892
1245,12.45,-1.0108030000000001,0.49977200000000005,0.130455,0.279434,0.458176,0.09433
1246,12.46,-1.004066,0.47989,0.337163,0.306076,0.31756599999999996,0.10497999999999999
1247,12.47,-0.882232,0.554534,0.48901700000000003,0.334839,0.137527,0.099655
1248,12.48,-0.723601,0.7462300000000001,0.531029,0.348679,-0.054214,0.064499
1249,12.49,-0.579259,0.997713,0.596708,0.339096,-0.195892,0.008041
1250,12.5,-0.45993199999999995,1.283269,0.6984640000000001,0.322052,-0.268326,-0.042023000000000005
1251,12.51,-0.39157800000000004,1.5278209999999999,0.8750100000000001,0.31033299999999997,-0.263,-0.076111
1252,12.52,-0.358072,1.7377099999999999,0.9223889999999999,0.316727,-0.191635,-0.095291
1253,12.53,-0.320376,1.876061,0.962901,0.32311999999999996,-0.08830300000000002,-0.111267
1254,12.54,-0.27170900000000003,1.871896,0.974467,0.325241,0.022491,-0.126175
1255,12.55,-0.23899099999999998,1.697182,1.109138,0.32311999999999996,0.095993,-0.14216600000000001
1256,12.56,-0.092812,1.778068,1.236804,0.339096,0.144989,-0.16986099999999998
1257,12.57,0.06399500000000001,1.796032,1.200475,0.37744099999999997,0.10025,-0.195419
1258,12.58,0.191915,1.657488,0.968382,0.400879,0.015030000000000003,-0.22525
1259,12.59,0.404817,1.645113,0.589553,0.379578,-0.041428,-0.275314
1260,12.6,0.6430100000000001,1.7275919999999998,0.23798200000000003,0.30394,-0.08190900000000001,-0.329651
1261,12.61,0.805286,1.815896,0.114808,0.161194,-0.03717,-0.379715
1262,12.62,0.657927,1.7669099999999998,0.258193,-0.004989999999999981,0.12262,-0.41593900000000006
1263,12.63,0.014579000000000009,1.22033,0.686728,-0.180756,0.35591100000000003,-0.425522
1264,12.64,-0.574832,0.6624329999999999,1.279493,-0.333084,0.517838,-0.404221
1265,12.65,-0.937193,0.237525,1.8739270000000001,-0.387421,0.517838,-0.355209
1266,12.66,-1.027299,-0.25753899999999996,2.129292,-0.343735,0.350586,-0.271057
1267,12.67,-0.9165840000000001,-0.6710020000000001,2.088977,-0.228683,0.017151,-0.203949
1268,12.68,-0.43386800000000003,-0.9338129999999999,1.576325,-0.069962,-0.372726,-0.176254
1269,12.69,0.230371,-0.939789,0.8492639999999999,0.08343500000000001,-0.7050930000000001,-0.200745
1270,12.7,0.846091,-0.769825,0.13809300000000002,0.172913,-0.7913819999999999,-0.246552
1271,12.71,1.2922280000000002,-0.464761,-0.5114749999999999,0.192093,-0.617737,-0.326447
1272,12.72,1.418192,-0.163463,-0.815499,0.140961,-0.314133,-0.413803
1273,12.73,1.1738,-0.006031999999999982,-0.6794479999999999,0.052536,0.032073999999999984,-0.471329
1274,12.74,0.746304,0.050186,-0.16786600000000002,-0.006042,0.34526100000000004,-0.45535299999999995
1275,12.75,0.25785,-0.206058,0.26862800000000003,-0.018829,0.499725,-0.386108
1276,12.76,-0.081425,-0.574345,0.514542,-0.01564,0.47735600000000006,-0.304077
1277,12.77,-0.251255,-0.915525,0.5742430000000001,-0.014572,0.35484299999999996,-0.21885700000000002
1278,12.78,-0.284788,-1.1973790000000002,0.5676979999999999,-0.008179,0.16735799999999998,-0.15387
1279,12.79,-0.219842,-1.4153719999999999,0.35104,0.012054,-0.06379700000000002,-0.113403
1280,12.8,-0.150395,-1.56121,0.089003,0.040817,-0.299225,-0.08357200000000001
1281,12.81,-0.0069079999999999975,-1.626911,-0.275595,0.06957999999999999,-0.47073400000000004,-0.048416
1282,12.82,0.16907,-1.683171,-0.675896,0.100479,-0.562347,-0.023911
1283,12.83,0.42615600000000003,-1.6569040000000002,-1.018765,0.128174,-0.584717,-0.017516999999999998
1284,12.84,0.698809,-1.524659,-1.342749,0.152679,-0.516541,-0.023911
1285,12.85,0.947045,-1.411251,-1.503221,0.158005,-0.351425,-0.040955
1286,12.86,1.042793,-1.326201,-1.514095,0.16333,-0.14263900000000002,-0.057999
1287,12.87,1.031767,-1.23936,-1.363191,0.19528199999999998,0.059769,-0.059066999999999995
1288,12.88,0.982756,-1.28596,-1.198787,0.23896799999999999,0.21636999999999998,-0.053741
1289,12.89,0.862909,-1.315492,-1.087323,0.286896,0.284546,-0.045226999999999996
1290,12.9,0.773278,-1.3437569999999999,-0.9547620000000001,0.334839,0.284546,-0.036697
1291,12.91,0.6250600000000001,-1.2628700000000002,-0.8945620000000001,0.36467,0.250458,-0.020721
1292,12.92,0.5575899999999999,-1.239299,-0.887582,0.37744099999999997,0.169495,0.011246
1293,12.93,0.566554,-1.084953,-0.948227,0.366791,0.073624,0.045334
1294,12.94,0.673708,-0.76627,-0.9853459999999999,0.317795,0.033142000000000005,0.067703
1295,12.95,0.765541,-0.529429,-1.043395,0.231506,0.025681,0.089005
1296,12.96,0.717406,-0.406348,-1.0063389999999999,0.127106,0.034194999999999996,0.107117
1297,12.97,0.669502,-0.311717,-0.897387,0.025908999999999998,0.043793,0.118835
1298,12.98,0.581363,-0.23990300000000003,-0.5200229999999999,-0.052917,0.050186,0.134811
1299,12.99,0.46679499999999996,-0.24850799999999998,-0.07460899999999998,-0.092331,0.053375,0.142273
1300,13.0,0.32810700000000004,-0.24612199999999998,0.26853899999999997,-0.07103,0.027817,0.142273
1301,13.01,0.159548,-0.098976,0.6593319999999999,0.033371,-0.02652,0.142273
1302,13.02,0.11604,0.102631,0.748804,0.132431,-0.042496,0.13694800000000001
1303,13.03,0.011965000000000005,0.384832,0.636517,0.226181,-0.053146000000000006,0.147598
1304,13.04,0.141281,0.6444270000000001,0.472135,0.298615,-0.046752999999999996,0.17208900000000002
1305,13.05,0.206852,0.9207540000000001,0.193999,0.32418800000000003,0.008636000000000001,0.19233699999999998
1306,13.06,0.378085,1.157604,-0.00016199999999999548,0.301819,0.092789,0.199799
1307,13.07,0.444028,1.371912,-0.158174,0.241089,0.16203299999999998,0.20192000000000002
1308,13.08,0.449851,1.436146,-0.058868,0.136703,0.25364699999999996,0.19233699999999998
1309,13.09,0.136614,1.414648,0.249377,-0.003921999999999995,0.379349,0.189133
1310,13.1,-0.229108,1.247949,0.634969,-0.131744,0.43261700000000003,0.19873
1311,13.11,-0.446888,1.1996719999999998,1.230537,-0.228683,0.34526100000000004,0.20192000000000002
1312,13.12,-0.565249,1.2702579999999999,1.5762610000000001,-0.287277,0.218491,0.214706
1313,13.13,-0.68412,1.150892,1.800489,-0.303253,0.06295799999999999,0.2211
1314,13.14,-0.755979,0.981247,1.795043,-0.300064,-0.085114,0.23388699999999998
1315,13.15,-0.468869,1.08569,1.660265,-0.27769499999999997,-0.187378,0.270096
1316,13.16,-0.247209,1.071121,1.487741,-0.26597600000000005,-0.156479,0.303116
1317,13.17,-0.158296,0.8453149999999999,1.194849,-0.271301,-0.02652,0.316971
1318,13.18,-0.272386,0.387473,0.987526,-0.291534,0.091721,0.32869
1319,13.19,-0.27721,0.04997299999999999,0.855381,-0.313904,0.200378,0.33827199999999996
1320,13.2,-0.23846599999999998,-0.171639,0.7323270000000001,-0.32456999999999997,0.276016,0.342529
1321,13.21,-0.22884200000000002,-0.44483900000000004,0.589106,-0.329895,0.29731799999999997,0.323364
1322,13.22,-0.272581,-0.509943,0.5248229999999999,-0.320297,0.280273,0.2733
1323,13.23,-0.29783699999999996,-0.44586099999999995,0.589026,-0.303253,0.24406399999999998,0.214706
1324,13.24,-0.344708,-0.312434,0.5275310000000001,-0.264908,0.192932,0.171036
1325,13.25,-0.332608,-0.231127,0.455509,-0.21377600000000002,0.146057,0.13694800000000001
1326,13.26,-0.328522,-0.093342,0.453946,-0.188202,0.181213,0.10391199999999999
1327,13.27,-0.35271199999999997,0.032165,0.530058,-0.17968800000000001,0.26004,0.08154299999999999
1328,13.28,-0.498767,0.005416000000000001,0.505836,-0.16050699999999998,0.31756599999999996,0.07728600000000001
1329,13.29,-0.5741470000000001,-0.13551400000000002,0.49068599999999996,-0.141342,0.33461,0.090073
1330,13.3,-0.638997,-0.247858,0.27117600000000003,-0.128555,0.314362,0.122025
1331,13.31,-0.558305,-0.430933,-5.1999999999996493e-05,-0.124298,0.263229,0.16676300000000002
1332,13.32,-0.43633299999999997,-0.660506,-0.339619,-0.136017,0.187607,0.20512399999999997
1333,13.33,-0.238513,-0.873527,-0.70297,-0.15945399999999998,0.102386,0.236008
1334,13.34,-0.003058000000000005,-1.042709,-1.0557299999999998,-0.192474,0.029938,0.237076
1335,13.35,0.234841,-1.1665379999999999,-1.30083,-0.225494,-0.01799,0.21044899999999997
1336,13.36,0.284895,-1.14425,-1.4834969999999998,-0.271301,0.012894,0.17208900000000002
1337,13.37,0.254497,-1.254818,-1.5061129999999998,-0.310715,0.064026,0.130554
1338,13.38,0.22666599999999998,-1.284565,-1.322216,-0.327759,0.130081,0.095398
1339,13.39,0.132487,-1.2396399999999999,-1.127225,-0.290482,0.200378,0.073029
1340,13.4,-0.122026,-1.29526,-0.9940540000000001,-0.210587,0.22914099999999998,0.066635
1341,13.41,-0.311954,-1.259153,-0.878519,-0.10298199999999999,0.24725300000000003,0.0858
1342,13.42,-0.384381,-1.201214,-0.898568,0.015259000000000003,0.22169499999999998,0.12735
1343,13.43,-0.326814,-1.093452,-1.068384,0.127106,0.17588800000000002,0.178482
1344,13.44,-0.128997,-1.052408,-1.309755,0.201675,0.12262,0.20724499999999998
1345,13.45,0.107639,-0.9199440000000001,-1.545503,0.226181,0.071487,0.202988
1346,13.46,0.262996,-0.734236,-1.7889990000000002,0.20060699999999998,0.041656,0.17741400000000002
1347,13.47,0.260728,-0.638808,-1.848284,0.131363,0.024612000000000002,0.11456300000000001
1348,13.48,0.06858999999999997,-0.450205,-1.733493,0.054672000000000005,0.013962,0.047455000000000004
1349,13.49,-0.18650799999999998,-0.32986,-1.4777870000000002,-0.009246999999999998,0.029938,-0.0004730000000000012
1350,13.5,-0.461512,-0.20761999999999997,-1.108303,-0.04866,0.071487,-0.015396
1351,13.51,-0.722173,-0.11600999999999999,-0.8176979999999999,-0.051849,0.07788099999999999,0.0016480000000000002
1352,13.52,-0.873351,-0.071418,-0.46662600000000004,-0.027358999999999998,0.04805,0.041061
1353,13.53,-0.8713549999999999,-0.06909900000000001,-0.20505500000000002,0.011002,-0.024384,0.084747
1354,13.54,-0.785483,0.010117,-0.002905000000000019,0.074905,-0.152222,0.11456300000000001
1355,13.55,-0.5233909999999999,0.250965,0.156347,0.145218,-0.272598,0.110306
1356,13.56,-0.31248400000000004,0.578531,0.241087,0.199554,-0.370605,0.074097
1357,13.57,-0.11594600000000001,0.8307100000000001,0.24621300000000002,0.23576399999999997,-0.440903,0.014435
1358,13.58,-0.015399000000000003,1.115069,0.262849,0.257065,-0.4505,-0.05693100000000001
1359,13.59,-0.01819,1.439303,0.434813,0.258133,-0.371658,-0.1315
1360,13.6,-0.08866900000000001,1.775361,0.582155,0.275177,-0.21933000000000002,-0.182632
1361,13.61,-0.268102,1.906349,0.764493,0.296494,-0.077652,-0.203949
1362,13.62,-0.42307100000000003,1.920841,0.896243,0.31033299999999997,0.058700999999999996,-0.21885700000000002
1363,13.63,-0.520438,1.929411,1.0394809999999999,0.306076,0.15564,-0.227386
1364,13.64,-0.792349,1.806356,1.199569,0.2901,0.200378,-0.24761999999999998
1365,13.65,-1.150164,1.650856,1.409508,0.285828,0.200378,-0.254013
1366,13.66,-1.385591,1.476497,1.5683340000000001,0.291153,0.136475,-0.232712
1367,13.67,-1.319744,1.391265,1.5750629999999999,0.31140100000000004,-0.031845,-0.18158
1368,13.68,-0.9768969999999999,1.503855,1.274258,0.355072,-0.294968,-0.130447
1369,13.69,-0.544606,1.5810469999999999,0.6945730000000001,0.371048,-0.528259,-0.11445599999999999
1370,13.7,-0.32005300000000003,1.4629940000000001,0.147569,0.2901,-0.609222,-0.11445599999999999
1371,13.71,0.06694400000000003,1.498561,-0.195442,0.13349899999999998,-0.566605,-0.11233499999999999
1372,13.72,0.480814,1.737106,-0.287462,-0.042266999999999985,-0.462204,-0.113403
1373,13.73,0.40820100000000004,1.41773,0.038048,-0.220169,-0.286438,-0.10594200000000001
1374,13.74,0.13101500000000002,0.769588,0.43357399999999996,-0.363983,-0.136246,-0.084641
1375,13.75,-0.03701,0.278584,0.813674,-0.44281000000000004,-0.157547,-0.042023000000000005
1376,13.76,0.126873,-0.057308999999999985,1.079861,-0.45346099999999995,-0.2939,0.010178
1377,13.77,0.33924,-0.279098,1.152691,-0.418304,-0.483521,0.040008999999999996
1378,13.78,0.619534,-0.461999,0.95014,-0.359711,-0.6710050000000001,0.021896000000000002
1379,13.79,1.097272,-0.379884,0.6612319999999999,-0.29686,-0.784988,-0.044159
1380,13.8,1.381947,-0.11950200000000002,0.329837,-0.256393,-0.788177,-0.168793
1381,13.81,1.326568,0.058316,0.07159299999999999,-0.22230500000000003,-0.713608,-0.311539
1382,13.82,1.129478,0.23774,-0.027304000000000002,-0.181824,-0.537842,-0.413803
1383,13.83,0.8326180000000001,0.312732,0.049188,-0.127487,-0.235306,-0.457474
1384,13.84,0.46401899999999996,0.223476,0.158693,-0.052917,0.11943099999999998,-0.448959
1385,13.85,0.05499199999999999,-0.004607,0.1541,0.034424,0.416626,-0.41593900000000006
1386,13.86,-0.253421,-0.350544,0.099953,0.113266,0.613708,-0.35202
1387,13.87,-0.39567800000000003,-0.683121,0.017683000000000004,0.152679,0.729813,-0.262527
1388,13.88,-0.358083,-1.001191,-0.129181,0.168655,0.747925,-0.190094
1389,13.89,-0.380608,-1.316562,-0.21709,0.168655,0.671234,-0.134705
1390,13.9,-0.29830999999999996,-1.5613299999999999,-0.523568,0.1548,0.47947700000000004,-0.08996599999999999
1391,13.91,-0.24172,-1.8051400000000002,-0.8307950000000001,0.13456700000000002,0.199326,-0.055878
1392,13.92,0.002778000000000003,-1.787396,-1.33665,0.08876,-0.112808,-0.028183
1393,13.93,0.2794,-1.798758,-1.695398,0.015259000000000003,-0.36740100000000003,-0.016464
1394,13.94,0.5641729999999999,-1.693137,-2.0297520000000002,-0.085938,-0.485641,-0.020721
1395,13.95,0.774988,-1.525968,-2.145638,-0.190338,-0.512283,-0.029236
1396,13.96,0.770588,-1.454612,-2.134185,-0.27555799999999997,-0.496292,-0.039886000000000005
1397,13.97,0.773096,-1.3306200000000001,-1.915664,-0.328827,-0.43771400000000005,-0.043091000000000004
1398,13.98,0.792084,-1.202012,-1.638999,-0.325623,-0.352493,-0.026047000000000004
1399,13.99,0.7546109999999999,-1.139881,-1.383536,-0.26384,-0.27366599999999996,-0.007934999999999998
1400,14.0,0.678127,-1.0514780000000001,-1.045657,-0.16050699999999998,-0.18098399999999998,0.003784000000000001
1401,14.01,0.656842,-0.9296260000000001,-0.872713,-0.031615999999999984,-0.093628,0.011245999999999999
1402,14.02,0.5747329999999999,-0.7035239999999999,-0.8740389999999999,0.159073,-0.044632,-0.01326
