,ts,ax,ay,az,wx,wy,wz
0,0.0,0.081776,-0.032907,-0.15162799999999999,0.019272,0.0327,-0.0004270000000000003
1,0.01,0.102523,-0.033356,-0.20985,0.013947,0.035889,-0.0047
2,0.02,0.040874,-0.006626999999999999,-0.209729,0.0011599999999999994,0.042282,-0.0047
3,0.03,0.034448,0.009383,-0.153198,-0.009491,0.045471,-0.001495
4,0.04,-0.005297,-0.050062,-0.116678,-0.022278,0.033752,-0.0025629999999999997
5,0.05,-0.018761,-0.019293,-0.033247000000000006,-0.03186,0.028426999999999997,-0.001495
6,0.06,0.006961,-0.039824,0.002362000000000003,-0.038254,0.02417,0.0038299999999999996
7,0.07,-0.035143,-0.06942000000000001,0.055286,-0.042511,0.012451,0.007019
8,0.08,0.022956000000000004,-0.046292,0.105255,-0.045715,-0.0003360000000000004,0.007019
9,0.09,0.028374000000000007,-0.041432,0.122,-0.043579,-0.007782000000000002,0.005966
10,0.1,0.0009049999999999997,-0.022738,0.200286,-0.036118,-0.010986,0.002762
11,0.11,0.012853999999999999,0.007554999999999998,0.14108199999999999,-0.024399,-0.002457,0.004898
12,0.12,0.063362,0.024353,0.147362,-0.011627000000000002,0.008194,0.005966
13,0.13,0.05772000000000001,-0.055665,0.150506,-0.003098,0.014587000000000001,-0.001494999999999999
14,0.14,0.048768,-0.002489,0.095688,0.003296,0.017776,-0.010025
15,0.15,0.006867999999999999,0.017616999999999997,0.11099,0.016083,0.013519,-0.01535
16,0.16,0.013675999999999999,0.02317,0.065216,0.025664999999999997,-0.0003360000000000004,-0.017471
17,0.17,0.00838,0.07411799999999999,-0.032679,0.033127,-0.005661,-0.013213999999999998
18,0.18,0.029679,0.039017,-0.11918099999999998,0.036316,0.005004999999999999,-0.0047
19,0.19,0.071848,0.018986000000000003,-0.197429,0.033127,0.008194,-0.0025629999999999997
20,0.2,0.092061,0.020725,-0.251824,0.024597,0.006058,-0.0047
21,0.21,0.14074,0.006328,-0.279558,0.012878,0.001801,-0.007889
22,0.22,0.220793,0.08374499999999999,-0.260241,0.012878,0.013519,-0.013213999999999998
23,0.23,0.137728,0.13001500000000002,-0.269279,0.015015,0.030563,-0.006821
24,0.24,0.17081500000000002,0.20869200000000002,-0.311116,0.0011599999999999994,0.034821,0.005966000000000001
25,0.25,0.163152,0.216416,-0.25797600000000004,-0.029724,0.028426999999999997,0.014481
26,0.26,0.053525,0.153027,-0.138267,-0.069138,0.009262,0.016617
27,0.27,-0.050675000000000005,0.090515,0.09937300000000003,-0.0979,-0.007781999999999999,0.017669999999999998
28,0.28,-0.186174,0.025661000000000003,0.279536,-0.103226,-0.006714,0.021942
29,0.29,-0.217416,-0.087564,0.513951,-0.084061,-0.012054000000000002,0.025131
30,0.3,-0.238279,-0.139571,0.6084350000000001,-0.047836000000000004,-0.037613,0.021942
31,0.31,-0.15470699999999998,-0.11848399999999999,0.542162,-0.008423,-0.066376,0.016617
32,0.32,-0.10716300000000001,-0.037918,0.399372,0.024597,-0.082352,0.010223000000000001
33,0.33,-0.054465999999999994,-0.025293,0.257415,0.058685,-0.07809400000000001,0.011292
34,0.34,-0.003238999999999999,-0.004124999999999999,0.066976,0.07254,-0.046143,0.009155
35,0.35,-0.015740999999999998,-0.036335,-0.004492,0.07147200000000001,-0.009918000000000001,0.007019
36,0.36,-0.029224,-0.113147,-0.0463,0.056563999999999996,0.011382999999999999,-0.010025
37,0.37,-0.107823,-0.151602,-0.017135,0.046967,0.007126,-0.020676
38,0.38,-0.14238900000000002,-0.093467,-0.045203000000000014,0.044846,-0.016312,-0.018539
39,0.39,-0.138225,-0.043663,-0.139723,0.040573000000000005,-0.037613,-0.007889
40,0.4,-0.05296699999999999,0.0057469999999999995,-0.183073,0.035248,-0.040802,0.0016940000000000006
41,0.41,-0.025197,0.008588,-0.194477,0.018203999999999998,-0.031219,0.0038299999999999996
42,0.42,-0.050848000000000004,0.036650999999999996,-0.23930900000000002,-0.0041659999999999996,-0.021637,0.005966
43,0.43,-0.020123,0.009606999999999996,-0.20866300000000002,-0.024399,-0.020569,0.008087
44,0.44,-0.052080999999999995,-0.035449999999999995,-0.188475,-0.041443,-0.019500999999999998,0.015549
45,0.45,0.011035,-0.144325,-0.144036,-0.049973000000000004,-0.023758,0.016617
46,0.46,-0.029037,-0.170624,-0.09790800000000001,-0.057419000000000005,-0.030151,0.019806
47,0.47,0.018401000000000004,-0.152146,-0.017769999999999998,-0.05209400000000001,-0.028030000000000003,0.020874
48,0.48,0.016191999999999998,-0.17058900000000002,-0.036343,-0.044647000000000006,-0.013106999999999999,0.013412
49,0.49,-0.032075,-0.109445,0.016364,-0.036118,-0.001389,0.010223000000000001
50,0.5,-0.118228,-0.136485,0.081722,-0.03186,-0.001389,0.010223000000000001
51,0.51,-0.08511,-0.138682,0.096538,-0.027602999999999996,-0.005660999999999999,0.014481
52,0.52,-0.029894,-0.097229,0.12409400000000001,-0.015884,-0.014175,0.012343999999999999
53,0.53,-0.012963000000000002,-0.08505,0.088367,-0.008423,-0.030151,0.009155
54,0.54,0.043719,0.0062470000000000026,-0.007761999999999998,-0.0041659999999999996,-0.032288,0.007019
55,0.55,0.092839,0.014081999999999999,-0.102753,-0.0041659999999999996,-0.026962,0.004898
56,0.56,0.072657,0.094042,-0.132598,-0.016953,-0.013106999999999999,0.010223000000000001
57,0.57,0.097653,0.08305499999999999,-0.049791,-0.047836000000000004,-0.028030000000000003,0.014481
58,0.58,0.093862,0.050059,0.037529,-0.07020599999999999,-0.040802,0.005966000000000001
59,0.59,0.061658000000000004,0.025738,0.201879,-0.074463,-0.05146799999999999,0.0006259999999999997
60,0.6,0.085495,0.021523,0.331561,-0.055298,-0.052521000000000005,-0.012145999999999999
61,0.61,0.088443,0.050891000000000006,0.31200100000000003,-0.025467,-0.045074,-0.028137
62,0.62,0.138526,0.101833,0.251406,0.012878,-0.013106999999999999,-0.036652
63,0.63,0.100503,0.132915,0.147115,0.043776999999999996,0.025238,-0.045181
64,0.64,0.09325399999999999,0.143876,0.040182,0.057616999999999995,0.061462,-0.049438
65,0.65,-0.030343000000000002,0.027502999999999996,-0.0042840000000000005,0.057616999999999995,0.066788,-0.056885000000000005
66,0.66,-0.121321,0.07471799999999999,0.021534,0.038452,0.056137,-0.05583200000000001
67,0.67,-0.258345,0.052561000000000004,0.028486,0.023528999999999998,0.028426999999999997,-0.05583200000000001
68,0.68,-0.267996,0.08153300000000001,0.13957,0.02034,0.0018010000000000003,-0.043045
69,0.69,-0.280449,0.186504,0.135823,0.032059,-0.007782000000000002,-0.024933
70,0.7,-0.233125,0.167317,0.040195,0.041641000000000004,-0.0013890000000000011,0.0038299999999999996
71,0.71,-0.183898,0.122502,-0.017922999999999998,0.040573000000000005,0.000732,0.021942
72,0.72,-0.116052,0.042157,-0.057003,0.019272,-0.015244,0.031525
73,0.73,-0.11641099999999999,-0.00039800000000000246,-0.007932000000000002,-0.011627,-0.034424,0.035782
74,0.74,-0.123777,-0.086383,0.066747,-0.022278,-0.058914,0.032593000000000004
75,0.75,-0.09924,-0.147828,0.132945,-0.01268,-0.072769,0.031525
76,0.76,-0.026935,-0.173786,0.038537,0.016083,-0.06318700000000001,0.032593000000000004
77,0.77,0.119816,-0.191669,-0.06180399999999999,0.049102999999999994,-0.033356,0.029388
78,0.78,0.16633199999999998,-0.225575,-0.252787,0.062943,0.003937,0.013412
79,0.79,0.099717,-0.21979,-0.393965,0.064011,0.042282,-0.0025629999999999997
80,0.8,-0.050254000000000014,-0.241892,-0.336908,0.048035,0.050797,-0.0025629999999999997
81,0.81,-0.102096,-0.19061,-0.323254,0.027801999999999997,0.025238,0.014481
82,0.82,-0.017318,-0.182199,-0.30630999999999997,9.200000000000008e-05,-0.015243999999999997,0.033661
83,0.83,0.08621999999999999,-0.24956,-0.347045,-0.036118,-0.058914,0.030456999999999998
84,0.84,0.13153299999999998,-0.245098,-0.31949,-0.06275900000000001,-0.082352,0.032593000000000004
85,0.85,0.19654100000000002,-0.297869,-0.194701,-0.082993,-0.077026,0.017669999999999998
86,0.86,0.143192,-0.328714,-0.025759000000000004,-0.084061,-0.047195,-0.006821
87,0.87,0.131696,-0.226863,0.096831,-0.068085,-0.007781999999999998,-0.027069
88,0.88,0.088482,-0.132709,0.092128,-0.042511,0.020981,-0.049438
89,0.89,0.070559,-0.038904,0.068784,-0.022278,0.048676,-0.05583200000000001
90,0.9,0.022089,0.033513,-0.010014,-0.008423,0.066788,-0.052627999999999994
91,0.91,0.054745,0.089068,-0.060574,-0.013748,0.072113,-0.041977
92,0.92,0.015208000000000001,0.07682,-0.055145000000000007,-0.036118,0.058258000000000004,-0.036652
93,0.93,-0.07193,0.10425999999999999,0.082197,-0.060623,0.044418,-0.022797
94,0.94,-0.127839,0.10132999999999999,0.182946,-0.07020599999999999,0.022049000000000003,-0.006821
95,0.95,-0.161804,0.099236,0.312998,-0.071274,-0.003525000000000001,0.011292
96,0.96,-0.109901,0.084112,0.322229,-0.058487,-0.033356,0.028336
97,0.97,-0.033617,0.088465,0.28779099999999996,-0.045715,-0.052521000000000005,0.030456999999999998
98,0.98,0.013441,0.100357,0.205556,-0.030792,-0.057846,0.027267000000000003
99,0.99,0.12249700000000001,0.130123,0.15847,-0.020142,-0.0504,0.02301
100,1.0,0.162831,0.141171,0.10529100000000001,-0.006287000000000001,-0.035477,0.014481
101,1.01,0.16005,0.161603,0.06633700000000001,0.003296,-0.013106999999999999,0.007019
102,1.02,0.144378,0.10940599999999999,0.06135,0.007553,0.0018009999999999992,0.0016940000000000002
103,1.03,0.10544300000000001,0.105849,0.035894,0.004364,0.016708,-0.001495
104,1.04,0.066366,0.064439,0.048822000000000004,-0.003098,0.019913,-0.011093
105,1.05,0.026158999999999998,-0.01225,0.130981,-0.011627,0.007126,-0.024933
106,1.06,-0.033308,-0.049143,0.2186,-0.013748,-0.013106999999999999,-0.046234
107,1.07,-0.123142,0.007028,0.307175,0.008621,-0.020569,-0.061157
108,1.08,-0.183246,0.071898,0.23022800000000002,0.042709,-0.0003359999999999995,-0.063278
109,1.09,-0.154764,0.115842,0.097617,0.076797,0.026306,-0.050506999999999996
110,1.1,-0.128364,0.100674,-0.087864,0.085312,0.045471,-0.035583
111,1.11,-0.083959,0.063611,-0.186419,0.067215,0.048676,-0.022797
112,1.12,-0.076437,0.022696,-0.202954,0.03418,0.035889,-0.018539
113,1.13,-0.081711,-0.002380000000000001,-0.093056,0.001160000000000001,0.013518999999999998,-0.01535
114,1.14,-0.125225,-0.045418,0.032742,-0.015884,-0.022705,-0.012145999999999999
115,1.15,-0.10037,-0.018034999999999995,0.089133,-0.009491,-0.044006,-0.007889
116,1.16,-0.070884,0.039540000000000006,0.07594,0.010757,-0.045074,0.005966000000000001
117,1.17,0.031250000000000014,0.002213000000000001,0.012897,0.029922000000000004,-0.034424,0.016617
118,1.18,0.170397,0.011032,-0.135468,0.040573000000000005,-0.015244,0.02301
119,1.19,0.27218000000000003,-0.005252000000000001,-0.21684099999999998,0.028854,-0.005661,0.02301
120,1.2,0.314193,-0.052961000000000015,-0.250875,0.0075530000000000016,-0.000336,0.011292
121,1.21,0.262121,-0.08877,-0.148172,-0.016953,0.002869,-0.0014949999999999998
122,1.22,0.18026,-0.111849,-0.043938,-0.028671,0.010329999999999999,-0.017471
123,1.23,0.09741799999999999,-0.116751,0.090673,-0.022278,0.022049000000000003,-0.021744
124,1.24,0.073199,-0.14374800000000001,0.180275,-0.002029,0.025238,-0.026001
125,1.25,0.023173000000000003,-0.126195,0.20535799999999998,0.019272,0.030563,-0.026001
126,1.26,0.03443,-0.157413,0.173973,0.036316,0.020981,-0.027069
127,1.27,0.059512999999999996,-0.11952,0.119913,0.042709,0.010329999999999999,-0.024933
128,1.28,0.092997,-0.09020800000000001,0.038993,0.03952,-0.00033599999999999993,-0.028137
129,1.29,0.130026,-0.09424199999999999,-0.011633,0.033127,0.001801,-0.034515
130,1.3,0.059039,-0.169329,-0.023158,0.027801999999999997,0.011382999999999999,-0.046234
131,1.31,0.032299,-0.153894,-0.024838,0.029922000000000004,0.017776,-0.054764
132,1.32,-0.020948,-0.0963,-0.019624000000000003,0.03952,0.019913,-0.054764
133,1.33,0.005776,-0.042539999999999994,-0.147188,0.042709,0.019913,-0.047302
134,1.34,-0.0031609999999999967,0.015756999999999997,-0.224987,0.037384,0.006058000000000001,-0.040909
135,1.35,0.020402,0.047264,-0.248673,0.015015,0.011382999999999999,-0.036652
136,1.36,-0.022024,0.05703300000000001,-0.172999,-0.024399,0.009262000000000001,-0.026001
137,1.37,-0.067428,0.005357000000000001,-0.036804,-0.045715,-0.0013890000000000007,-0.024933
138,1.38,-0.09335800000000001,0.012976,0.07420800000000001,-0.055298,-0.010986,-0.021744
139,1.39,-0.059088999999999996,-0.016816000000000005,0.147904,-0.051041,-0.028030000000000003,-0.020676
140,1.4,-0.046839,0.017255,0.17818,-0.041443,-0.040802,-0.019608
141,1.41,-0.01905,0.06741,0.144043,-0.032928,-0.047195,-0.024933
142,1.42,-0.063819,0.085629,0.1094,-0.024399,-0.046143,-0.029189999999999997
143,1.43,-0.11919500000000001,0.060845,0.09905800000000001,-0.026535000000000003,-0.040802,-0.028137
144,1.44,-0.12055199999999999,0.06959299999999999,0.124278,-0.028671,-0.040802,-0.030257999999999997
145,1.45,-0.19494,-0.012242999999999995,0.11433900000000001,-0.022278,-0.04187,-0.028137
146,1.46,-0.195422,0.0026899999999999997,0.158359,-0.005233999999999999,-0.045074,-0.029189999999999997
147,1.47,-0.125291,-0.005607000000000001,0.097053,0.010757,-0.038681,-0.028137
148,1.48,-0.182669,0.031623000000000005,0.035491,0.022476,-0.042938,-0.030257999999999997
149,1.49,-0.160912,0.050111,-0.032808,0.018203999999999998,-0.054657000000000004,-0.024933
150,1.5,-0.07106,0.118182,-0.117326,0.009689,-0.06105,-0.01535
151,1.51,-0.066673,0.136034,-0.127841,0.003296,-0.057846,-0.0004270000000000003
152,1.52,-0.031163,0.1643,-0.179778,-0.008423,-0.034424,0.017669999999999998
153,1.53,0.006294000000000001,0.019432999999999992,-0.146545,-0.018005,-0.025894,0.032593000000000004
154,1.54,0.046652,-0.006608000000000001,-0.073007,-0.026535000000000003,-0.029099,0.040054
155,1.55,0.115574,-0.054852,-0.071916,-0.030792,-0.046143,0.03685
156,1.56,0.124101,-0.004439000000000002,-0.004829,-0.027602999999999996,-0.049332,0.030456999999999998
157,1.57,0.15248599999999998,0.039949,0.0034959999999999987,-0.014816,-0.039749,0.028336
158,1.58,0.19905799999999998,0.016239,-0.000730999999999999,0.005431999999999999,-0.020569,0.025131
159,1.59,0.227936,-0.0003719999999999973,-0.014369,0.013947,0.0018010000000000003,0.013412
160,1.6,0.18046199999999998,-0.011533,-0.051926,0.023528999999999998,0.028426999999999997,-0.0014949999999999998
161,1.61,0.147582,-0.056089,-0.006196,0.030991,0.046539,-0.017471
162,1.62,0.056348,-0.063707,-0.014773000000000003,0.036316,0.052933,-0.032394
163,1.63,0.017054,-0.031093,0.011010000000000002,0.052292,0.056137,-0.036652
164,1.64,0.0028179999999999998,-0.016622,0.005765,0.068268,0.067841,-0.030257999999999997
165,1.65,0.0005579999999999995,0.004410000000000001,-0.099938,0.088516,0.102997,-0.026001
166,1.66,0.032893,0.002174,-0.150792,0.102371,0.15626500000000002,-0.022797
167,1.67,-0.05185599999999999,-0.005325999999999999,-0.154496,0.101303,0.210587,-0.018539
168,1.68,-0.074749,-0.022642,-0.145878,0.087448,0.23083499999999998,-0.016418000000000002
169,1.69,-0.081011,-0.080076,-0.121879,0.062943,0.211655,-0.016418000000000002
170,1.7,-0.124199,-0.101438,-0.044818000000000004,0.032059,0.154129,-0.020676
171,1.71,-0.106465,-0.081376,0.02428200000000001,0.004364,0.067841,-0.024933
172,1.72,-0.19311,-0.007988000000000002,0.08782299999999997,-0.023331000000000005,0.0007320000000000035,-0.027069
173,1.73,-0.318385,0.033555,0.097193,-0.044647000000000006,-0.038681,-0.012145999999999999
174,1.74,-0.35315100000000005,-0.004918,0.220756,-0.054229999999999993,-0.052521000000000005,0.013412
175,1.75,-0.321185,-0.045662,0.315148,-0.05209400000000001,-0.05998200000000001,0.035782
176,1.76,-0.23622600000000002,-0.11674000000000001,0.36148600000000003,-0.039322,-0.075958,0.044312
177,1.77,-0.16456500000000002,-0.067649,0.308975,-0.010559,-0.10472100000000001,0.043243000000000004
178,1.78,-0.104457,0.030776000000000005,0.20061199999999998,0.024597,-0.103653,0.046432
179,1.79,0.004976,0.144154,-0.08747799999999999,0.048035,-0.07489,0.056029999999999996
180,1.8,0.083942,0.17889000000000002,-0.311418,0.038452,-0.034424,0.065613
181,1.81,0.171692,0.12526500000000002,-0.41735200000000006,-0.0009610000000000037,-0.019500999999999998,0.064545
182,1.82,0.173065,0.066367,-0.289333,-0.053162,-0.01738,0.051758000000000005
183,1.83,0.093507,0.0074579999999999985,-0.07511000000000001,-0.085129,-0.030151,0.042175
184,1.84,0.068424,-0.045547000000000004,0.10161,-0.084061,-0.036545,0.038986
185,1.85,0.073323,-0.044102999999999996,0.250357,-0.055298,-0.031219,0.031525
186,1.86,0.091751,-0.035798,0.24568299999999998,-0.020142,-0.013106999999999999,0.019806
187,1.87,0.080121,-0.017048,0.165025,0.015015,0.007126000000000001,0.008087
188,1.88,0.0836,0.027351999999999998,0.06290499999999999,0.033127,0.02417,-0.005753
189,1.89,0.07401100000000001,0.030641,0.005281,0.036316,0.034821,-0.008957
190,1.9,0.03252,-0.024452,-0.023184,0.029922000000000004,0.0327,-0.013213999999999998
191,1.91,0.050294,-0.01678,-0.058898,0.021408,0.016708,-0.013213999999999998
192,1.92,0.046493,-0.034986,-0.019237000000000004,0.013947,0.000732,-0.011093
193,1.93,0.06894700000000001,0.018994999999999998,-0.077052,0.008621,-0.007781999999999999,-0.011093
194,1.94,0.070759,-0.010093000000000001,-0.071599,0.005432,-0.0013890000000000007,-0.013213999999999998
195,1.95,0.082998,0.008873,-0.016829,0.003296,0.014587000000000001,-0.013213999999999998
196,1.96,0.035876,0.011895000000000001,0.032157,-0.002029,0.022049000000000003,-0.018539
197,1.97,-0.053605999999999994,0.027235000000000002,0.08405800000000001,-0.0073549999999999996,0.022049000000000003,-0.018539
198,1.98,-0.129531,-0.017979000000000002,0.171904,-0.0041659999999999996,0.016708,-0.011093
199,1.99,-0.138001,0.005344,0.24084,0.003295999999999999,-0.004593000000000001,0.002762
200,2.0,-0.07724700000000001,-0.010879999999999999,0.177829,0.015015,-0.026962,0.016617
201,2.01,-0.028342000000000003,0.017776,0.145832,0.022476,-0.044006,0.020874
202,2.02,0.027360000000000002,0.051987,0.016168,0.026733,-0.05146799999999999,0.030456999999999998
203,2.03,0.012203,0.086979,-0.047056,0.016083,-0.06318700000000001,0.038986
204,2.04,0.068231,0.10219299999999999,-0.08603200000000001,-0.009491,-0.065308,0.043243000000000004
205,2.05,-0.013294000000000002,0.061454999999999996,-0.015327,-0.035049000000000004,-0.057846,0.049637
206,2.06,-0.020451,-0.014498999999999991,0.13411500000000004,-0.047836000000000004,-0.05998200000000001,0.052826
207,2.07,0.008943000000000001,-0.1136,0.275727,-0.038254,-0.065308,0.049637
208,2.08,0.048917,-0.162919,0.29390900000000003,-0.013747999999999998,-0.066376,0.041107
209,2.09,0.122129,-0.168114,0.25003400000000003,0.025664999999999997,-0.06318700000000001,0.029388
210,2.1,0.154896,-0.109777,0.12090899999999999,0.062943,-0.039749,0.005965999999999999
211,2.11,0.09538300000000001,-0.091683,-0.062282,0.090652,0.0018010000000000003,-0.007889
212,2.12,0.049773000000000005,-0.06543099999999999,-0.20799299999999998,0.098099,0.039093,-0.012145999999999999
213,2.13,0.060677999999999996,-0.065329,-0.296022,0.08638,0.049744,-0.019608
214,2.14,0.003561999999999999,-0.150788,-0.34568000000000004,0.057616999999999995,0.040146,-0.021744
215,2.15,-0.034265,-0.177581,-0.256813,0.027801999999999997,0.02417,-0.028137
216,2.16,-0.077142,-0.173037,-0.18101099999999998,0.010757,0.014587000000000001,-0.030257999999999997
217,2.17,-0.11518699999999998,-0.15268900000000002,-0.143179,0.007553,0.006058,-0.033463
218,2.18,-0.106182,-0.029859,-0.155367,0.009689,-0.0024569999999999995,-0.027069
219,2.19,-0.053831,0.020492,-0.185505,0.0032960000000000003,0.0018009999999999996,-0.020676
220,2.2,-0.021008000000000002,0.072122,-0.22485500000000003,-0.013748,0.009262000000000001,-0.014282
221,2.21,-0.071311,0.092668,-0.199686,-0.033997,0.014587000000000001,-0.008957
222,2.22,-0.108977,0.086227,-0.140306,-0.054229999999999993,0.020981,-0.0025629999999999997
223,2.23,-0.123548,0.094456,0.0007100000000000023,-0.065948,0.016708,0.007019
224,2.24,-0.12222999999999999,0.108199,0.052698,-0.067017,0.005005,0.018738
225,2.25,-0.073367,0.13555,0.110252,-0.063812,-0.001389,0.032593000000000004
226,2.26,-0.096424,0.132045,0.15751800000000002,-0.058487,0.001801,0.040054
227,2.27,-0.11109200000000001,0.089005,0.20873200000000003,-0.058487,-0.003524999999999999,0.044312
228,2.28,-0.120426,0.081192,0.274345,-0.054229999999999993,-0.023758,0.049637
229,2.29,-0.090813,0.049136,0.32598499999999997,-0.045715,-0.049332,0.051758000000000005
230,2.3,-0.064828,0.013308000000000004,0.37332600000000005,-0.028671,-0.067444,0.050705
231,2.31,0.034123,0.031195,0.281475,-0.003098,-0.072769,0.048569
232,2.32,0.08618200000000001,0.035328,0.166878,0.015015,-0.058914,0.037918
233,2.33,0.18526600000000001,0.03715,0.03084,0.033127,-0.030151,0.029388
234,2.34,0.196944,0.0037240000000000003,-0.036574,0.041641000000000004,0.008194,0.014481
235,2.35,0.190492,-0.037620999999999995,-0.096974,0.042709,0.041214,-0.004699999999999998
236,2.36,0.05903200000000001,-0.058977,-0.10130700000000001,0.040573000000000005,0.059326,-0.020676
237,2.37,-0.057507,-0.075191,-0.042727999999999995,0.033127,0.05719,-0.029189999999999997
238,2.38,-0.150384,-0.07306499999999999,-0.021213,0.027801999999999997,0.028426999999999997,-0.024933
239,2.39,-0.177362,-0.058191,0.041792,0.024597,-0.007782000000000002,-0.021744
240,2.4,-0.19313699999999998,0.044974,0.0037459999999999993,0.026733,-0.032288,-0.007889
241,2.41,-0.090211,-0.0005459999999999979,-0.092735,0.026733,-0.037613,0.008087
242,2.42,0.040552,0.021708,-0.195822,0.019272,-0.026962,0.012343999999999999
243,2.43,0.08261,-0.015294,-0.20642,0.008621,-0.005660999999999999,0.015549
244,2.44,0.13306099999999998,-0.024562999999999998,-0.177601,-0.005234,0.012451,0.004898
245,2.45,0.086313,-0.074085,-0.152699,-0.02121,0.017776,-0.007889
246,2.46,0.024646999999999995,-0.11547,-0.077435,-0.023331,0.020981,-0.018539
247,2.47,-0.091288,-0.073797,-0.016552,-0.02121,0.026306,-0.023865
248,2.48,-0.131141,-0.034099000000000004,0.044356,-0.008423,0.030563,-0.021744
249,2.49,-0.2231,0.031927,0.029345999999999997,0.003296,0.040146,-0.01535
250,2.5,-0.226284,0.082604,-0.032796,0.004364,0.0327,-0.003632
251,2.51,-0.272464,0.140795,-0.06756000000000001,9.200000000000008e-05,0.015656,0.014481
252,2.52,-0.248982,0.08218099999999999,-0.123983,-0.009491,0.0018009999999999996,0.030456999999999998
253,2.53,-0.179556,0.064792,-0.153283,-0.020142,0.001801,0.045380000000000004
254,2.54,-0.24067,-0.032615999999999985,-0.15720499999999998,-0.032928,-0.016312,0.049637
255,2.55,-0.22739299999999998,-0.021634999999999998,-0.145772,-0.042511,-0.046143,0.048569
256,2.56,-0.201673,0.01305,-0.150335,-0.044647000000000006,-0.067444,0.052826
257,2.57,-0.163997,0.029013,-0.150766,-0.046768000000000004,-0.08342000000000001,0.054962000000000004
258,2.58,-0.100788,0.075001,-0.164001,-0.040375,-0.08342000000000001,0.056029999999999996
259,2.59,-0.078609,0.102497,-0.19481700000000002,-0.033997,-0.07489,0.049637
260,2.6,-0.126717,0.104902,-0.139828,-0.028671,-0.057846,0.041107
261,2.61,-0.180515,0.048745,-0.09385800000000001,-0.011627,-0.054657000000000004,0.026199
262,2.62,-0.252909,0.094807,-0.109786,0.008621,-0.069565,0.013412
263,2.63,-0.27725500000000003,0.105582,-0.229378,0.024597,-0.08342000000000001,0.011292
264,2.64,-0.286429,0.115374,-0.383207,0.030991,-0.085556,0.018738
265,2.65,-0.175018,0.120768,-0.5603319999999999,0.018204,-0.08342000000000001,0.030456999999999998
266,2.66,-0.07651000000000001,0.025322,-0.6999770000000001,-0.02121,-0.08128400000000001,0.025131
267,2.67,0.011091999999999998,-0.010186,-0.590095,-0.071274,-0.08342000000000001,0.0016939999999999993
268,2.68,-0.124839,-0.011315,-0.387292,-0.114944,-0.095139,-0.033463
269,2.69,-0.21587800000000001,0.02324,-0.175032,-0.126663,-0.1026,-0.05583200000000001
270,2.7,-0.33536,0.044348,-0.060972000000000005,-0.114944,-0.099396,-0.063278
271,2.71,-0.346752,0.058096,-0.013452,-0.084061,-0.095139,-0.063278
272,2.72,-0.31107199999999996,-0.0018629999999999999,-0.045355,-0.058487,-0.096207,-0.066483
273,2.73,-0.27509,0.01094,-0.151116,-0.037186000000000004,-0.10153200000000001,-0.07820099999999999
274,2.74,-0.29183400000000004,0.041798,-0.206596,-0.018005,-0.100464,-0.087784
275,2.75,-0.384842,0.040285,-0.325933,9.200000000000008e-05,-0.086609,-0.083527
276,2.76,-0.376711,0.067197,-0.464553,9.200000000000008e-05,-0.085556,-0.056885000000000005
277,2.77,-0.343159,0.122065,-0.656981,-0.024399,-0.10578900000000001,-0.026001
278,2.78,-0.28065,0.193701,-0.803765,-0.069138,-0.139877,0.013412
279,2.79,-0.16353099999999998,0.255865,-0.876388,-0.130936,-0.16864,0.043243000000000004
280,2.8,0.017780000000000018,0.248322,-0.886677,-0.198044,-0.20486500000000002,0.06987
281,2.81,0.23025900000000002,0.23238699999999998,-0.7625529999999999,-0.259827,-0.22935500000000003,0.074142
282,2.82,0.383178,0.254906,-0.689311,-0.296051,-0.22616599999999998,0.065613
283,2.83,0.53515,0.247365,-0.554211,-0.306702,-0.193146,0.042175
284,2.84,0.601599,0.295388,-0.444299,-0.287521,-0.13562000000000002,0.004898
285,2.85,0.619104,0.338256,-0.355768,-0.24597199999999997,-0.08128400000000001,-0.028137
286,2.86,0.520179,0.37759499999999996,-0.313837,-0.198044,-0.053589,-0.059021000000000004
287,2.87,0.451395,0.46506000000000003,-0.24687199999999998,-0.140518,-0.0504,-0.068604
288,2.88,0.370231,0.512225,-0.26174899999999995,-0.076599,-0.093002,-0.067551
289,2.89,0.389311,0.6458,-0.425121,-0.014816,-0.11750799999999999,-0.052627999999999994
290,2.9,0.41330100000000003,0.752843,-0.65645,0.033127,-0.130295,-0.034515
291,2.91,0.46727299999999994,0.916586,-1.007351,0.064011,-0.134552,-0.007889
292,2.92,0.55615,1.017496,-1.371761,0.062943,-0.13562000000000002,0.027267000000000003
293,2.93,0.688721,1.1430930000000001,-1.726031,0.026733,-0.133484,0.060287
294,2.94,0.831875,1.084868,-2.014293,-0.055298,-0.147339,0.085846
295,2.95,0.9767629999999999,1.049179,-2.078939,-0.171402,-0.139877,0.105026
296,2.96,1.0437100000000001,0.81386,-2.0653919999999997,-0.316284,-0.131363,0.097565
297,2.97,1.124835,0.58332,-1.6451419999999999,-0.453705,-0.14413499999999999,0.064545
298,2.98,1.065635,0.49032,-1.045377,-0.546387,-0.132416,-0.005753000000000001
299,2.99,0.778067,0.33674499999999996,-0.44163199999999997,-0.5581050000000001,-0.11750799999999999,-0.092041
300,3.0,0.457216,0.283438,0.17474,-0.471817,-0.09407,-0.16661099999999998
301,3.01,0.251956,0.297885,0.557909,-0.291779,-0.055725,-0.23266599999999998
302,3.02,0.075813,0.456855,0.50893,-0.053162,-0.005660999999999999,-0.297638
303,3.03,0.004675,0.651374,0.03611599999999998,0.192917,0.079559,-0.343445
304,3.04,-0.09997,0.8494959999999999,-0.669145,0.376129,0.190353,-0.365814
305,3.05,-0.157129,1.044476,-1.3801450000000002,0.47413599999999995,0.262787,-0.365814
306,3.06,-0.151357,1.329184,-1.906561,0.48692299999999994,0.28089899999999995,-0.340256
307,3.07,-0.11570599999999999,1.4596069999999999,-2.354636,0.42939799999999995,0.263855,-0.289124
308,3.08,-0.086792,1.567381,-2.594328,0.326065,0.22018400000000002,-0.20497100000000001
309,3.09,-0.10016900000000001,1.452093,-2.710121,0.196106,0.169052,-0.105896
310,3.1,0.017918000000000003,1.2866229999999999,-2.606105,0.042709,0.11471600000000001,0.0038299999999999996
311,3.11,0.144869,1.061321,-2.322258,-0.113892,0.027374,0.09011799999999999
312,3.12,0.2802,0.8453860000000001,-1.847147,-0.248108,-0.073837,0.142319
313,3.13,0.388729,0.732055,-1.31692,-0.323746,-0.15373199999999998,0.17533900000000002
314,3.14,0.487667,0.5632050000000001,-0.9496459999999999,-0.345047,-0.19100999999999999,0.195572
315,3.15,0.605359,0.5651470000000001,-0.64379,-0.324814,-0.188873,0.201965
316,3.16,0.7565729999999999,0.540464,-0.404436,-0.282196,-0.14840699999999998,0.193451
317,3.17,0.858433,0.5261520000000001,-0.289535,-0.229996,-0.097275,0.165741
318,3.18,0.8927510000000001,0.5434770000000001,-0.196655,-0.17993199999999998,-0.034424,0.12953199999999998
319,3.19,0.9441729999999999,0.5804199999999999,-0.103006,-0.12773099999999998,0.023102,0.092239
320,3.2,1.0101950000000002,0.639548,-0.058691999999999994,-0.082993,0.06572,0.052826
321,3.21,1.034348,0.698639,0.023069,-0.047836000000000004,0.080627,0.0038299999999999996
322,3.22,1.049894,0.82875,0.038004,-0.023331,0.089157,-0.040909
323,3.23,1.071533,0.932099,0.18428599999999998,0.0011599999999999994,0.112595,-0.08992
324,3.24,0.928284,1.048757,0.384681,0.035248,0.14135699999999998,-0.139984
325,3.25,0.849874,1.225595,0.515264,0.088516,0.19781500000000002,-0.176208
326,3.26,0.6592020000000001,1.324818,0.5894590000000001,0.153503,0.27771,-0.196442
327,3.27,0.550909,1.429218,0.673791,0.224869,0.37251300000000004,-0.202835
328,3.28,0.342407,1.439928,0.698159,0.29090900000000003,0.436432,-0.194305
329,3.29,0.186829,1.473799,0.608103,0.33992,0.442825,-0.17086800000000002
330,3.3,-0.032441999999999985,1.5181040000000001,0.346696,0.358032,0.405533,-0.11228900000000001
331,3.31,-0.068215,1.52368,0.040733999999999985,0.32074,0.339493,-0.035583
332,3.32,0.013345000000000004,1.5063790000000001,-0.24445,0.224869,0.276642,0.053894000000000004
333,3.33,0.153128,1.480741,-0.36445500000000003,0.081055,0.210587,0.124207
334,3.34,0.24662399999999998,1.438398,-0.18471500000000002,-0.077667,0.149872,0.173203
335,3.35,0.283602,1.404765,0.109047,-0.20762600000000003,0.12324500000000001,0.20835900000000002
336,3.36,0.199664,1.193861,0.584151,-0.285385,0.134964,0.23072800000000002
337,3.37,0.12170999999999998,1.0275940000000001,1.008011,-0.296051,0.195679,0.246704
338,3.38,0.014009,0.805606,1.278355,-0.24171399999999998,0.301147,0.257355
339,3.39,-0.062001000000000014,0.66619,1.4239540000000002,-0.168213,0.41618299999999997,0.26268
340,3.4,-0.280289,0.56145,1.4181629999999998,-0.092575,0.497147,0.279724
341,3.41,-0.507292,0.334908,1.335611,-0.033997,0.5291140000000001,0.31488
342,3.42,-0.529777,0.09693600000000001,1.320878,9.199999999999832e-05,0.48863199999999996,0.368149
343,3.43,-0.571102,-0.25050900000000004,1.199065,0.016083,0.397018,0.405426
344,3.44,-0.5357689999999999,-0.674854,1.086786,0.033127,0.26811199999999996,0.42674300000000004
345,3.45,-0.46887799999999996,-0.972626,0.883764,0.068268,0.128571,0.419281
346,3.46,-0.410183,-1.0844559999999999,0.54311,0.12579300000000002,0.02417,0.40010100000000004
347,3.47,-0.22905,-1.124472,0.11274099999999998,0.191849,-0.003525,0.388382
348,3.48,-0.049587999999999986,-1.11795,-0.42137700000000006,0.242981,0.027374000000000002,0.372406
349,3.49,0.143178,-1.101525,-0.878524,0.26109299999999996,0.075302,0.34896900000000003
350,3.5,0.372557,-0.987973,-1.262835,0.235519,0.121109,0.298904
351,3.51,0.454421,-0.9256,-1.466183,0.166275,0.18928499999999998,0.222214
352,3.52,0.399827,-0.79272,-1.5152290000000002,0.076797,0.275574,0.135925
353,3.53,0.116253,-0.686171,-1.33751,-0.009491,0.360794,0.05603000000000001
354,3.54,-0.19774800000000006,-0.497584,-1.079836,-0.075531,0.452408,0.009155
355,3.55,-0.42773100000000003,-0.397964,-0.843325,-0.118149,0.54509,-0.013213999999999998
356,3.56,-0.5899949999999999,-0.326648,-0.61445,-0.149033,0.622849,-0.013213999999999998
357,3.57,-0.735374,-0.377544,-0.400593,-0.175674,0.6590729999999999,-0.0014949999999999998
358,3.58,-0.7984,-0.478725,-0.255417,-0.201233,0.654816,0.018738
359,3.59,-0.946701,-0.6121479999999999,0.0012449999999999961,-0.215088,0.5994109999999999,0.040054
360,3.6,-1.0402049999999998,-0.659888,0.13309200000000002,-0.209763,0.504608,0.072006
361,3.61,-1.101542,-0.696224,0.200506,-0.182068,0.387421,0.108231
362,3.62,-1.066231,-0.757594,0.125503,-0.13945,0.281967,0.157227
363,3.63,-0.930198,-0.796846,-0.087701,-0.088318,0.16477999999999998,0.201965
364,3.64,-0.696581,-0.830254,-0.390491,-0.047836000000000004,0.06572,0.24244699999999997
365,3.65,-0.419853,-0.7956489999999999,-0.7636270000000001,-0.028671,-0.004593,0.263748
366,3.66,-0.221694,-0.740264,-1.060906,-0.019073,-0.028030000000000003,0.265884
367,3.67,-0.212648,-0.657352,-1.233419,-0.025467,-0.048264,0.268021
368,3.68,-0.08847100000000001,-0.585612,-1.395318,-0.043579,-0.084488,0.266953
369,3.69,0.067484,-0.41856899999999997,-1.524577,-0.080856,-0.12496900000000001,0.257355
370,3.7,0.14348699999999998,-0.37608400000000003,-1.5488540000000002,-0.118149,-0.14094500000000001,0.24244699999999997
371,3.71,0.141341,-0.29921,-1.458944,-0.166077,-0.159058,0.22433499999999998
372,3.72,0.10794200000000001,-0.22934200000000002,-1.2305540000000001,-0.20869400000000002,-0.181427,0.203033
373,3.73,-0.009567000000000006,-0.183177,-0.8360479999999999,-0.225739,-0.19100999999999999,0.173203
374,3.74,-0.089015,-0.113187,-0.449313,-0.193787,-0.173965,0.140182
375,3.75,-0.14260699999999998,-0.067992,-0.213991,-0.12027,-0.134552,0.105026
376,3.76,-0.222237,-0.00016999999999999654,-0.08110299999999998,-0.026535000000000003,-0.07489,0.067749
377,3.77,-0.363575,0.138741,-0.052958000000000005,0.069336,-0.015244,0.035782
378,3.78,-0.449867,0.239445,-0.075172,0.14711,0.013519,0.020874
379,3.79,-0.49481,0.364072,-0.144921,0.19503800000000002,-0.012054,0.013412
380,3.8,-0.42669700000000005,0.47419399999999995,-0.259088,0.202499,-0.082352,0.014481
381,3.81,-0.300703,0.668234,-0.387378,0.176926,-0.161179,0.014481
382,3.82,-0.180723,0.8380190000000001,-0.47920799999999997,0.12793,-0.21977199999999997,0.016617
383,3.83,-0.070441,0.912531,-0.448225,0.062943,-0.252792,0.012343999999999999
384,3.84,-0.004379999999999999,0.913006,-0.338138,-0.003098,-0.24639899999999998,-0.002563000000000001
385,3.85,0.052851999999999996,0.9374680000000001,-0.07250999999999999,-0.06275900000000001,-0.202728,-0.021744
386,3.86,-0.014569,0.89476,0.433871,-0.091507,-0.122833,-0.049438
387,3.87,-0.11383800000000001,0.847641,0.8660690000000001,-0.08938600000000001,-0.05146799999999999,-0.07820099999999999
388,3.88,-0.22529000000000002,0.841879,1.2430809999999999,-0.063812,-0.039749,-0.094177
389,3.89,-0.273783,0.837751,1.409208,-0.028671,-0.09407,-0.105896
390,3.9,-0.249808,0.9927799999999999,1.35921,0.018203999999999998,-0.180359,-0.125076
391,3.91,-0.203704,1.285614,1.08718,0.051224,-0.24427800000000002,-0.143173
392,3.92,-0.169325,1.5384309999999999,0.623394,0.046967,-0.259186,-0.146378
393,3.93,-0.121092,1.7374580000000002,0.22086400000000006,-0.019073000000000003,-0.23468000000000003,-0.13677999999999998
394,3.94,0.11726200000000005,1.855158,0.074785,-0.156494,-0.169708,-0.096313
395,3.95,0.353729,1.7091509999999999,0.32711599999999996,-0.347183,-0.114319,-0.069672
396,3.96,0.492033,1.375307,1.010565,-0.528275,-0.096207,-0.07074
397,3.97,0.476858,0.864142,1.834602,-0.633728,-0.110046,-0.10482799999999999
398,3.98,0.306898,0.2885980000000001,2.604978,-0.642258,-0.146271,-0.165543
399,3.99,0.130191,-0.03720400000000002,3.236856,-0.5367890000000001,-0.23255900000000002,-0.235855
400,4.0,0.012229999999999998,-0.3480530000000001,3.383574,-0.32160900000000003,-0.34333800000000003,-0.304031
401,4.01,-0.057794000000000005,-0.42538100000000006,3.0203849999999997,-0.045715000000000006,-0.42323299999999997,-0.34876999999999997
402,4.02,0.261998,-0.441787,2.025864,0.220612,-0.442413,-0.372208
403,4.03,0.5337689999999999,-0.5030220000000001,0.8404290000000001,0.399567,-0.400864,-0.387131
404,4.04,0.914734,-0.40696,-0.189612,0.459229,-0.329498,-0.413757
405,4.05,1.144423,-0.45216300000000004,-0.943498,0.41661099999999995,-0.24960300000000002,-0.45423900000000006
406,4.06,1.126554,-0.529809,-1.26233,0.302628,-0.17717,-0.498978
407,4.07,0.771799,-0.577109,-1.100514,0.173737,-0.120697,-0.538391
408,4.08,0.271629,-0.49426099999999995,-0.70755,0.081055,-0.103653,-0.538391
409,4.09,-0.11150400000000002,-0.387236,-0.352127,0.038452,-0.096207,-0.49577299999999996
410,4.1,-0.353536,-0.24525999999999998,-0.166201,0.027801999999999997,-0.099396,-0.42333999999999994
411,4.11,-0.39442,-0.073894,-0.30086799999999997,0.02034,-0.093002,-0.32960500000000004
412,4.12,-0.239436,-0.06429800000000001,-0.465483,-0.019073,-0.065308,-0.23266599999999998
413,4.13,-0.070936,-0.21752,-0.561944,-0.10429400000000001,-0.022705,-0.147446
414,4.14,0.105396,-0.478545,-0.43646499999999994,-0.218277,-0.013106999999999999,-0.087784
415,4.15,0.189906,-0.825917,-0.08809899999999997,-0.32800300000000004,-0.024825999999999997,-0.054764
416,4.16,0.24656799999999998,-1.035928,0.360906,-0.383392,-0.06105,-0.05583200000000001
417,4.17,0.24567199999999997,-1.265876,0.755796,-0.370621,-0.114319,-0.062225
418,4.18,0.201639,-1.476982,0.987764,-0.30349699999999996,-0.205933,-0.08139
419,4.19,0.24242800000000003,-1.522715,1.0082010000000001,-0.183121,-0.31778,-0.099503
420,4.2,0.535135,-1.3797709999999999,0.635512,0.029922,-0.40618899999999997,-0.15596
421,4.21,0.641791,-1.307992,0.06672099999999997,0.164154,-0.38382,-0.207092
422,4.22,0.757367,-1.114406,-0.443995,0.272812,-0.28369099999999997,-0.261429
423,4.23,0.817646,-0.9559709999999999,-0.923502,0.343109,-0.12176500000000001,-0.300842
424,4.24,0.8356450000000001,-0.826368,-1.3120049999999999,0.38147,0.042281999999999986,-0.331726
425,4.25,0.791144,-0.791031,-1.4838,0.378265,0.185028,-0.361557
426,4.26,0.615704,-0.655556,-1.445719,0.349503,0.279831,-0.37114
427,4.27,0.357572,-0.544402,-1.339237,0.302628,0.320312,-0.363693
428,4.28,0.086056,-0.39545399999999997,-1.163527,0.24616999999999997,0.321381,-0.31575
429,4.29,-0.090046,-0.26398299999999997,-1.01023,0.190781,0.284103,-0.234787
430,4.3,-0.141041,-0.215129,-0.9735530000000001,0.123672,0.201004,-0.14212
431,4.31,-0.0703,-0.139005,-0.932649,0.050171,0.068909,-0.051559
432,4.32,0.06236900000000001,-0.092075,-0.9909290000000001,-0.027602999999999996,-0.068512,0.02301
433,4.33,0.305698,-0.026067,-1.006039,-0.09045399999999999,-0.151596,0.08265700000000001
434,4.34,0.6015729999999999,0.004106999999999998,-0.872157,-0.128799,-0.150528,0.126328
435,4.35,0.7400399999999999,-0.000867999999999999,-0.628578,-0.143707,-0.10472100000000001,0.127396
436,4.36,0.8042600000000001,-0.076365,-0.293628,-0.123474,-0.033356,0.102905
437,4.37,0.726582,-0.018299,-0.017089999999999994,-0.063812,0.060394,0.060287
438,4.38,0.5000760000000001,0.019262,0.198354,0.023528999999999998,0.153076,0.025131
439,4.39,0.378054,0.17318700000000006,0.244246,0.11514300000000001,0.20632899999999998,0.0006260000000000017
440,4.4,0.295542,0.324146,0.186656,0.19503800000000002,0.215927,-0.019608
441,4.41,0.34660599999999997,0.508837,-0.025146,0.235519,0.202072,-0.03772
442,4.42,0.349574,0.65823,-0.25555,0.24191300000000002,0.186096,-0.05583200000000001
443,4.43,0.39610700000000004,0.892027,-0.435288,0.21740700000000002,0.196747,-0.067551
444,4.44,0.263332,1.029025,-0.46648100000000003,0.158829,0.23722800000000002,-0.069672
445,4.45,0.24586599999999997,1.127825,-0.305606,0.07572899999999999,0.286224,-0.059021000000000004
446,4.46,0.073781,1.2299959999999999,0.11733500000000002,-0.015884000000000002,0.312866,-0.060089
447,4.47,-0.11569500000000002,1.261714,0.602065,-0.084061,0.307526,-0.059021000000000004
448,4.48,-0.26508400000000004,1.346653,1.109658,-0.119217,0.29155,-0.052627999999999994
449,4.49,-0.346394,1.422561,1.538865,-0.10961900000000001,0.273438,-0.059021000000000004
450,4.5,-0.521413,1.584257,1.851748,-0.069138,0.260666,-0.067551
451,4.51,-0.753472,1.662659,1.94554,-0.0073549999999999996,0.23722800000000002,-0.064346
452,4.52,-1.0099120000000001,1.8910959999999999,1.890396,0.042709,0.221252,-0.028137
453,4.53,-1.1044450000000001,1.8513979999999999,1.6997799999999998,0.065079,0.20846599999999998,0.054962000000000004
454,4.54,-0.9096360000000001,1.771883,1.4792290000000001,0.048035,0.223373,0.138046
455,4.55,-0.608273,1.588228,1.27411,0.0032960000000000003,0.224442,0.191315
456,4.56,-0.42323500000000003,1.355602,1.167261,-0.056366,0.218048,0.22966
457,4.57,-0.290993,1.006125,1.209603,-0.110687,0.20739699999999997,0.26055900000000004
458,4.58,-0.286503,0.47530100000000003,1.319798,-0.136261,0.20953400000000003,0.294647
459,4.59,-0.332773,-0.062218,1.4915200000000002,-0.12133800000000002,0.21485900000000002,0.321274
460,4.6,-0.450087,-0.563552,1.582171,-0.054229999999999993,0.187164,0.345779
461,4.61,-0.477575,-0.9650850000000001,1.423208,0.043776999999999996,0.154129,0.367081
462,4.62,-0.377826,-1.264729,1.158202,0.143906,0.104065,0.388382
463,4.63,-0.25805500000000003,-1.498367,0.717494,0.21208200000000002,0.019913,0.394775
464,4.64,-0.23399999999999999,-1.491314,0.257471,0.23445100000000002,-0.08128400000000001,0.392654
465,4.65,-0.145111,-1.355855,-0.165237,0.219543,-0.20059200000000002,0.392654
466,4.66,0.006022,-1.203086,-0.597028,0.16841099999999998,-0.28688,0.388382
467,4.67,0.253766,-1.048411,-0.9802209999999999,0.09916699999999999,-0.289017,0.382004
468,4.68,0.590438,-0.940873,-1.267076,0.022476,-0.186752,0.347916
469,4.69,0.824091,-0.892323,-1.3523040000000002,-0.085129,0.104065,0.227539
470,4.7,0.637464,-0.793663,-1.061708,-0.144775,0.33628800000000003,0.132721
471,4.71,0.29007,-0.7947960000000001,-0.711486,-0.17886400000000002,0.53656,0.060287
472,4.72,-0.040069,-0.849225,-0.233958,-0.18951400000000002,0.6803739999999999,0.028336
473,4.73,-0.23299299999999998,-0.9101309999999999,0.14699800000000002,-0.17247,0.768799,0.015549
474,4.74,-0.42501300000000003,-1.018047,0.355946,-0.138382,0.786896,0.018738
475,4.75,-0.614506,-1.108868,0.5574140000000001,-0.0979,0.72937,0.03685
476,4.76,-0.757884,-1.230532,0.604204,-0.04783599999999999,0.574921,0.074142
477,4.77,-0.765478,-1.2144979999999999,0.460052,0.012878,0.375702,0.124207
478,4.78,-0.71291,-1.096926,0.16829000000000002,0.07786599999999999,0.202072,0.188126
479,4.79,-0.54903,-0.994139,-0.3842570000000001,0.117279,0.05718999999999999,0.256302
480,4.8,-0.228895,-0.9292379999999999,-0.9794959999999999,0.113022,-0.048264,0.32341
481,4.81,0.063182,-0.847673,-1.439387,0.058685,-0.12709,0.35643
482,4.82,0.296023,-0.8440219999999999,-1.6604860000000001,-0.013748000000000005,-0.192078,0.36601300000000003
483,4.83,0.498404,-0.821083,-1.754071,-0.081924,-0.23788499999999999,0.355362
484,4.84,0.6011,-0.742536,-1.7220509999999998,-0.122406,-0.25386,0.332993
485,4.85,0.64986,-0.628232,-1.6484580000000002,-0.134125,-0.235748,0.296783
486,4.86,0.66898,-0.398228,-1.709819,-0.130936,-0.21019000000000002,0.25949099999999997
487,4.87,0.650521,-0.206398,-1.7014200000000002,-0.128799,-0.150528,0.216888
488,4.88,0.627728,-0.060813,-1.6482729999999999,-0.13305699999999998,-0.049332,0.173203
489,4.89,0.560125,0.027085,-1.496699,-0.143707,0.054001,0.11142
490,4.9,0.393429,0.026397000000000004,-1.180719,-0.153305,0.14135699999999998,0.042175
491,4.91,0.172684,0.10888099999999999,-0.775947,-0.151169,0.188217,-0.028137
492,4.92,-0.069094,0.22592800000000002,-0.44231400000000004,-0.123474,0.201004,-0.08139
493,4.93,-0.301454,0.327727,-0.189949,-0.078735,0.191422,-0.10803199999999999
494,4.94,-0.443288,0.516454,-0.134992,-0.028671,0.14240999999999998,-0.116547
495,4.95,-0.565941,0.753318,-0.184419,0.0032960000000000003,0.075302,-0.10803199999999999
496,4.96,-0.620156,0.9875209999999999,-0.22795100000000001,0.010757,0.003937000000000003,-0.076065
497,4.97,-0.570916,1.0987069999999999,-0.330259,-0.007354999999999999,-0.049332,-0.041977
498,4.98,-0.42133100000000007,1.139239,-0.26574899999999996,-0.042511,-0.05146799999999999,-0.033463
499,4.99,-0.385067,1.2119879999999998,-0.05414899999999999,-0.100037,-0.020569,-0.040909
500,5.0,-0.41049300000000005,1.225319,0.386164,-0.156494,0.029495,-0.044113
501,5.01,-0.555114,1.098732,0.8928280000000001,-0.201233,0.093414,-0.039841
502,5.02,-0.720017,0.803883,1.461378,-0.220413,0.11898800000000001,-0.027069
503,5.03,-0.816684,0.523825,1.9750759999999998,-0.20762600000000003,0.069977,-0.016418000000000002
504,5.04,-0.8255969999999999,0.28291900000000003,2.332568,-0.14798,-0.02803,-0.026001
505,5.05,-0.8173600000000001,0.21128200000000003,2.497962,-0.040375,-0.122833,-0.049438
506,5.06,-0.72859,0.27374499999999996,2.271225,0.106628,-0.186752,-0.065414
507,5.07,-0.47575100000000003,0.544579,1.6924970000000001,0.248306,-0.18249500000000002,-0.07499700000000001
508,5.08,-0.09304600000000003,0.876086,0.9731690000000001,0.31967199999999996,-0.09407,-0.088852
509,5.09,0.12559700000000001,1.156179,0.381344,0.294113,0.009262000000000001,-0.116547
510,5.1,0.23690799999999998,1.393302,0.05662600000000001,0.183319,0.088089,-0.144241
511,5.11,0.190869,1.556727,0.030549,0.018204,0.167984,-0.15809600000000001
512,5.12,0.086791,1.4239190000000002,0.364248,-0.175674,0.23934899999999998,-0.144241
513,5.13,0.006464999999999999,1.155044,1.03151,-0.338654,0.255341,-0.12826500000000002
514,5.14,-0.19776,0.656543,1.802002,-0.42813100000000004,0.21379099999999998,-0.11335799999999999
515,5.15,-0.296647,0.19912,2.569501,-0.405762,0.101944,-0.099503
516,5.16,-0.309958,-0.24757800000000002,2.919379,-0.268341,-0.044006,-0.094177
517,5.17,-0.279015,-0.43173900000000004,2.8900639999999997,-0.048904,-0.192078,-0.090973
518,5.18,-0.094523,-0.5225479999999999,2.252401,0.188644,-0.340149,-0.082458
519,5.19,0.468391,-0.542998,0.594007,0.428329,-0.531891,-0.056885000000000005
520,5.2,0.7633800000000001,-0.365208,-0.34224699999999997,0.46241800000000005,-0.6011350000000001,-0.060089
521,5.21,1.004765,-0.314214,-1.079439,0.40916399999999997,-0.635223,-0.066483
522,5.22,1.1485889999999999,-0.22328699999999999,-1.513623,0.301575,-0.612854,-0.068604
523,5.23,1.189196,-0.283612,-1.6462430000000001,0.176926,-0.52977,-0.07499700000000001
524,5.24,1.099027,-0.348177,-1.5394459999999999,0.056563999999999996,-0.421112,-0.080322
525,5.25,0.865499,-0.396986,-1.17946,-0.039322,-0.290085,-0.066483
526,5.26,0.6009180000000001,-0.549929,-0.7501140000000001,-0.10643,-0.167572,-0.029189999999999997
527,5.27,0.375929,-0.6945680000000001,-0.39265,-0.143707,-0.070633,0.017669999999999998
528,5.28,0.185507,-0.9922139999999999,-0.19428,-0.16181900000000002,0.000732,0.062424
529,5.29,0.1235,-1.279145,-0.0018499999999999973,-0.17993199999999998,0.054001,0.094376
530,5.3,0.039586,-1.581215,0.00022100000000000068,-0.20762600000000003,0.087021,0.103958
531,5.31,-0.022309,-1.829003,0.00019000000000000006,-0.243851,0.059326,0.093307
532,5.32,-0.172205,-2.0144279999999997,-0.031114999999999997,-0.285385,-0.022705,0.076263
533,5.33,-0.197414,-2.225377,-0.158247,-0.33013899999999996,-0.159058,0.074142
534,5.34,-0.072072,-2.1795419999999996,-0.20588099999999998,-0.363159,-0.291153,0.070938
535,5.35,0.227171,-2.136282,-0.302532,-0.387665,-0.401932,0.042175
536,5.36,0.561395,-1.887327,-0.327676,-0.35037199999999996,-0.474365,-0.053696
537,5.37,0.624075,-1.7115919999999998,-0.32952600000000004,-0.268341,-0.441345,-0.137848
538,5.38,0.668169,-1.4906270000000001,-0.38261999999999996,-0.136261,-0.339081,-0.218811
539,5.39,0.6490600000000001,-1.202473,-0.636459,0.028854000000000005,-0.18782000000000001,-0.28273000000000004
540,5.4,0.6930069999999999,-0.821989,-1.012476,0.179062,-0.010985999999999996,-0.332794
541,5.41,0.641018,-0.458075,-1.4051129999999998,0.267487,0.155197,-0.364746
542,5.42,0.45603,-0.11467900000000004,-1.6378030000000001,0.280258,0.27131700000000003,-0.378601
543,5.43,0.338067,0.139097,-1.6969290000000001,0.24084499999999998,0.31605500000000003,-0.373276
544,5.44,0.255303,0.320614,-1.522278,0.166275,0.317123,-0.340256
545,5.45,0.20859299999999997,0.47955,-1.273099,0.09491000000000001,0.28836100000000003,-0.30191
546,5.46,0.19692,0.531329,-0.9740709999999999,0.035248,0.255341,-0.25822399999999995
547,5.47,0.13897400000000001,0.646075,-0.652968,-0.003098,0.204208,-0.20602399999999998
548,5.48,-0.027413999999999997,0.72333,-0.369528,-0.027602999999999996,0.13708499999999998,-0.152771
549,5.49,-0.113926,0.815137,-0.143137,-0.030792,0.07850599999999999,-0.08139
550,5.5,0.019188,0.8413129999999999,0.04983,-0.028671,0.019913,-0.023865
551,5.51,0.16963699999999998,0.973775,0.167501,-0.020142,-0.023758,0.011292
552,5.52,0.341316,1.1094030000000001,0.38122399999999995,-0.0073549999999999996,-0.028030000000000003,0.021942
553,5.53,0.327083,1.2814219999999998,0.593938,0.02034,0.006058000000000001,0.013412
554,5.54,0.288552,1.531865,0.767409,0.062943,0.060394,0.014481
555,5.55,0.22578,1.6646020000000001,0.813322,0.09916699999999999,0.139221,0.027267000000000003
556,5.56,0.12422899999999999,1.767711,0.8171470000000001,0.11088599999999998,0.19354200000000002,0.038986
557,5.57,0.021666000000000005,1.808605,0.849383,0.089584,0.221252,0.051758000000000005
558,5.58,-0.15404500000000002,1.7593439999999998,0.9554379999999999,0.040573000000000005,0.232971,0.064545
559,5.59,-0.333482,1.578998,1.20119,-0.010559,0.21911599999999998,0.08052100000000001
560,5.6,-0.43560699999999997,1.372266,1.495213,-0.032928,0.185028,0.091187
561,5.61,-0.49006099999999997,1.203789,1.7280360000000001,-0.014815999999999998,0.15945399999999998,0.103958
562,5.62,-0.569709,1.0646790000000002,1.796936,0.037384,0.14240999999999998,0.102905
563,5.63,-0.619855,0.9828790000000001,1.7050669999999999,0.090652,0.166916,0.119949
564,5.64,-0.5603600000000001,0.944601,1.430916,0.12579300000000002,0.20632899999999998,0.136993
565,5.65,-0.455147,0.917114,1.161865,0.114075,0.252136,0.150833
566,5.66,-0.400715,0.7666890000000001,0.988015,0.067215,0.286224,0.160416
567,5.67,-0.35884099999999997,0.557585,0.9663129999999999,0.001160000000000001,0.290482,0.190247
568,5.68,-0.268094,0.181331,0.9965069999999999,-0.049973000000000004,0.25106799999999996,0.24244699999999997
569,5.69,-0.193859,-0.288563,1.063539,-0.071274,0.187164,0.302109
570,5.7,-0.023903999999999998,-0.8675120000000001,1.0330219999999999,-0.059555,0.079559,0.34896900000000003
571,5.71,0.184482,-1.347274,0.8763559999999999,-0.018005000000000004,-0.032288,0.367081
572,5.72,0.353503,-1.67575,0.518722,0.04377700000000001,-0.11218299999999999,0.361755
573,5.73,0.663834,-1.84655,0.05106700000000003,0.095978,-0.137741,0.339386
574,5.74,0.9244120000000001,-1.7003240000000002,-0.347901,0.107697,-0.126038,0.282928
575,5.75,1.148304,-1.5303870000000002,-0.685157,0.079987,-0.088745,0.198776
576,5.76,1.2488270000000001,-1.356539,-0.864288,0.026733,-0.015244,0.0784
577,5.77,1.097849,-1.058921,-0.888957,-0.041443,0.116852,-0.050506999999999996
578,5.78,0.8641,-0.728113,-0.705362,-0.100037,0.31605500000000003,-0.177261
579,5.79,0.401696,-0.42389099999999996,-0.375737,-0.13945,0.528046,-0.273148
580,5.8,-0.17598200000000006,-0.15928900000000001,0.11616800000000001,-0.159698,0.688904,-0.313614
581,5.81,-0.548238,-0.002385999999999999,0.462704,-0.159698,0.793289,-0.299774
582,5.82,-0.936314,0.042644,0.733766,-0.151169,0.810333,-0.248642
583,5.83,-1.224656,-0.029262999999999987,0.841046,-0.153305,0.741089,-0.159164
584,5.84,-1.402684,-0.182331,0.854165,-0.15756199999999998,0.590897,-0.044113
585,5.85,-1.461659,-0.353991,0.82324,-0.15863,0.377838,0.08052100000000001
586,5.86,-1.322202,-0.439362,0.741835,-0.141586,0.14241000000000004,0.197708
587,5.87,-1.184566,-0.524384,0.42432299999999995,-0.110687,-0.07383699999999999,0.310623
588,5.88,-0.799728,-0.5293359999999999,-0.0054369999999999705,-0.06488,-0.246399,0.41288800000000003
589,5.89,-0.41572600000000004,-0.534614,-0.535357,-0.029724,-0.341217,0.4832
590,5.9,-0.09368300000000003,-0.5928680000000001,-1.062898,-0.029724,-0.418976,0.523682
591,5.91,0.231931,-0.516421,-1.41583,-0.048904,-0.475433,0.5332640000000001
592,5.92,0.426868,-0.49360200000000004,-1.703846,-0.068085,-0.467987,0.521545
593,5.93,0.598817,-0.581589,-1.7304650000000001,-0.084061,-0.409393,0.49491899999999994
594,5.94,0.686109,-0.604743,-1.745182,-0.084061,-0.371048,0.456558
595,5.95,0.7958189999999999,-0.586733,-1.783626,-0.080856,-0.36677600000000005,0.40010100000000004
596,5.96,0.9103120000000001,-0.506575,-1.8126939999999998,-0.088318,-0.36145,0.332993
597,5.97,0.994884,-0.444384,-1.8188959999999998,-0.0979,-0.329498,0.250977
598,5.98,0.950644,-0.36696999999999996,-1.558391,-0.103226,-0.24960300000000002,0.14444
599,5.99,0.779547,-0.246912,-1.147089,-0.081924,-0.12709,0.034714
600,6.0,0.584648,-0.198375,-0.629221,-0.010559000000000006,0.017776,-0.073929
601,6.01,0.29735500000000004,-0.182729,-0.279974,0.101303,0.134964,-0.168747
602,6.02,0.027317000000000008,-0.026407999999999997,-0.128668,0.22380100000000003,0.202072,-0.235855
603,6.03,-0.21920700000000004,0.217327,-0.174454,0.333527,0.229767,-0.268875
604,6.04,-0.388156,0.426612,-0.404092,0.40063499999999996,0.21698,-0.259293
605,6.05,-0.44564799999999993,0.693029,-0.617337,0.398514,0.16477999999999998,-0.22094699999999998
606,6.06,-0.40031300000000003,0.920818,-0.748422,0.332458,0.075302,-0.167679
607,6.07,-0.3259,1.093369,-0.678469,0.220612,-0.033356,-0.11335799999999999
608,6.08,-0.171605,1.22787,-0.451829,0.088516,-0.129227,-0.064346
609,6.09,-0.072507,1.272692,-0.08110800000000001,-0.028670999999999995,-0.183548,-0.027069
610,6.1,-0.043317,1.279786,0.4586330000000001,-0.10961900000000001,-0.19100999999999999,-0.0025629999999999997
611,6.11,0.033184999999999985,1.267369,0.9363100000000001,-0.151169,-0.150528,0.016617
612,6.12,0.073185,1.128217,1.400752,-0.162888,-0.09088099999999999,0.015549
613,6.13,-0.0007039999999999963,0.983558,1.797632,-0.159698,-0.042938,0.0038299999999999996
614,6.14,-0.002665,0.940033,2.200107,-0.130936,-0.042938,-0.024933
615,6.15,-0.104121,0.793945,2.364291,-0.09045399999999999,-0.039749,-0.069672
616,6.16,-0.217187,0.744395,2.3950139999999998,-0.047836000000000004,-0.007782000000000002,-0.115479
617,6.17,-0.265654,0.753249,2.301032,-0.010559,0.05506900000000001,-0.138916
618,6.18,-0.283715,0.6642779999999999,2.117277,9.200000000000008e-05,0.11045799999999999,-0.13359100000000002
619,6.19,-0.142878,0.535421,1.973913,-0.026535,0.14561500000000002,-0.115479
620,6.2,0.020360000000000003,0.19548900000000002,1.9545119999999998,-0.071274,0.143478,-0.10482799999999999
621,6.21,0.19517,-0.331784,2.001541,-0.102173,0.083832,-0.11441
622,6.22,0.321644,-0.715879,1.9949139999999999,-0.096848,-0.026961999999999996,-0.13359100000000002
623,6.23,0.258297,-1.007016,1.785464,-0.059555,-0.17717,-0.15809600000000001
624,6.24,0.407821,-0.996764,1.403707,0.0022280000000000012,-0.340149,-0.173004
625,6.25,0.7109310000000001,-0.8869370000000001,0.76854,0.059753,-0.45094300000000004,-0.187912
626,6.26,0.9106850000000001,-0.792387,0.15238000000000007,0.090652,-0.497803,-0.213486
627,6.27,1.0895270000000001,-0.491633,-0.46303500000000003,0.08638,-0.499939,-0.23799099999999998
628,6.28,1.223752,-0.265363,-0.96946,0.041641000000000004,-0.428558,-0.256104
629,6.29,1.267833,-0.18265699999999999,-1.2919370000000001,-0.041443,-0.28476,-0.26568600000000003
630,6.3,1.190769,-0.169128,-1.3523180000000001,-0.14798,-0.10153200000000001,-0.26355
631,6.31,0.944291,-0.269217,-1.134164,-0.26408400000000004,0.05719,-0.262482
632,6.32,0.576909,-0.45221999999999996,-0.6535989999999999,-0.370621,0.144547,-0.244385
633,6.33,0.277856,-0.602748,-0.13828799999999994,-0.441986,0.149872,-0.21562199999999998
634,6.34,0.013416000000000013,-0.7647010000000001,0.30230999999999997,-0.469681,0.127502,-0.162354
635,6.35,-0.08559800000000001,-0.9671930000000001,0.48545299999999997,-0.464355,0.068909,-0.09524500000000001
636,6.36,-0.057461,-1.194499,0.569344,-0.452637,0.0028690000000000035,-0.040909
637,6.37,3.500000000000031e-05,-1.428258,0.553933,-0.441986,-0.08128400000000001,-0.014282
638,6.38,0.0504,-1.6506900000000002,0.504117,-0.432404,-0.160126,-0.012145999999999999
639,6.39,0.081402,-1.8381490000000003,0.49562799999999996,-0.408966,-0.24107399999999998,-0.030257999999999997
640,6.4,0.21587800000000001,-1.912002,0.449248,-0.35783400000000004,-0.315643,-0.065414
641,6.41,0.329845,-1.8805830000000001,0.35902399999999995,-0.27473400000000003,-0.359329,-0.119736
642,6.42,0.41245699999999996,-1.633786,0.082036,-0.16181900000000002,-0.359329,-0.17086800000000002
643,6.43,0.422616,-1.3855790000000001,-0.289066,-0.045715,-0.315643,-0.213486
644,6.44,0.49353,-1.17412,-0.680127,0.054428,-0.251724,-0.246506
645,6.45,0.496346,-0.98206,-1.0262040000000001,0.12579300000000002,-0.15266400000000002,-0.272079
646,6.46,0.32517399999999996,-0.8497809999999999,-1.2959969999999998,0.166275,-0.057846,-0.29551700000000003
647,6.47,0.24287199999999998,-0.6617350000000001,-1.440986,0.181198,0.017776000000000004,-0.300842
648,6.48,0.059822,-0.524799,-1.505506,0.176926,0.07743799999999999,-0.293381
649,6.49,-0.0010480000000000003,-0.354601,-1.549566,0.166275,0.132828,-0.266754
650,6.5,0.013297,-0.17207499999999998,-1.465167,0.154556,0.179703,-0.236923
651,6.51,0.031738,-0.012438000000000005,-1.339933,0.13858,0.205261,-0.207092
652,6.52,0.05039,0.203808,-1.147419,0.114075,0.179703,-0.17193599999999998
653,6.53,-0.008791,0.382944,-0.976039,0.085312,0.099808,-0.125076
654,6.54,0.06711,0.6453840000000001,-0.790325,0.065079,-0.010985999999999996,-0.067551
655,6.55,0.165845,0.8296889999999999,-0.6381899999999999,0.053360000000000005,-0.100464,-0.011093
656,6.56,0.396604,0.9659719999999999,-0.374127,0.060822,-0.15799000000000002,0.040054
657,6.57,0.539118,1.054705,-0.20562800000000003,0.082123,-0.19100999999999999,0.062424
658,6.58,0.620199,1.1668530000000001,0.0011530000000000012,0.10555999999999999,-0.20059200000000002,0.057098
659,6.59,0.59767,1.307094,0.145403,0.131119,-0.173965,0.043243000000000004
660,6.6,0.614013,1.424044,0.31087,0.16095,-0.10899400000000001,0.032593000000000004
661,6.61,0.6186470000000001,1.50686,0.43222,0.190781,0.016708,0.011292
662,6.62,0.49705600000000005,1.565975,0.487288,0.207825,0.187164,-0.0025629999999999997
663,6.63,0.264897,1.621597,0.6339779999999999,0.197174,0.366119,-0.0047
664,6.64,-0.109584,1.500181,1.007492,0.152435,0.507797,0.007019000000000001
665,6.65,-0.474113,1.504601,1.536761,0.088516,0.583435,0.049637
666,6.66,-0.8005,1.293879,2.00268,0.036316,0.554672,0.096512
667,6.67,-0.8717940000000001,1.24617,2.3595,-0.0030979999999999983,0.446014,0.152969
668,6.68,-1.027156,1.157504,2.349116,-0.027603000000000003,0.27771,0.22007800000000002
669,6.69,-0.9162629999999999,1.018456,2.143847,-0.06488,0.152008,0.287186
670,6.7,-0.762316,0.758937,1.8336139999999999,-0.119217,0.083832,0.346848
671,6.71,-0.632474,0.604349,1.605259,-0.18418900000000002,0.013518999999999995,0.38945
672,6.72,-0.44316400000000006,0.495754,1.475039,-0.249176,-0.034424,0.41395600000000005
673,6.73,-0.35482199999999997,0.23544099999999998,1.5773409999999999,-0.28112800000000004,-0.032288,0.417145
674,6.74,-0.410314,-0.059235,1.699487,-0.24171399999999998,0.008194,0.39798
675,6.75,-0.523993,-0.48516000000000004,1.7138509999999998,-0.129868,0.080627,0.377731
676,6.76,-0.593958,-0.803005,1.481997,0.029922000000000008,0.166916,0.358566
677,6.77,-0.588475,-0.993801,1.116092,0.20463599999999998,0.23934899999999998,0.339386
678,6.78,-0.693296,-1.174577,0.49658500000000005,0.342041,0.263855,0.341522
679,6.79,-0.612955,-1.1518700000000002,-0.082233,0.40170300000000003,0.221252,0.36496
680,6.8,-0.43727299999999997,-1.1085200000000002,-0.695116,0.385727,0.124313,0.37561
681,6.81,-0.195662,-0.9549,-1.163646,0.29836999999999997,0.029495,0.384125
682,6.82,0.045433999999999995,-0.686136,-1.4606860000000002,0.151367,-0.033356,0.370285
683,6.83,0.222606,-0.583148,-1.550123,-0.027603000000000003,-0.055725,0.339386
684,6.84,0.33761399999999997,-0.46503900000000004,-1.3299040000000002,-0.21188400000000002,-0.038681,0.295715
685,6.85,0.225994,-0.39304,-0.833189,-0.363159,0.044418,0.247772
686,6.86,0.0030670000000000003,-0.450269,-0.17075399999999996,-0.45903,0.181824,0.203033
687,6.87,-0.250237,-0.49289499999999997,0.4868,-0.48779300000000003,0.326706,0.160416
688,6.88,-0.663179,-0.7026640000000001,0.9501860000000001,-0.465424,0.44389300000000004,0.13378900000000002
689,6.89,-0.883865,-0.8284950000000001,1.433344,-0.400436,0.495026,0.127396
690,6.9,-1.075766,-1.024767,1.7506549999999999,-0.28433200000000003,0.48863199999999996,0.126328
691,6.91,-1.1552930000000001,-1.125592,1.7776330000000002,-0.12454200000000001,0.425781,0.13378900000000002
692,6.92,-1.146161,-1.165118,1.515927,0.049102999999999994,0.346954,0.146576
693,6.93,-1.076111,-1.0410059999999999,0.873243,0.21101399999999998,0.274506,0.17213399999999998
694,6.94,-0.925751,-0.9518559999999999,0.09697500000000003,0.326065,0.218048,0.203033
695,6.95,-0.704203,-0.850261,-0.7221810000000001,0.38147,0.177567,0.22859200000000002
696,6.96,-0.438479,-0.679013,-1.404657,0.379333,0.158401,0.243515
697,6.97,-0.21865300000000001,-0.5866239999999999,-1.999264,0.351639,0.157333,0.249908
698,6.98,-0.017909000000000008,-0.47065200000000007,-2.437907,0.288788,0.186096,0.25949099999999997
699,6.99,0.06769299999999999,-0.516766,-2.595901,0.222733,0.210587,0.274399
700,7.0,0.08454199999999999,-0.47178400000000004,-2.581762,0.143906,0.21379099999999998,0.298904
701,7.01,0.18698800000000002,-0.430609,-2.460886,0.07147200000000001,0.167984,0.320206
702,7.02,0.27674,-0.42246300000000003,-2.234249,-0.003097999999999997,0.095551,0.322342
703,7.03,0.368128,-0.40189,-2.008793,-0.06275900000000001,0.002868999999999997,0.305298
704,7.04,0.40481300000000003,-0.35754600000000003,-1.7460959999999999,-0.101105,-0.068512,0.278671
705,7.05,0.5175609999999999,-0.312037,-1.497226,-0.100037,-0.115372,0.23072800000000002
706,7.06,0.553897,-0.24659899999999998,-1.2704010000000001,-0.055298,-0.114319,0.165741
707,7.07,0.558848,-0.10999799999999997,-1.104554,0.013946999999999998,-0.06423999999999999,0.093307
708,7.08,0.448845,-0.087324,-0.8933549999999999,0.091705,0.017776,0.01767
709,7.09,0.34683,0.062503,-0.7438020000000001,0.181198,0.101944,-0.05583200000000001
710,7.1,0.162606,0.276435,-0.507523,0.26535,0.191422,-0.12187200000000001
711,7.11,-0.0009220000000000199,0.46379,-0.357042,0.333527,0.235092,-0.173004
712,7.12,-0.117071,0.7320720000000001,-0.24025900000000003,0.374008,0.22657800000000003,-0.200699
713,7.13,-0.300317,0.8703190000000001,-0.15698399999999998,0.38465900000000003,0.157333,-0.198578
714,7.14,-0.300138,1.057333,-0.144453,0.368683,0.062515,-0.16449
715,7.15,-0.238371,1.201978,-0.141394,0.323944,-0.014175,-0.12187200000000001
716,7.16,-0.20556799999999997,1.197843,-0.044453000000000006,0.255768,-0.05146799999999999,-0.080322
717,7.17,-0.143289,1.0899969999999999,0.203807,0.169479,-0.058914,-0.050506999999999996
718,7.18,-0.104197,1.054015,0.61024,0.07254,-0.048264,-0.03772
719,7.19,-0.167821,1.0279559999999999,1.27871,-0.005233999999999999,-0.058914,-0.047302
720,7.2,-0.21238200000000002,1.069704,1.833393,-0.047836000000000004,-0.085556,-0.053696
721,7.21,-0.19155999999999998,1.100118,2.186615,-0.06488,-0.10899400000000001,-0.062225
722,7.22,-0.188421,1.094415,2.415926,-0.080856,-0.113251,-0.073929
723,7.23,-0.132427,1.12543,2.327314,-0.110687,-0.118576,-0.080322
724,7.24,-0.046921,1.1867219999999998,2.415197,-0.17247,-0.100464,-0.097366
725,7.25,-0.168552,1.017615,2.5441119999999997,-0.235321,-0.06423999999999999,-0.101639
726,7.26,-0.36367,0.661614,2.766162,-0.28433200000000003,-0.039749,-0.082458
727,7.27,-0.46257600000000004,0.11900500000000006,2.962965,-0.275803,-0.089813,-0.056885000000000005
728,7.28,-0.38217399999999996,-0.34678600000000004,3.001532,-0.206558,-0.21444699999999997,-0.041977
729,7.29,-0.224004,-0.667905,2.673694,-0.078735,-0.38063,-0.057953
730,7.3,0.029012000000000013,-0.790287,1.97386,0.07786599999999999,-0.512726,-0.079269
731,7.31,0.431188,-0.763994,1.0247709999999999,0.21740700000000002,-0.5702510000000001,-0.10482799999999999
732,7.32,0.788866,-0.543071,0.04554499999999995,0.29943800000000004,-0.569183,-0.147446
733,7.33,1.0849879999999998,-0.17978199999999994,-0.830874,0.316483,-0.515915,-0.191116
734,7.34,1.185051,0.06992800000000003,-1.513334,0.257889,-0.379562,-0.22201500000000002
735,7.35,1.2098389999999999,0.202753,-1.852265,0.132187,-0.189941,-0.24224899999999996
736,7.36,1.001077,0.203204,-1.7807979999999999,-0.027603,0.019913,-0.256104
737,7.37,0.674128,0.008961999999999998,-1.425154,-0.193787,0.19461099999999998,-0.261429
738,7.38,0.274428,-0.329793,-0.7258100000000001,-0.325867,0.29155,-0.253967
739,7.39,-0.148567,-0.64798,-0.047080999999999984,-0.39299,0.338425,-0.235855
740,7.4,-0.37051300000000004,-0.9917020000000001,0.446829,-0.395111,0.313919,-0.207092
741,7.41,-0.476811,-1.2585549999999999,0.694932,-0.36848400000000003,0.23615999999999998,-0.176208
742,7.42,-0.46850299999999995,-1.470006,0.70244,-0.324814,0.09874,-0.150635
743,7.43,-0.363832,-1.536649,0.530659,-0.279007,-0.062119000000000014,-0.126129
744,7.44,-0.14375700000000002,-1.623847,0.254306,-0.23745700000000003,-0.212311,-0.105896
745,7.45,0.11298699999999999,-1.655488,-0.07293199999999997,-0.20762600000000003,-0.316711,-0.099503
746,7.46,0.36935100000000004,-1.6184209999999999,-0.367295,-0.176743,-0.36998000000000003,-0.11761500000000001
747,7.47,0.580589,-1.5876649999999999,-0.639936,-0.142654,-0.37742600000000004,-0.151703
748,7.48,0.6780079999999999,-1.519269,-0.859476,-0.10643,-0.344406,-0.20497100000000001
749,7.49,0.679148,-1.385757,-0.948924,-0.056366,-0.263443,-0.260361
750,7.5,0.545077,-1.157887,-1.0047540000000001,0.008621,-0.150528,-0.308289
751,7.51,0.380006,-0.966447,-1.088191,0.074661,-0.020569000000000004,-0.33493
752,7.52,0.257317,-0.7817029999999999,-1.2032180000000001,0.12153599999999999,0.087021,-0.331726
753,7.53,0.130356,-0.616912,-1.308087,0.137512,0.14135699999999998,-0.316818
754,7.54,0.007665999999999998,-0.500149,-1.323795,0.11941500000000001,0.14561500000000002,-0.288055
755,7.55,-0.064415,-0.311728,-1.202093,0.083191,0.122177,-0.246506
756,7.56,-0.172969,-0.18146800000000002,-1.0312379999999999,0.051224,0.096603,-0.19751
757,7.57,-0.229477,-0.065587,-0.782674,0.030991,0.068909,-0.145309
758,7.58,-0.209083,0.005660999999999999,-0.580857,0.038452,0.034821,-0.099503
759,7.59,-0.179678,0.141765,-0.390773,0.07147200000000001,0.013519,-0.056885000000000005
760,7.6,-0.07640599999999999,0.250125,-0.30303800000000003,0.117279,0.007126,-0.028137
761,7.61,-0.028204000000000003,0.386183,-0.264567,0.16734300000000002,0.011382999999999999,-0.006821000000000001
762,7.62,0.0114,0.527938,-0.30871,0.209961,0.042282,0.005965999999999999
763,7.63,-0.007538000000000001,0.630188,-0.3316,0.239777,0.083832,0.013412
764,7.64,0.005999,0.763584,-0.38172,0.248306,0.130692,0.024063
765,7.65,0.041987000000000003,0.9315620000000001,-0.43731499999999995,0.224869,0.187164,0.031525
766,7.66,0.046494,1.126155,-0.383781,0.182251,0.247879,0.037918
767,7.67,-0.028756,1.291684,-0.195326,0.116211,0.323517,0.045380000000000004
768,7.68,-0.216364,1.34721,0.17870899999999998,0.041641000000000004,0.388489,0.060287
769,7.69,-0.452891,1.2763799999999998,0.595342,-0.033997,0.43536400000000003,0.086914
770,7.7,-0.596753,1.192544,1.0937540000000001,-0.101105,0.456665,0.11781300000000001
771,7.71,-0.734954,1.092541,1.529367,-0.15223699999999998,0.410858,0.14444
772,7.72,-0.74633,1.029757,1.8015720000000002,-0.18951400000000002,0.312866,0.170013
773,7.73,-0.68366,0.9585389999999999,1.950516,-0.225739,0.22657800000000003,0.197708
774,7.74,-0.539529,0.841,1.938041,-0.269409,0.160522,0.209427
775,7.75,-0.41758,0.723252,1.927691,-0.33013899999999996,0.12324500000000001,0.20517
776,7.76,-0.340879,0.699865,2.0599950000000002,-0.383392,0.10513299999999999,0.183853
777,7.77,-0.434796,0.690447,2.303002,-0.401505,0.134964,0.151901
778,7.78,-0.558059,0.48967700000000003,2.5220380000000002,-0.362091,0.224442,0.136993
779,7.79,-0.8603709999999999,0.148394,2.6780060000000003,-0.269409,0.307526,0.13378900000000002
780,7.8,-1.093653,-0.365589,2.68715,-0.123474,0.307526,0.150833
781,7.81,-1.175974,-0.633035,2.350759,0.049103000000000015,0.27771,0.192383
782,7.82,-1.145626,-0.7462840000000001,1.7001490000000001,0.20675700000000002,0.21698,0.231796
783,7.83,-0.954715,-0.7708020000000001,0.784111,0.30795300000000003,0.129639,0.275467
784,7.84,-0.647688,-0.5647439999999999,-0.038822000000000016,0.32074,0.069977,0.313828
785,7.85,-0.50884,-0.386318,-0.6533359999999999,0.24937399999999998,0.060394,0.342575
786,7.86,-0.41585900000000003,-0.340158,-1.100962,0.11941500000000001,0.090225,0.368149
787,7.87,-0.334566,-0.33713200000000004,-1.20604,-0.047836,0.15626500000000002,0.38305700000000004
788,7.88,-0.402469,-0.459582,-1.020717,-0.21188400000000002,0.227631,0.377731
789,7.89,-0.550353,-0.5717979999999999,-0.5493939999999999,-0.346115,0.284103,0.359619
790,7.9,-0.684582,-0.702404,-0.027740999999999988,-0.421753,0.308594,0.351105
791,7.91,-0.749454,-0.832571,0.266779,-0.432404,0.307526,0.343643
792,7.92,-0.8329270000000001,-0.9802850000000001,0.43416400000000005,-0.400436,0.270248,0.33725
793,7.93,-0.782189,-1.047991,0.437687,-0.341858,0.187164,0.340454
794,7.94,-0.719079,-1.061432,0.280393,-0.267288,0.07743799999999999,0.346848
795,7.95,-0.504302,-0.991818,0.016448000000000004,-0.18100000000000002,-0.010986000000000004,0.359619
796,7.96,-0.210777,-0.9254040000000001,-0.446471,-0.100037,-0.046143,0.36601300000000003
797,7.97,0.01144100000000002,-0.859065,-0.777995,-0.027603000000000003,-0.022705,0.352173
798,7.98,0.077894,-0.796299,-1.0345659999999999,0.032059,0.038025,0.331924
799,7.99,0.107851,-0.6958439999999999,-1.2654370000000001,0.085312,0.116852,0.30636599999999997
800,8.0,-0.064288,-0.6133810000000001,-1.340652,0.123672,0.19249000000000002,0.291443
801,8.01,-0.185076,-0.603839,-1.454329,0.146042,0.22869899999999999,0.295715
802,8.02,-0.21607600000000002,-0.548701,-1.501575,0.143906,0.23083499999999998,0.308487
803,8.03,-0.274418,-0.544046,-1.4771239999999999,0.114075,0.195679,0.32341
804,8.04,-0.222571,-0.475498,-1.369437,0.07572899999999999,0.130692,0.344711
805,8.05,-0.147121,-0.48134499999999997,-1.291029,0.043776999999999996,0.054001,0.359619
806,8.06,0.051736000000000004,-0.45083999999999996,-1.204653,0.009689,-0.015244,0.357498
807,8.07,0.217354,-0.409256,-1.0211139999999999,-0.009491,-0.075958,0.334061
808,8.08,0.302379,-0.27270900000000003,-0.836284,-0.01268,-0.11750799999999999,0.292511
809,8.09,0.311446,-0.19833,-0.6537970000000001,-0.0041659999999999996,-0.164383,0.24563600000000002
810,8.1,0.305505,-0.094375,-0.435634,0.011809999999999998,-0.205933,0.197708
811,8.11,0.348209,-0.08534800000000001,-0.206565,0.048035000000000015,-0.250671,0.140182
812,8.12,0.326342,-0.038426,-0.056046000000000006,0.107697,-0.270905,0.076263
813,8.13,0.35746100000000003,0.068159,0.04222,0.185455,-0.26239,-0.006821000000000001
814,8.14,0.320986,0.261387,0.088241,0.277069,-0.218704,-0.10057100000000001
815,8.15,0.24321399999999999,0.529408,0.092044,0.368683,-0.15799000000000002,-0.192184
816,8.16,0.129735,0.7932130000000001,0.100315,0.441116,-0.084488,-0.259293
817,8.17,0.107352,1.086924,0.12072999999999999,0.490112,-0.01205400000000001,-0.300842
818,8.18,0.030098000000000007,1.32303,0.099398,0.503967,0.061462,-0.323212
819,8.19,-0.038748000000000005,1.475917,0.18193099999999998,0.475204,0.12324500000000001,-0.33493
820,8.2,-0.16481300000000002,1.485388,0.386108,0.40489200000000003,0.174377,-0.332794
821,8.21,-0.235603,1.424513,0.737236,0.327133,0.212723,-0.32853699999999997
822,8.22,-0.426828,1.27562,1.194704,0.2547,0.221252,-0.322144
823,8.23,-0.577684,1.216798,1.586978,0.200363,0.15094000000000002,-0.299774
824,8.24,-0.666361,1.202618,1.7667540000000002,0.149231,0.018844999999999997,-0.26355
825,8.25,-0.663027,1.061619,1.774185,0.087448,-0.12709,-0.20602399999999998
826,8.26,-0.39279899999999995,0.9953219999999999,1.619751,-0.002029000000000003,-0.24960300000000002,-0.14212
827,8.27,-0.005203000000000013,0.8953530000000001,1.541835,-0.10961900000000001,-0.333755,-0.099503
828,8.28,0.35796799999999995,0.6060260000000001,1.577988,-0.22254899999999997,-0.38063,-0.07713300000000001
829,8.29,0.6930470000000001,0.149372,1.7359950000000002,-0.306702,-0.41046099999999996,-0.07499700000000001
830,8.3,0.818008,-0.434615,1.905171,-0.33758499999999997,-0.430695,-0.099503
831,8.31,0.953731,-1.034936,2.088839,-0.285385,-0.45094300000000004,-0.150635
832,8.32,1.042163,-1.5264389999999999,2.091634,-0.156494,-0.48182700000000006,-0.236923
833,8.33,0.961858,-1.698778,1.90668,0.03952,-0.502075,-0.340256
834,8.34,0.9349700000000001,-1.5989520000000002,1.343409,0.277069,-0.503128,-0.42866499999999996
835,8.35,0.953623,-1.347501,0.4659930000000001,0.483734,-0.466919,-0.49472
836,8.36,1.0051219999999998,-0.9565739999999999,-0.481199,0.6158140000000001,-0.404068,-0.528809
837,8.37,1.173897,-0.47517200000000004,-1.40489,0.652039,-0.324173,-0.53093
838,8.38,1.261881,-0.200397,-2.170357,0.5817260000000001,-0.245346,-0.512833
839,8.39,1.360427,0.09830599999999999,-2.620779,0.417679,-0.175034,-0.505371
840,8.4,1.1999,0.25950100000000004,-2.7505040000000003,0.19397,-0.09407,-0.505371
841,8.41,0.7942859999999999,0.300741,-2.500284,-0.040375000000000015,0.029495,-0.47553999999999996
842,8.42,0.421818,0.302123,-1.8920869999999999,-0.255569,0.182892,-0.424408
843,8.43,-0.039043,0.10322199999999998,-1.112652,-0.42707799999999996,0.306473,-0.356232
844,8.44,-0.400436,-0.065716,-0.377589,-0.557037,0.360794,-0.279526
845,8.45,-0.701525,-0.542326,0.336432,-0.635864,0.311798,-0.193253
846,8.46,-0.8973700000000001,-0.785842,0.9013969999999999,-0.6624909999999999,0.140289,-0.110153
847,8.47,-0.9074120000000001,-1.142781,1.2993379999999999,-0.640121,-0.112183,-0.038787999999999996
848,8.48,-0.784267,-1.273744,1.410648,-0.571945,-0.388092,0.025131
849,8.49,-0.37822,-1.411592,1.235288,-0.463287,-0.6533359999999999,0.062424
850,8.5,0.033941000000000034,-1.351896,0.723997,-0.348236,-0.815262,0.065613
851,8.51,0.439958,-1.280418,0.099591,-0.236389,-0.889832,0.042175
852,8.52,0.836608,-1.2232100000000001,-0.5588770000000001,-0.153305,-0.8706510000000001,0.001694000000000001
853,8.53,1.1104,-1.089921,-1.018071,-0.08725,-0.770508,-0.06008899999999999
854,8.54,1.202297,-1.024093,-1.29255,-0.038254,-0.62883,-0.143173
855,8.55,1.1482709999999998,-0.924984,-1.343787,0.010757000000000004,-0.493546,-0.227341
856,8.56,1.034693,-0.6434989999999999,-1.346228,0.060822,-0.341217,-0.29551700000000003
857,8.57,0.921811,-0.420385,-1.308249,0.113022,-0.197403,-0.33812
858,8.58,0.747616,-0.183862,-1.335739,0.14283800000000002,-0.079163,-0.3573
859,8.59,0.5566409999999999,0.009905999999999998,-1.3034270000000001,0.139648,-0.028030000000000003,-0.34876999999999997
860,8.6,0.41226599999999997,0.27967800000000004,-1.159685,0.117279,-0.04187,-0.317886
861,8.61,0.322189,0.36332800000000004,-1.0158200000000002,0.082123,-0.095139,-0.277405
862,8.62,0.272339,0.400494,-0.796635,0.050171,-0.133484,-0.23266599999999998
863,8.63,0.253281,0.42803500000000005,-0.51925,0.032059,-0.14094500000000001,-0.195374
864,8.64,0.181814,0.523525,-0.241934,0.025664999999999997,-0.13562000000000002,-0.162354
865,8.65,0.15192999999999998,0.592163,0.09177899999999996,0.036316,-0.12709,-0.13359100000000002
866,8.66,0.18341400000000002,0.636314,0.413274,0.064011,-0.133484,-0.11228900000000001
867,8.67,0.301268,0.785882,0.644396,0.10981800000000001,-0.139877,-0.102692
868,8.68,0.382362,0.839987,0.7136680000000001,0.158829,-0.13562000000000002,-0.102692
869,8.69,0.43454499999999996,0.887962,0.662658,0.203568,-0.11750799999999999,-0.106964
870,8.7,0.439766,0.9846290000000001,0.634545,0.219543,-0.07489,-0.111221
871,8.71,0.434821,0.9501040000000001,0.695167,0.216354,-0.015244,-0.11228900000000001
872,8.72,0.37890799999999997,0.9438110000000001,0.840606,0.205688,0.054001,-0.127197
873,8.73,0.24460700000000002,0.856167,1.0755629999999998,0.203568,0.12324500000000001,-0.145309
874,8.74,0.161823,0.8380610000000001,1.3193270000000001,0.220612,0.163727,-0.165543
875,8.75,0.156006,0.9759770000000001,1.485951,0.2547,0.165848,-0.18365499999999998
876,8.76,0.125459,1.230049,1.356343,0.293045,0.111526,-0.191116
877,8.77,0.196406,1.520848,1.117558,0.296249,0.040146,-0.181534
878,8.78,0.21029899999999999,1.711216,0.8615879999999999,0.244049,0.035889,-0.16661099999999998
879,8.79,0.050019000000000015,1.656655,0.741223,0.144974,0.058258000000000004,-0.13359100000000002
880,8.8,-0.059587000000000015,1.532742,1.0257040000000002,0.019272,0.14668299999999998,-0.094177
881,8.81,-0.311687,1.2189649999999999,1.606336,-0.06488,0.205261,-0.049438
882,8.82,-0.554609,0.577737,2.18173,-0.07020599999999999,0.18928499999999998,-0.013213999999999998
883,8.83,-0.736196,0.010516000000000024,2.487083,0.0032960000000000003,0.11471600000000001,0.021942
884,8.84,-0.8993450000000001,-0.553766,2.361154,0.132187,-0.008850000000000005,0.064545
885,8.85,-0.745394,-0.848736,1.809232,0.256821,-0.14413499999999999,0.11142
886,8.86,-0.430666,-0.959261,0.909126,0.33139,-0.255997,0.152969
887,8.87,-0.122173,-0.970176,0.022040999999999974,0.327133,-0.30925,0.173203
888,8.88,0.111144,-0.8593040000000001,-0.58613,0.256821,-0.302872,0.17640699999999998
889,8.89,0.238577,-0.818511,-0.968363,0.13858,-0.24427800000000002,0.160416
890,8.9,0.35382600000000003,-0.787117,-1.101315,-0.0052340000000000025,-0.129227,0.127396
891,8.91,0.33716799999999997,-0.835311,-0.97814,-0.146912,0.014586999999999998,0.070938
892,8.92,0.14057999999999998,-0.808638,-0.644659,-0.265152,0.134964,0.016617
893,8.93,-0.103434,-0.8503850000000001,-0.22616399999999998,-0.348236,0.190353,-0.011093
894,8.94,-0.398325,-0.834073,0.09322899999999999,-0.396179,0.190353,-0.012145999999999999
895,8.95,-0.561824,-0.9102530000000001,0.373635,-0.42068500000000003,0.11045799999999999,0.009155
896,8.96,-0.6008819999999999,-0.9035479999999999,0.44919499999999996,-0.418549,-0.020569000000000004,0.042175
897,8.97,-0.516966,-0.945775,0.403192,-0.390854,-0.161179,0.0784
898,8.98,-0.226109,-0.949174,0.237271,-0.333328,-0.259186,0.102905
899,8.99,0.07066800000000001,-0.9667530000000001,-0.010485999999999995,-0.25450100000000003,-0.285812,0.103958
900,9.0,0.332872,-0.929695,-0.249887,-0.15756199999999998,-0.24746700000000002,0.084793
901,9.01,0.42546000000000006,-0.872548,-0.578527,-0.059555,-0.183548,0.051758000000000005
902,9.02,0.466354,-0.75621,-0.88149,0.016083,-0.107925,0.016617
903,9.03,0.383253,-0.6803520000000001,-1.083496,0.07147200000000001,-0.038681,-0.012145999999999999
904,9.04,0.32761399999999996,-0.580437,-1.278254,0.108749,-0.007782000000000002,-0.026001
905,9.05,0.202685,-0.34012800000000004,-1.55128,0.104492,-0.022705,-0.016418000000000002
906,9.06,0.12478199999999999,-0.262857,-1.700708,0.064011,-0.06105,0.012343999999999999
907,9.07,0.145294,-0.17238,-1.788721,-0.003097999999999997,-0.131363,0.053894000000000004
908,9.08,0.196545,-0.131868,-1.7992709999999998,-0.09364299999999999,-0.21763600000000002,0.08905
909,9.09,0.289365,-0.146052,-1.567081,-0.195908,-0.307129,0.11781300000000001
910,9.1,0.416375,-0.159275,-1.217159,-0.26621999999999996,-0.396606,0.126328
911,9.11,0.523836,-0.346435,-0.7738,-0.29924,-0.474365,0.108231
912,9.12,0.628468,-0.39429699999999995,-0.423447,-0.28006,-0.528702,0.059219000000000015
913,9.13,0.751546,-0.41070500000000004,-0.13611800000000002,-0.215088,-0.5542600000000001,-0.013214000000000009
914,9.14,0.8598389999999999,-0.296672,0.07087600000000001,-0.11389200000000001,-0.538284,-0.111221
915,9.15,0.7768,-0.24573699999999998,0.16276600000000002,0.01181,-0.48289499999999996,-0.219879
916,9.16,0.752383,-0.02879,0.19763499999999998,0.152435,-0.399796,-0.318954
917,9.17,0.712738,0.239027,0.19546,0.29090900000000003,-0.28476,-0.403107
918,9.18,0.507208,0.565657,0.12439800000000001,0.412354,-0.175034,-0.47767600000000005
919,9.19,0.355011,0.910058,-0.024220999999999996,0.48692299999999994,-0.10472100000000001,-0.513885
920,9.2,0.26392899999999997,1.145571,-0.13644900000000001,0.503967,-0.077026,-0.523483
921,9.21,0.258062,1.322306,-0.146501,0.459229,-0.079163,-0.5064390000000001
922,9.22,0.22061399999999998,1.38723,-0.106706,0.369751,-0.106857,-0.478729
923,9.23,0.292179,1.285224,0.191045,0.256821,-0.156921,-0.438263
924,9.24,0.314087,1.114657,0.584024,0.143906,-0.212311,-0.399902
925,9.25,0.37345300000000003,0.9549350000000001,1.107546,0.050171,-0.285812,-0.361557
926,9.26,0.44389300000000004,0.789223,1.468057,-0.027602999999999996,-0.38063,-0.331726
927,9.27,0.585515,0.6154970000000001,1.710722,-0.092575,-0.489288,-0.326401
928,9.28,0.797383,0.515243,1.9261169999999999,-0.151169,-0.550003,-0.356232
929,9.29,0.8191390000000001,0.431395,2.092525,-0.195908,-0.546814,-0.41801499999999997
930,9.3,0.8600979999999999,0.36795100000000003,2.379707,-0.225739,-0.463715,-0.5011140000000001
931,9.31,0.725953,0.226346,2.7434529999999997,-0.210831,-0.338013,-0.596985
932,9.32,0.513065,0.10279100000000001,3.162782,-0.135193,-0.23788499999999999,-0.684326
933,9.33,0.120353,-0.12216799999999997,3.313276,0.02780200000000001,-0.18249500000000002,-0.74292
934,9.34,-0.08987200000000001,-0.32368,3.190746,0.24191300000000002,-0.16331500000000002,-0.758896
935,9.35,-0.177905,-0.40674099999999996,2.666969,0.470947,-0.21019000000000002,-0.752502
936,9.36,-0.147489,-0.33072199999999996,1.7082380000000001,0.646713,-0.345474,-0.7162930000000001
937,9.37,0.133722,-0.091696,0.627871,0.728745,-0.493546,-0.663025
938,9.38,0.495522,0.180796,-0.365415,0.7106319999999999,-0.625641,-0.612961
939,9.39,0.863067,0.443196,-1.195782,0.600906,-0.715118,-0.561829
940,9.4,1.119907,0.622159,-1.741296,0.42513999999999996,-0.72258,-0.503235
941,9.41,1.226533,0.7426010000000001,-1.973327,0.202499,-0.619247,-0.432938
942,9.42,1.325516,0.595909,-1.8224029999999998,-0.035049000000000004,-0.45945699999999995,-0.347702
943,9.43,1.327752,0.288858,-1.260424,-0.265152,-0.30925,-0.284851
944,9.44,1.131182,-0.169127,-0.403735,-0.454773,-0.21763600000000002,-0.23799099999999998
945,9.45,0.89366,-0.6271760000000001,0.418785,-0.5708770000000001,-0.206985,-0.195374
946,9.46,0.778025,-1.183918,1.110283,-0.60817,-0.255997,-0.150635
947,9.47,0.633418,-1.64585,1.6497080000000002,-0.569824,-0.348663,-0.124008
948,9.48,0.602072,-1.998614,1.864193,-0.46221899999999994,-0.49140900000000004,-0.10803199999999999
949,9.49,0.667208,-2.197003,1.749054,-0.31948899999999997,-0.638428,-0.10482799999999999
950,9.5,0.854719,-2.3371880000000003,1.311954,-0.170349,-0.757736,-0.115479
951,9.51,1.125808,-2.3239900000000002,0.652574,-0.044647000000000006,-0.826981,-0.151703
952,9.52,1.3647040000000001,-2.260415,-0.11252,0.046967,-0.8472139999999999,-0.207092
953,9.53,1.556589,-2.1638490000000004,-0.699789,0.100235,-0.8312379999999999,-0.28166199999999997
954,9.54,1.620382,-2.000697,-1.173119,0.123672,-0.7801060000000001,-0.378601
955,9.55,1.5078340000000001,-1.7329560000000002,-1.542845,0.146042,-0.636292,-0.512833
956,9.56,1.34594,-1.548946,-1.6598,0.16734300000000002,-0.518051,-0.586334
957,9.57,1.0947360000000002,-1.370491,-1.7524060000000001,0.183319,-0.37742600000000004,-0.641724
958,9.58,0.859741,-1.140141,-1.709007,0.19931,-0.230423,-0.681137
959,9.59,0.546674,-0.8920030000000001,-1.716393,0.202499,-0.1026,-0.7013699999999999
960,9.6,0.323522,-0.64194,-1.620139,0.191849,0.017776,-0.689651
961,9.61,0.12491300000000001,-0.448538,-1.413518,0.16308599999999998,0.107269,-0.650238
962,9.62,-0.068856,-0.31196799999999997,-1.1786780000000001,0.12793,0.136032,-0.596985
963,9.63,-0.20134200000000002,-0.107146,-0.903049,0.082123,0.102997,-0.5170899999999999
964,9.64,-0.258893,-0.003851,-0.651184,0.030991,0.022049000000000003,-0.43187
965,9.65,-0.228104,0.069146,-0.419117,-0.018005,-0.088745,-0.34558099999999997
966,9.66,-0.125226,0.178673,-0.217861,-0.051041,-0.198471,-0.273148
967,9.67,0.110542,0.31252800000000003,-0.099446,-0.07341,-0.270905,-0.219879
968,9.68,0.366196,0.4419,0.100216,-0.07020599999999999,-0.279434,-0.194305
969,9.69,0.562128,0.564999,0.340958,-0.044647000000000006,-0.235748,-0.190048
970,9.7,0.7282029999999999,0.678505,0.5704130000000001,0.004364,-0.188873,-0.209229
971,9.71,0.8638129999999999,0.8608790000000001,0.7294229999999999,0.059753,-0.14945999999999998,-0.240112
972,9.72,0.9075209999999999,1.164758,0.7404810000000001,0.11834700000000001,-0.1026,-0.271011
973,9.73,0.8777370000000001,1.4494770000000001,0.676447,0.16308599999999998,-0.049332,-0.279526
974,9.74,0.964607,1.7133919999999998,0.581896,0.16841099999999998,-0.003525000000000001,-0.269943
975,9.75,1.031543,1.813087,0.597715,0.124741,0.042282,-0.26461799999999996
976,9.76,0.859187,1.742134,0.768196,0.054428,0.067841,-0.261429
977,9.77,0.707439,1.7261330000000001,1.1512360000000001,-0.018005,0.052933,-0.26355
978,9.78,0.650504,1.6936900000000001,1.492054,-0.063812,0.006058000000000001,-0.260361
979,9.79,0.641357,1.6170069999999999,1.764939,-0.08618200000000001,-0.067444,-0.25183099999999997
980,9.8,0.589278,1.492047,1.848523,-0.10536199999999998,-0.10899400000000001,-0.248642
981,9.81,0.571929,1.225211,1.8801830000000002,-0.122406,-0.11644000000000002,-0.247574
982,9.82,0.39717199999999997,0.995187,2.0522650000000002,-0.14798,-0.088745,-0.247574
983,9.83,0.16631999999999994,0.702655,2.306597,-0.15756199999999998,-0.087677,-0.23053
984,9.84,-0.044244000000000006,0.27828200000000003,2.5120810000000002,-0.13198900000000002,-0.172897,-0.186859
985,9.85,-0.12140899999999999,-0.23528400000000002,2.5535799999999997,-0.069138,-0.327362,-0.129333
986,9.86,-0.056824,-0.7167140000000001,2.272465,0.036316,-0.51059,-0.080322
987,9.87,0.15239,-1.1322290000000002,1.737788,0.156693,-0.691681,-0.043045
988,9.88,0.493992,-1.2949680000000001,0.899482,0.273865,-0.804611,-0.024933
989,9.89,0.8296379999999999,-1.309202,0.06295800000000001,0.348434,-0.8237760000000001,-0.027069
990,9.9,1.133254,-1.125758,-0.639317,0.36654699999999996,-0.791824,-0.048369999999999996
991,9.91,1.307814,-0.9815649999999999,-1.2296690000000001,0.311157,-0.710861,-0.07180800000000001
992,9.92,1.429936,-0.877274,-1.581949,0.192917,-0.589417,-0.09843400000000001
993,9.93,1.474332,-0.784366,-1.629738,0.050171000000000014,-0.465851,-0.146378
994,9.94,1.394995,-0.782935,-1.373361,-0.095779,-0.344406,-0.207092
995,9.95,1.179658,-0.763067,-0.9385760000000001,-0.22148099999999998,-0.25811799999999996,-0.271011
996,9.96,0.9590569999999999,-0.757548,-0.4462780000000001,-0.305634,-0.203796,-0.323212
997,9.97,0.724101,-0.719929,0.014887000000000013,-0.33226,-0.165451,-0.359421
998,9.98,0.570317,-0.820641,0.26474699999999995,-0.316284,-0.12709,-0.39032
999,9.99,0.46773000000000003,-0.86465,0.43155200000000005,-0.27261399999999997,-0.106857,-0.410553
1000,10.0,0.388811,-0.883655,0.577591,-0.21402,-0.11750799999999999,-0.42866499999999996
1001,10.01,0.29068099999999997,-0.888124,0.596266,-0.142654,-0.15799000000000002,-0.43399
1002,10.02,0.23221399999999998,-0.797063,0.453287,-0.061690999999999996,-0.22403,-0.424408
1003,10.03,0.146121,-0.740306,0.19639500000000001,0.009689,-0.316711,-0.39245599999999997
1004,10.04,0.117664,-0.5779880000000001,-0.14637,0.059753,-0.41578699999999996,-0.343445
1005,10.05,0.22336,-0.494467,-0.532071,0.078934,-0.513794,-0.29657
1006,10.06,0.367775,-0.369261,-0.864291,0.067215,-0.60434,-0.25822399999999995
1007,10.07,0.516353,-0.301148,-1.052281,0.043776999999999996,-0.659729,-0.231598
1008,10.08,0.62417,-0.21248499999999998,-1.144852,0.027801999999999997,-0.675705,-0.219879
1009,10.09,0.620974,-0.17839100000000002,-1.198343,0.029922000000000004,-0.659729,-0.212418
1010,10.1,0.661875,-0.157627,-1.296174,0.030991,-0.632034,-0.199631
1011,10.11,0.723575,-0.141771,-1.362466,0.028854,-0.605392,-0.18898
1012,10.12,0.7967609999999999,-0.12611,-1.441575,0.005431999999999998,-0.585159,-0.18898
1013,10.13,0.870618,-0.18518800000000002,-1.36435,-0.036118,-0.594742,-0.20815999999999998
1014,10.14,0.8195290000000001,-0.241546,-1.145166,-0.076599,-0.618179,-0.24971
1015,10.15,0.730816,-0.324797,-0.78981,-0.094711,-0.638428,-0.29551700000000003
1016,10.16,0.691343,-0.317121,-0.389544,-0.082993,-0.6394810000000001,-0.34876999999999997
1017,10.17,0.625041,-0.28534899999999996,-0.130184,-0.028670999999999995,-0.633102,-0.407364
1018,10.18,0.563128,-0.16684100000000002,0.097597,0.03952,-0.599014,-0.465958
1019,10.19,0.49854799999999994,0.011581999999999995,0.202452,0.120468,-0.564926,-0.513885
1020,10.2,0.400588,0.21252600000000002,0.156118,0.191849,-0.530838,-0.5415800000000001
1021,10.21,0.44085100000000005,0.42819300000000005,0.068622,0.24084499999999998,-0.49673500000000004,-0.557571
1022,10.22,0.49235500000000004,0.619676,-0.049439,0.2547,-0.463715,-0.562897
1023,10.23,0.551348,0.734225,-0.087798,0.22912600000000002,-0.45094300000000004,-0.56929
1024,10.24,0.565235,0.8227899999999999,0.053783000000000004,0.176926,-0.4552,-0.573547
1025,10.25,0.493108,0.8379200000000001,0.30738699999999997,0.11514300000000001,-0.49673500000000004,-0.571411
1026,10.26,0.378206,0.799299,0.666955,0.07254,-0.539352,-0.556503
1027,10.27,0.33042699999999997,0.6716810000000001,0.9498270000000001,0.049102999999999994,-0.6022029999999999,-0.525604
1028,10.28,0.400244,0.48766899999999996,1.214839,0.041641000000000004,-0.699142,-0.491516
1029,10.29,0.569091,0.346391,1.2998450000000001,0.057616999999999995,-0.826981,-0.47767600000000005
1030,10.3,0.780349,0.26909299999999997,1.256066,0.081055,-0.9388280000000001,-0.48407
1031,10.31,0.967324,0.29940900000000004,1.076022,0.09916699999999999,-0.9899600000000001,-0.5117649999999999
1032,10.32,1.1468129999999999,0.274779,0.701056,0.087448,-0.994217,-0.5426479999999999
1033,10.33,1.345056,0.38016700000000003,0.436669,0.017136000000000002,-0.935638,-0.581009
1034,10.34,1.4583899999999999,0.382617,0.517484,-0.102173,-0.824844,-0.627869
1035,10.35,1.4122540000000001,0.202725,1.040463,-0.236389,-0.679962,-0.681137
1036,10.36,1.032827,-0.019383,1.8228919999999997,-0.33013899999999996,-0.553207,-0.730133
1037,10.37,0.766041,-0.423141,2.668237,-0.346115,-0.51059,-0.771683
1038,10.38,0.444062,-0.871159,3.195029,-0.28433200000000003,-0.535095,-0.7887270000000001
1039,10.39,0.328992,-1.049072,3.4438730000000004,-0.16181900000000002,-0.692749,-0.7951199999999999
1040,10.4,0.314218,-1.103879,3.186184,0.007553000000000005,-0.9388280000000001,-0.790863
1041,10.41,0.541054,-0.9125850000000001,2.5340290000000003,0.176926,-1.200882,-0.766357
1042,10.42,0.744811,-0.430663,1.581907,0.29943800000000004,-1.337234,-0.734406
1043,10.43,0.882654,0.16818699999999998,0.577309,0.371872,-1.347885,-0.6832729999999999
1044,10.44,1.159964,0.690681,-0.342082,0.368683,-1.185974,-0.606567
1045,10.45,1.425201,0.8225309999999999,-1.185483,0.294113,-0.8962100000000001,-0.52774
1046,10.46,1.6212959999999998,0.750272,-1.6405490000000003,0.12793,-0.563858,-0.46914700000000004
1047,10.47,1.558569,0.375853,-1.469159,-0.092575,-0.310318,-0.463821
1048,10.48,1.30493,-0.103483,-0.812226,-0.30349699999999996,-0.20059200000000002,-0.486191
1049,10.49,1.011611,-0.526812,0.061780999999999975,-0.43879700000000005,-0.178223,-0.512833
1050,10.5,0.573351,-0.9497899999999999,0.7999890000000001,-0.476074,-0.208054,-0.539459
1051,10.51,0.201383,-1.258249,1.3739,-0.42813100000000004,-0.289017,-0.5352020000000001
1052,10.52,0.019132,-1.381953,1.630323,-0.31842,-0.41365100000000005,-0.5117649999999999
1053,10.53,0.028462,-1.485765,1.538068,-0.17993199999999998,-0.571304,-0.48193400000000003
1054,10.54,0.26016100000000003,-1.536066,0.965498,-0.055298,-0.7428130000000001,-0.457428
1055,10.55,0.519329,-1.507357,0.188894,0.012878,-0.883438,-0.45636000000000004
1056,10.56,0.829076,-1.423341,-0.435225,0.043776999999999996,-0.9558719999999999,-0.473404
1057,10.57,1.107218,-1.370027,-0.9840709999999999,0.044846,-0.953735,-0.510696
1058,10.58,1.223223,-1.316095,-1.319517,0.026733,-0.9079280000000001,-0.562897
1059,10.59,1.211948,-1.2939120000000002,-1.396788,0.0075530000000000016,-0.8472139999999999,-0.617218
1060,10.6,1.134738,-1.189566,-1.380442,-0.005234,-0.793945,-0.672607
1061,10.61,1.007492,-1.136087,-1.231024,-0.003098,-0.735367,-0.715225
1062,10.62,0.8540280000000001,-1.0685129999999998,-1.058322,0.023528999999999998,-0.6607970000000001,-0.746124
1063,10.63,0.741193,-0.9197139999999999,-0.91371,0.066147,-0.57663,-0.764221
1064,10.64,0.5131680000000001,-0.7494270000000001,-0.823557,0.107697,-0.49673500000000004,-0.769547
1065,10.65,0.31746599999999997,-0.552702,-0.6595989999999999,0.135391,-0.44880699999999996,-0.7621
1066,10.66,0.048176,-0.163118,-0.487799,0.149231,-0.443481,-0.737595
1067,10.67,-0.329349,0.20425,-0.30698800000000004,0.166275,-0.44773900000000005,-0.672607
1068,10.68,-0.5301899999999999,0.56305,-0.361467,0.192917,-0.4552,-0.546921
1069,10.69,-0.500112,0.761471,-0.632778,0.201431,-0.41685500000000003,-0.386063
1070,10.7,-0.21074299999999999,0.716329,-0.987085,0.159882,-0.374237,-0.23266599999999998
1071,10.71,0.148121,0.614453,-1.116837,0.058685,-0.344406,-0.13677999999999998
1072,10.72,0.244721,0.340426,-0.8957040000000001,-0.06488,-0.33482399999999995,-0.085648
1073,10.73,0.271435,0.32826,-0.42428699999999997,-0.162888,-0.32629400000000003,-0.062225
1074,10.74,0.11056400000000001,0.222406,0.16109,-0.20869400000000002,-0.325241,-0.064346
1075,10.75,-0.009280000000000005,0.2822,0.650219,-0.201233,-0.325241,-0.088852
1076,10.76,-0.271928,0.38834,1.0251430000000001,-0.154358,-0.31352199999999997,-0.106964
1077,10.77,-0.357572,0.47029499999999996,1.144268,-0.09364299999999999,-0.290085,-0.11228900000000001
1078,10.78,-0.36799699999999996,0.6006739999999999,1.179257,-0.045715,-0.24746700000000002,-0.119736
1079,10.79,-0.42978599999999995,0.652853,1.1265399999999999,-0.018005,-0.159058,-0.127197
1080,10.8,-0.510836,0.70624,1.2025350000000001,-0.005234,-0.007781999999999997,-0.126129
1081,10.81,-0.7004,0.680982,1.391284,0.008621,0.144547,-0.13359100000000002
1082,10.82,-0.9287049999999999,0.712007,1.547615,0.018203999999999998,0.221252,-0.13359100000000002
1083,10.83,-1.065332,0.874869,1.619521,0.013947,0.227631,-0.127197
1084,10.84,-1.272349,1.132486,1.608532,9.200000000000008e-05,0.224442,-0.083527
1085,10.85,-1.36754,1.2697129999999999,1.558459,-0.043579,0.211655,-0.017471
1086,10.86,-1.420822,1.2008299999999998,1.618441,-0.11494400000000002,0.177567,0.081589
1087,10.87,-1.332616,1.088384,1.740435,-0.192719,0.10939000000000002,0.18598900000000002
1088,10.88,-1.221233,0.832016,1.889315,-0.251297,0.023102,0.279724
1089,10.89,-1.152635,0.373948,2.095116,-0.259827,-0.067444,0.350037
1090,10.9,-1.0844610000000001,-0.084487,2.13255,-0.19911199999999998,-0.139877,0.391586
1091,10.91,-1.0531709999999999,-0.427858,1.8982419999999998,-0.076599,-0.181427,0.42246999999999996
1092,10.92,-0.907847,-0.6839029999999999,1.3674,0.067215,-0.180359,0.44804399999999994
1093,10.93,-0.6142890000000001,-0.8167399999999999,0.615875,0.18971300000000002,-0.165451,0.46295200000000003
1094,10.94,-0.29935500000000004,-0.81634,-0.16767399999999996,0.244049,-0.160126,0.45762600000000003
1095,10.95,-0.103993,-0.649163,-0.809139,0.22912600000000002,-0.155853,0.442719
1096,10.96,0.107208,-0.50848,-1.328319,0.149231,-0.122833,0.41395600000000005
1097,10.97,0.169852,-0.372715,-1.554101,0.026732999999999996,-0.026962,0.370285
1098,10.98,0.021522,-0.41665100000000005,-1.398205,-0.098969,0.125366,0.311691
1099,10.99,-0.273704,-0.49118199999999995,-0.943248,-0.187393,0.306473,0.250977
1100,11.0,-0.719198,-0.572329,-0.30595399999999995,-0.22892800000000002,0.47052,0.197708
1101,11.01,-1.056894,-0.630025,0.155281,-0.21402,0.593018,0.17213399999999998
1102,11.02,-1.3108600000000001,-0.7614310000000001,0.44838,-0.166077,0.6984859999999999,0.174271
1103,11.03,-1.448391,-0.8653290000000001,0.544658,-0.101105,0.74855,0.201965
1104,11.04,-1.619791,-0.9826889999999999,0.529144,-0.039322,0.712326,0.243515
1105,11.05,-1.623569,-1.089387,0.35631799999999997,0.006485000000000001,0.591965,0.295715
1106,11.06,-1.628875,-1.0826930000000001,0.084123,0.033127,0.423645,0.34896900000000003
1107,11.07,-1.5114459999999998,-0.9992139999999999,-0.251091,0.042709,0.260666,0.402237
1108,11.08,-1.3494959999999998,-0.842577,-0.611025,0.042709,0.152008,0.452301
1109,11.09,-1.110631,-0.728377,-0.9327270000000001,0.050171,0.13389600000000002,0.487457
1110,11.1,-0.999566,-0.669415,-1.14537,0.059753,0.211655,0.5204770000000001
1111,11.11,-0.93926,-0.652189,-1.235048,0.068268,0.29155,0.537521
1112,11.12,-0.9450860000000001,-0.624912,-1.267045,0.066147,0.32991,0.54924
1113,11.13,-0.9347540000000001,-0.618803,-1.29103,0.062943,0.32456999999999997,0.548172
1114,11.14,-0.945799,-0.490951,-1.348288,0.056563999999999996,0.30540500000000004,0.570541
1115,11.15,-0.9285190000000001,-0.379658,-1.435211,0.038452,0.281967,0.588654
1116,11.16,-0.801311,-0.301528,-1.492083,0.009689,0.27131700000000003,0.605698
1117,11.17,-0.648031,-0.256235,-1.448388,-0.032928,0.253204,0.604645
1118,11.18,-0.5822430000000001,-0.268897,-1.338294,-0.077667,0.224442,0.591858
1119,11.19,-0.557852,-0.25099899999999997,-1.127803,-0.110687,0.179703,0.574814
1120,11.2,-0.469496,-0.301541,-0.869668,-0.12561,0.134964,0.555634
1121,11.21,-0.42887200000000003,-0.26663400000000004,-0.735596,-0.114944,0.09874,0.537521
1122,11.22,-0.45456599999999997,-0.278649,-0.564185,-0.088318,0.080627,0.515152
1123,11.23,-0.459297,-0.115975,-0.395951,-0.048904,0.088089,0.488525
1124,11.24,-0.425129,-0.092714,-0.22156599999999999,-0.0062869999999999975,0.11792000000000001,0.452301
1125,11.25,-0.477792,0.06507499999999998,-0.017095,0.037384,0.149872,0.40863
1126,11.26,-0.52045,0.252073,0.11933699999999998,0.089584,0.172241,0.370285
1127,11.27,-0.497479,0.46811,0.220124,0.139648,0.21698,0.342575
1128,11.28,-0.45033999999999996,0.623286,0.192314,0.181198,0.275574,0.331924
1129,11.29,-0.34333400000000003,0.721318,0.111969,0.191849,0.32991,0.320206
1130,11.3,-0.32854,0.775048,0.131654,0.15776099999999998,0.36293000000000003,0.301041
1131,11.31,-0.44587299999999996,0.8603620000000001,0.282658,0.093842,0.350143,0.27760300000000004
1132,11.32,-0.6064229999999999,0.9194899999999999,0.622863,0.021408,0.32777399999999995,0.265884
1133,11.33,-0.749905,0.932551,0.9867,-0.028671,0.322449,0.274399
1134,11.34,-0.8980889999999999,0.8854209999999999,1.378596,-0.051041,0.29794299999999996,0.297836
1135,11.35,-0.882863,0.859649,1.615966,-0.047836000000000004,0.23402399999999998,0.32341
1136,11.36,-0.769203,0.9503469999999999,1.7081540000000002,-0.035049000000000004,0.149872,0.328735
1137,11.37,-0.760152,0.993715,1.6682419999999998,-0.032928,0.11045799999999999,0.317017
1138,11.38,-0.67769,1.130288,1.546273,-0.046768000000000004,0.149872,0.299973
1139,11.39,-0.620649,1.054978,1.613777,-0.091507,0.267059,0.287186
1140,11.4,-0.6712100000000001,0.8592270000000001,1.8605720000000001,-0.138382,0.37144499999999997,0.28186
1141,11.41,-0.696048,0.43966700000000003,2.11068,-0.162888,0.40873699999999996,0.287186
1142,11.42,-0.6263310000000001,-0.188366,2.24716,-0.144775,0.388489,0.287186
1143,11.43,-0.48082700000000006,-0.7744170000000001,2.231986,-0.074463,0.29794299999999996,0.274399
1144,11.44,-0.420968,-1.1626100000000001,1.9488619999999999,0.037384,0.165848,0.23072800000000002
1145,11.45,-0.304452,-1.2282520000000001,1.3546610000000001,0.174805,0.031631,0.18066400000000002
1146,11.46,-0.070515,-1.023244,0.439566,0.29518099999999997,-0.029099,0.12953199999999998
1147,11.47,0.253971,-0.70529,-0.320874,0.361221,0.003937,0.08052100000000001
1148,11.48,0.586391,-0.316673,-1.083114,0.35482800000000003,0.095551,0.026199
1149,11.49,0.63988,-0.11178900000000001,-1.549699,0.273865,0.24894699999999997,-0.027069
1150,11.5,0.597659,0.11215699999999999,-1.634595,0.13325499999999998,0.43110699999999996,-0.07499700000000001
1151,11.51,0.08647499999999997,0.055013000000000006,-1.278627,-0.026535,0.594086,-0.10057100000000001
1152,11.52,-0.515771,0.026137,-0.580973,-0.182068,0.672913,-0.07820099999999999
1153,11.53,-1.098695,0.013193,0.209272,-0.30349699999999996,0.6356350000000001,-0.024933
1154,11.54,-1.6644709999999998,-0.16188,0.863612,-0.37487800000000004,0.519516,0.06454500000000002
1155,11.55,-1.922726,-0.231211,1.319559,-0.382324,0.393814,0.190247
1156,11.56,-1.8892529999999998,-0.363201,1.477535,-0.338654,0.26918000000000003,0.32341
1157,11.57,-1.5943,-0.541208,1.320064,-0.275803,0.162659,0.442719
1158,11.58,-1.127725,-0.707252,0.908069,-0.209763,0.104065,0.532196
1159,11.59,-0.647151,-0.9308350000000001,0.456291,-0.15223699999999998,0.082764,0.584396
1160,11.6,-0.24056100000000002,-1.136993,-0.034547999999999995,-0.10536199999999998,0.10513299999999999,0.602509
1161,11.61,0.14936299999999994,-1.327349,-0.408908,-0.06488,0.161591,0.595047
1162,11.62,0.47053100000000003,-1.543684,-0.758266,-0.035049000000000004,0.205261,0.551376
1163,11.63,0.700626,-1.643203,-0.996585,-0.0073549999999999996,0.23083499999999998,0.48426800000000003
1164,11.64,0.8548629999999999,-1.57843,-1.198575,0.008621,0.23722800000000002,0.39798
1165,11.65,0.852826,-1.417143,-1.2753860000000001,0.021408,0.259598,0.30423
1166,11.66,0.662014,-1.205539,-1.289567,0.03952,0.295822,0.24563600000000002
1167,11.67,0.49011000000000005,-0.915932,-1.2529620000000001,0.056563999999999996,0.360794,0.204102
1168,11.68,0.32087,-0.731228,-1.263233,0.064011,0.45133999999999996,0.17745999999999998
1169,11.69,0.17819400000000002,-0.551099,-1.234549,0.059753,0.54509,0.148697
1170,11.7,-0.005820999999999993,-0.41869799999999996,-1.132873,0.046967,0.638824,0.126328
1171,11.71,-0.15828299999999998,-0.209087,-0.9700190000000001,0.040573000000000005,0.7357640000000001,0.115677
1172,11.72,-0.27871599999999996,0.027598999999999985,-0.78868,0.037384,0.843353,0.126328
1173,11.73,-0.52972,0.10877300000000001,-0.620557,0.018203999999999998,0.8806459999999999,0.15509
1174,11.74,-0.5901310000000001,0.295036,-0.376256,-0.013748,0.8337709999999999,0.194504
1175,11.75,-0.708094,0.43972,-0.210772,-0.054229999999999993,0.725113,0.244583
1176,11.76,-0.727546,0.48190500000000003,-0.04491600000000001,-0.101105,0.5642550000000001,0.305298
1177,11.77,-0.649003,0.49745900000000004,0.058790999999999996,-0.136261,0.404465,0.374542
1178,11.78,-0.41993500000000006,0.493307,0.261459,-0.146912,0.301147,0.42246999999999996
1179,11.79,-0.196161,0.523515,0.330963,-0.112823,0.279831,0.43313599999999997
1180,11.8,-0.110054,0.545784,0.385793,-0.060623,0.293686,0.416092
1181,11.81,-0.04222,0.816116,0.40479499999999996,0.0022280000000000012,0.319244,0.384125
1182,11.82,-0.09844800000000001,0.9732629999999999,0.435489,0.066147,0.363998,0.351105
1183,11.83,-0.220493,1.196346,0.45255200000000007,0.11514300000000001,0.402344,0.328735
1184,11.84,-0.432216,1.3584530000000001,0.42200699999999997,0.14816300000000002,0.447083,0.317017
1185,11.85,-0.586386,1.373949,0.428437,0.158829,0.506744,0.33619699999999997
1186,11.86,-0.658139,1.277136,0.461721,0.154556,0.579178,0.360687
1187,11.87,-0.7473029999999999,1.1235,0.49216499999999996,0.137512,0.6462859999999999,0.38945
1188,11.88,-0.88376,0.9831979999999999,0.6761159999999999,0.113022,0.69635,0.416092
1189,11.89,-1.028253,0.9163180000000001,0.8574700000000001,0.078934,0.703812,0.454437
1190,11.9,-1.126814,0.8770110000000001,1.0454219999999999,0.042709,0.6793060000000001,0.502365
1191,11.91,-1.166684,0.682771,1.188839,-0.0009609999999999999,0.670792,0.554565
1192,11.92,-1.184701,0.412812,1.273325,-0.05209400000000001,0.678238,0.5929260000000001
1193,11.93,-1.19744,0.237367,1.411014,-0.107498,0.678238,0.608902
1194,11.94,-1.188409,0.152264,1.519016,-0.16714500000000002,0.666519,0.613159
1195,11.95,-1.239028,0.041638000000000015,1.697599,-0.20550500000000002,0.650543,0.608902
1196,11.96,-1.383976,-0.051446000000000006,1.882999,-0.203369,0.661194,0.616348
1197,11.97,-1.480068,-0.382232,1.86032,-0.162888,0.6793060000000001,0.640854
1198,11.98,-1.442842,-0.739988,1.653314,-0.100037,0.695282,0.6674800000000001
1199,11.99,-1.295873,-1.087941,1.292467,-0.038254,0.681442,0.677078
1200,12.0,-1.1453440000000001,-1.285685,0.795446,0.0022280000000000012,0.629242,0.663223
1201,12.01,-0.9354469999999999,-1.25211,0.35467600000000005,0.021408,0.537628,0.64299
1202,12.02,-0.694476,-1.047501,-0.130625,0.022476,0.452408,0.617416
1203,12.03,-0.44051599999999996,-0.807767,-0.544612,0.0022280000000000012,0.42790200000000006,0.60144
1204,12.04,-0.198751,-0.560026,-0.792567,-0.042511,0.481171,0.570541
1205,12.05,-0.183989,-0.492936,-0.8723040000000001,-0.10856600000000001,0.574921,0.52475
1206,12.06,-0.232837,-0.386646,-0.741309,-0.177795,0.69635,0.489594
1207,12.07,-0.468975,-0.33594,-0.463713,-0.23425300000000002,0.815659,0.461899
1208,12.08,-0.748767,-0.266183,-0.096842,-0.275803,0.888107,0.455505
1209,12.09,-1.005152,-0.25351399999999996,0.340507,-0.296051,0.920059,0.46295200000000003
1210,12.1,-1.184472,-0.306082,0.674342,-0.297104,0.904083,0.490646
1211,12.11,-1.291109,-0.491335,0.8184520000000001,-0.27368200000000004,0.8444209999999999,0.523682
1212,12.12,-1.399817,-0.604881,0.9269350000000001,-0.216156,0.761337,0.562027
1213,12.13,-1.3874440000000001,-0.70387,0.718246,-0.141586,0.656937,0.604645
1214,12.14,-1.267908,-0.713974,0.41388100000000005,-0.068085,0.5418850000000001,0.654709
1215,12.15,-0.980628,-0.620202,-0.07538600000000001,-0.009491,0.43536400000000003,0.6962430000000001
1216,12.16,-0.660672,-0.505732,-0.529313,0.018203999999999998,0.386368,0.726074
1217,12.17,-0.41927700000000007,-0.465067,-0.846943,0.027801999999999997,0.384232,0.7314
1218,12.18,-0.280885,-0.5396029999999999,-1.016958,0.023528999999999998,0.423645,0.7175600000000001
1219,12.19,-0.265955,-0.619687,-1.037405,0.024597,0.47477700000000006,0.684525
1220,12.2,-0.474524,-0.720827,-0.9397469999999999,0.030991,0.506744,0.646179
1221,12.21,-0.662041,-0.74942,-0.861442,0.055496000000000004,0.5110020000000001,0.613159
1222,12.22,-0.704317,-0.688851,-0.897381,0.090652,0.486496,0.583328
1223,12.23,-0.693376,-0.545257,-1.083279,0.11088599999999998,0.458801,0.5588380000000001
1224,12.24,-0.590494,-0.42872,-1.351286,0.113022,0.432175,0.540726
1225,12.25,-0.45179899999999995,-0.287551,-1.518053,0.09277300000000001,0.42257700000000004,0.510895
1226,12.26,-0.346339,-0.21723699999999999,-1.547717,0.066147,0.436432,0.473602
1227,12.27,-0.433312,-0.17136300000000002,-1.393095,0.048035,0.450272,0.43525699999999995
1228,12.28,-0.47461800000000004,-0.092274,-1.226784,0.043776999999999996,0.446014,0.402237
1229,12.29,-0.47633100000000006,0.005254000000000003,-1.0700129999999999,0.052292,0.439621,0.377731
1230,12.3,-0.468542,0.12993900000000005,-0.941517,0.062943,0.41725200000000007,0.35324099999999997
1231,12.31,-0.43987200000000004,0.277484,-0.8502129999999999,0.074661,0.384232,0.334061
1232,12.32,-0.47511800000000004,0.460117,-0.664913,0.087448,0.367188,0.310623
1233,12.33,-0.586598,0.64969,-0.405011,0.104492,0.368256,0.301041
1234,12.34,-0.662537,0.688179,-0.21969,0.135391,0.357605,0.305298
1235,12.35,-0.671324,0.701446,-0.198262,0.1716,0.333099,0.30636599999999997
1236,12.36,-0.6836939999999999,0.7218140000000001,-0.200527,0.197174,0.300079,0.299973
1237,12.37,-0.666053,0.805871,-0.30223099999999997,0.203568,0.26811199999999996,0.292511
1238,12.38,-0.583411,0.898913,-0.451034,0.197174,0.23402399999999998,0.295715
1239,12.39,-0.483206,1.024141,-0.660669,0.158829,0.211655,0.310623
1240,12.4,-0.352906,1.1569479999999999,-0.7721899999999999,0.085312,0.205261,0.327667
1241,12.41,-0.318353,1.180642,-0.680737,-0.019073,0.204208,0.346848
1242,12.42,-0.282425,1.008338,-0.388257,-0.12561,0.204208,0.362823
1243,12.43,-0.139155,0.8802,0.08216899999999999,-0.220413,0.18928499999999998,0.367081
1244,12.44,-0.218432,0.790998,0.608087,-0.28112800000000004,0.14773599999999998,0.355362
1245,12.45,-0.23211500000000002,0.760983,1.015793,-0.312027,0.127502,0.342575
1246,12.46,-0.121796,0.6456029999999999,1.283972,-0.32800300000000004,0.144547,0.317017
1247,12.47,0.08305900000000001,0.6637890000000001,1.569913,-0.346115,0.188217,0.265884
1248,12.48,0.102264,0.637706,1.912427,-0.35037199999999996,0.26811199999999996,0.191315
1249,12.49,-0.030893000000000007,0.6214569999999999,2.306375,-0.329071,0.358658,0.108231
1250,12.5,-0.26936,0.414944,2.665657,-0.259827,0.436432,0.048569
1251,12.51,-0.372303,0.145536,2.8028419999999996,-0.13945,0.442825,0.012343999999999999
1252,12.52,-0.41139499999999996,0.033556,2.613012,0.009689000000000005,0.388489,-0.007889
1253,12.53,-0.401579,-0.061022,1.964969,0.14816300000000002,0.290482,-0.011093
1254,12.54,-0.23206100000000002,-0.059639,1.1544370000000002,0.235519,0.171173,0.007019
1255,12.55,0.153563,0.17452299999999998,0.27053699999999997,0.257889,0.050797,0.038986
1256,12.56,0.520925,0.45652600000000004,-0.4588220000000001,0.20463599999999998,-0.019500999999999998,0.061355999999999994
1257,12.57,0.787518,0.66593,-0.8972479999999999,0.088516,-0.048264,0.0784
1258,12.58,0.954767,0.75652,-0.9477780000000001,-0.058487,-0.01738,0.098633
1259,12.59,0.995965,0.6616770000000001,-0.665357,-0.193787,0.10620100000000003,0.11355599999999999
1260,12.6,0.959217,0.360807,-0.01332,-0.271545,0.247879,0.11355599999999999
1261,12.61,0.669157,0.014078000000000009,0.711079,-0.28006,0.373581,0.094376
1262,12.62,0.298756,-0.373812,1.205904,-0.227875,0.44175699999999996,0.085846
1263,12.63,0.021722,-0.671663,1.451192,-0.142654,0.46198999999999996,0.102905
1264,12.64,-0.064486,-0.903292,1.371353,-0.04997299999999999,0.410858,0.131653
1265,12.65,0.015003999999999997,-1.108023,1.018712,0.017136000000000002,0.296875,0.161484
1266,12.66,0.131101,-1.3173290000000002,0.548345,0.046967,0.139221,0.17640699999999998
1267,12.67,0.310759,-1.494364,0.03487600000000002,0.049102999999999994,-0.025893999999999997,0.173203
1268,12.68,0.558941,-1.526453,-0.41503900000000005,0.052292,-0.142014,0.152969
1269,12.69,0.789914,-1.578365,-0.866,0.068268,-0.169708,0.11460899999999999
1270,12.7,0.977509,-1.557069,-1.118136,0.093842,-0.133484,0.061355999999999994
1271,12.71,1.046828,-1.393742,-1.3779190000000001,0.12153599999999999,-0.053589,-0.010025
1272,12.72,0.99865,-1.2368219999999999,-1.374738,0.16095,0.08169599999999999,-0.084595
1273,12.73,0.842242,-1.084134,-1.404688,0.208893,0.19354200000000002,-0.149567
1274,12.74,0.629049,-0.8315799999999999,-1.3265879999999999,0.253632,0.311798,-0.18365499999999998
1275,12.75,0.37527,-0.657011,-1.3826319999999999,0.282394,0.39913899999999997,-0.195374
1276,12.76,0.190682,-0.487313,-1.36537,0.27919,0.46198999999999996,-0.18046600000000002
1277,12.77,0.018081,-0.336345,-1.188744,0.214218,0.48223900000000003,-0.12294000000000001
1278,12.78,-0.067787,-0.23299499999999998,-0.9204389999999999,0.162018,0.446014,-0.072876
1279,12.79,-0.11653499999999999,-0.124109,-0.65391,0.124741,0.39913899999999997,-0.019608
1280,12.8,-0.142547,-0.068008,-0.41463500000000003,0.11088599999999998,0.346954,0.030456999999999998
1281,12.81,-0.19411,0.031336,-0.27928800000000004,0.11514300000000001,0.299011,0.085846
1282,12.82,-0.095449,0.029366000000000007,-0.24950999999999998,0.12260399999999999,0.24362199999999998,0.13378900000000002
1283,12.83,-0.09685099999999999,0.092119,-0.278199,0.116211,0.16477999999999998,0.17213399999999998
1284,12.84,0.031866999999999986,0.12601099999999998,-0.276723,0.10555999999999999,0.062515,0.21581999999999998
1285,12.85,0.25353000000000003,0.199268,-0.309711,0.106628,-0.019501000000000004,0.244583
1286,12.86,0.49150699999999997,0.297644,-0.398335,0.12793,-0.048264,0.257355
1287,12.87,0.6718970000000001,0.383193,-0.453531,0.15776099999999998,-0.015244,0.247772
1288,12.88,0.745174,0.548265,-0.456384,0.192917,0.059326,0.22433499999999998
1289,12.89,0.674148,0.6484449999999999,-0.500626,0.218475,0.167984,0.18917799999999999
1290,12.9,0.586951,0.842577,-0.444287,0.238724,0.299011,0.16362000000000002
1291,12.91,0.448621,0.924127,-0.42858999999999997,0.24084499999999998,0.414062,0.148697
1292,12.92,0.336071,0.9161020000000001,-0.361564,0.209961,0.49821499999999996,0.138046
1293,12.93,0.114977,0.862957,-0.149909,0.155624,0.5418850000000001,0.127396
1294,12.94,-0.11215400000000003,0.8570549999999999,0.108792,0.09277300000000001,0.532303,0.126328
1295,12.95,-0.308357,0.9381700000000001,0.376896,0.044846,0.49821499999999996,0.134857
1296,12.96,-0.48812799999999995,1.048922,0.574567,0.009689,0.450272,0.173203
1297,12.97,-0.429147,1.285035,0.6424979999999999,-0.025467,0.360794,0.227539
1298,12.98,-0.288771,1.450913,0.575417,-0.07234199999999999,0.29155,0.273346
1299,12.99,-0.245468,1.516329,0.46614300000000003,-0.141586,0.245743,0.30743400000000004
1300,13.0,-0.22453800000000002,1.482225,0.487447,-0.235321,0.246811,0.328735
1301,13.01,-0.34310999999999997,1.332768,0.767479,-0.33226,0.295822,0.35324099999999997
1302,13.02,-0.46228500000000006,1.1425969999999999,1.237528,-0.411087,0.32563800000000004,0.376663
1303,13.03,-0.57409,0.809004,1.7108740000000002,-0.453705,0.32563800000000004,0.406494
1304,13.04,-0.62807,0.326746,1.979434,-0.45156899999999994,0.284103,0.436325
1305,13.05,-0.636865,-0.184669,2.251049,-0.410034,0.20632899999999998,0.449112
1306,13.06,-0.579018,-0.742993,2.264191,-0.29284699999999997,0.095551,0.43313599999999997
1307,13.07,-0.41221800000000003,-1.008029,2.011849,-0.135193,0.017776,0.391586
1308,13.08,-0.31561,-1.073502,1.4850219999999998,0.065079,-0.0024569999999999995,0.326599
1309,13.09,-0.15008100000000002,-0.9366450000000001,0.6204109999999999,0.25256300000000004,0.045471,0.27760300000000004
1310,13.1,0.099101,-0.715252,-0.23400999999999994,0.36654699999999996,0.13389600000000002,0.22966
1311,13.11,0.256348,-0.499666,-1.0224010000000001,0.378265,0.221252,0.174271
1312,13.12,0.236827,-0.303323,-1.525284,0.29943800000000004,0.299011,0.115677
1313,13.13,0.098139,-0.16576400000000002,-1.71933,0.15776099999999998,0.378906,0.070938
1314,13.14,-0.161574,-0.096694,-1.5071370000000002,-0.0052340000000000025,0.449219,0.037918
1315,13.15,-0.47089200000000003,-0.038741000000000005,-1.105456,-0.146912,0.490753,0.019806
1316,13.16,-0.819842,-0.021555,-0.508516,-0.229996,0.520584,0.026199
1317,13.17,-1.154909,-0.044997,-0.01413300000000001,-0.252365,0.523788,0.058151
1318,13.18,-1.3549229999999999,-0.175189,0.22796,-0.232132,0.490753,0.119949
1319,13.19,-1.312266,-0.31402399999999997,0.23986999999999997,-0.198044,0.41299399999999997,0.192383
1320,13.2,-1.2301469999999999,-0.383351,0.175013,-0.173538,0.296875,0.253098
1321,13.21,-1.07645,-0.5617409999999999,-0.012097999999999998,-0.140518,0.171173,0.311691
1322,13.22,-0.8780110000000001,-0.63966,-0.202445,-0.098969,0.05506900000000001,0.357498
1323,13.23,-0.611275,-0.745743,-0.478788,-0.047836000000000004,-0.021637,0.390518
1324,13.24,-0.366086,-0.777706,-0.808389,0.010756999999999996,-0.0504,0.405426
1325,13.25,-0.265381,-0.751257,-1.090659,0.066147,-0.038681,0.41288800000000003
1326,13.26,-0.132574,-0.7979609999999999,-1.437899,0.103424,-0.01738,0.410767
1327,13.27,-0.064651,-0.763304,-1.721221,0.117279,-0.004593,0.39584400000000003
1328,13.28,-0.030722000000000003,-0.641889,-1.870091,0.111954,0.015656,0.376663
1329,13.29,0.05144400000000001,-0.526584,-2.013286,0.089584,0.027374000000000002,0.359619
1330,13.3,0.11437,-0.460658,-2.090341,0.052292,0.038025,0.338318
1331,13.31,0.135689,-0.389468,-2.1093889999999997,0.0075530000000000016,0.046539,0.309555
1332,13.32,0.166389,-0.333027,-1.965832,-0.042511,0.056137,0.276535
1333,13.33,0.187421,-0.34530900000000003,-1.703411,-0.08725,0.054001,0.244583
1334,13.34,0.220694,-0.326006,-1.434489,-0.11389200000000001,0.020981,0.194504
1335,13.35,0.139422,-0.242157,-1.111919,-0.118149,-0.028030000000000003,0.1306
1336,13.36,0.04517,-0.09752899999999999,-0.756038,-0.09045399999999999,-0.088745,0.08052100000000001
1337,13.37,-0.029766,0.154442,-0.49656000000000006,-0.033997,-0.143082,0.034713999999999995
1338,13.38,-0.091361,0.4067,-0.423492,0.03952000000000001,-0.143082,0.0006260000000000017
1339,13.39,-0.07365,0.595819,-0.415591,0.11514300000000001,-0.10153200000000001,-0.029189999999999997
1340,13.4,0.003682999999999999,0.776979,-0.42433999999999994,0.18012999999999998,-0.053589,-0.063278
1341,13.41,0.07198099999999999,0.905424,-0.379809,0.225937,0.002869,-0.09843400000000001
1342,13.42,0.041926,1.095595,-0.33202,0.262146,0.054000999999999987,-0.135727
1343,13.43,-0.11373,1.230361,-0.25355900000000003,0.285583,0.07637000000000001,-0.159164
1344,13.44,-0.30298,1.403923,-0.164128,0.285583,0.064651,-0.154892
1345,13.45,-0.433345,1.5766950000000002,-0.10927200000000001,0.257889,0.007126,-0.120804
1346,13.46,-0.52398,1.6089799999999999,-0.051587,0.197174,-0.073837,-0.07180800000000001
1347,13.47,-0.534758,1.542079,0.045757,0.10555999999999999,-0.156921,-0.015350000000000003
1348,13.48,-0.48921499999999996,1.380303,0.296286,0.006484999999999998,-0.233627,0.031525
1349,13.49,-0.382587,1.192008,0.723493,-0.079803,-0.310318,0.062424
1350,13.5,-0.17308900000000002,1.045531,1.136684,-0.11389200000000001,-0.376373,0.062424
1351,13.51,-0.010232999999999992,1.0968790000000002,1.455482,-0.095779,-0.42536899999999994,0.042175
1352,13.52,0.20552600000000001,1.105564,1.525468,-0.054229999999999993,-0.41471899999999995,0.001694000000000001
1353,13.53,0.397432,1.188633,1.4023700000000001,-0.016953,-0.33696,-0.062225
1354,13.54,0.48332299999999995,1.2265059999999999,1.302454,-0.015884,-0.20486500000000002,-0.118683
1355,13.55,0.324243,1.172031,1.378908,-0.047836000000000004,-0.10472099999999998,-0.159164
1356,13.56,0.15561,0.911745,1.613621,-0.100037,-0.093002,-0.176208
1357,13.57,0.041638,0.483165,1.9932029999999998,-0.126663,-0.13562000000000002,-0.187912
1358,13.58,-0.0755,0.02137900000000001,2.213207,-0.101105,-0.20165999999999998,-0.20497100000000001
1359,13.59,-0.13686700000000002,-0.405276,2.2659759999999998,-0.024399000000000004,-0.27516199999999996,-0.22201500000000002
1360,13.6,-0.041111,-0.569033,2.009168,0.103424,-0.32843,-0.24118
1361,13.61,0.083487,-0.429296,1.364155,0.23233,-0.356125,-0.268875
1362,13.62,0.334273,-0.209796,0.5840429999999999,0.316483,-0.356125,-0.276337
1363,13.63,0.42960200000000004,0.129107,-0.167406,0.317551,-0.36145,-0.269943
1364,13.64,0.6106689999999999,0.398028,-0.681979,0.24191300000000002,-0.333755,-0.23053
1365,13.65,0.727513,0.490493,-1.045483,0.111954,-0.268768,-0.191116
1366,13.66,0.809539,0.45951099999999995,-1.141578,-0.055298,-0.164383,-0.149567
1367,13.67,0.796301,0.183278,-0.8573799999999999,-0.22254899999999997,-0.04187,-0.129333
1368,13.68,0.538149,-0.202287,-0.24033000000000002,-0.342911,0.07104500000000001,-0.127197
1369,13.69,0.22161000000000006,-0.55243,0.360654,-0.389786,0.158401,-0.12187200000000001
1370,13.7,-0.022220000000000004,-0.962933,0.759321,-0.35783400000000004,0.218048,-0.11441
1371,13.71,-0.065341,-1.3861299999999999,0.885289,-0.28433200000000003,0.21379099999999998,-0.110153
1372,13.72,-0.08459900000000001,-1.610308,0.785655,-0.19165,0.14561500000000002,-0.118683
1373,13.73,-0.125865,-1.7281119999999999,0.466292,-0.10536199999999998,0.016708,-0.143173
1374,13.74,-0.072818,-1.7119369999999998,-0.061435000000000024,-0.048904,-0.134552,-0.151703
1375,13.75,0.08075199999999999,-1.619621,-0.695526,-0.025467,-0.264511,-0.149567
1376,13.76,0.29335900000000004,-1.565182,-1.232424,-0.03186,-0.34333800000000003,-0.146378
1377,13.77,0.5652659999999999,-1.460144,-1.548062,-0.040375,-0.375305,-0.159164
1378,13.78,0.7633770000000001,-1.3304799999999999,-1.794081,-0.044647000000000006,-0.3508,-0.194305
1379,13.79,0.820148,-1.199103,-1.880771,-0.037186000000000004,-0.279434,-0.243317
1380,13.8,0.869099,-1.0372,-1.8146689999999999,-0.024399,-0.180359,-0.299774
1381,13.81,0.744971,-0.926658,-1.694627,0.012877999999999995,-0.073837,-0.3573
1382,13.82,0.5434260000000001,-0.698509,-1.50254,0.067215,0.028427,-0.408432
1383,13.83,0.284148,-0.44955200000000006,-1.400426,0.12793,0.108322,-0.43187
1384,13.84,0.07780100000000001,-0.196223,-1.311434,0.179062,0.177567,-0.43187
1385,13.85,-0.06519,0.040476,-1.2867709999999999,0.209961,0.23934899999999998,-0.411621
1386,13.86,-0.183569,0.26060700000000003,-1.201961,0.235519,0.303268,-0.373276
1387,13.87,-0.26665900000000003,0.42419799999999996,-1.054284,0.25149499999999997,0.354401,-0.330658
1388,13.88,-0.34938600000000003,0.5624020000000001,-0.9252520000000001,0.256821,0.365051,-0.279526
1389,13.89,-0.501067,0.6294029999999999,-0.769146,0.25044299999999997,0.319244,-0.225204
1390,13.9,-0.695918,0.759413,-0.626129,0.23233,0.22657800000000003,-0.146378
1391,13.91,-0.6801520000000001,0.8360540000000001,-0.516667,0.201431,0.11898800000000001,-0.045181
1392,13.92,-0.648746,0.759487,-0.43889300000000003,0.16095,-0.008849999999999997,0.047501
1393,13.93,-0.44255500000000003,0.811476,-0.358806,0.107697,-0.134552,0.126328
1394,13.94,-0.21152800000000002,0.771854,-0.207393,0.064011,-0.21444699999999997,0.173203
1395,13.95,-0.017112000000000002,0.660259,-0.045082,0.037384,-0.265579,0.191315
1396,13.96,0.24985300000000002,0.626695,-0.008698000000000001,0.033127,-0.270905,0.179596
1397,13.97,0.465405,0.679467,0.033792,0.044846,-0.21019000000000002,0.138046
1398,13.98,0.544901,0.706774,0.070987,0.058685,-0.086609,0.08265700000000001
1399,13.99,0.5099520000000001,0.78256,0.24008,0.068268,0.06251499999999999,0.024063
1400,14.0,0.409204,0.849751,0.492278,0.068268,0.218048,-0.029189999999999997
1401,14.01,0.17956300000000006,0.8776719999999999,0.7970430000000001,0.062943,0.334167,-0.065414
1402,14.02,0.036763999999999984,0.987309,1.056135,0.069336,0.373581,-0.086716
1403,14.03,-0.06288099999999999,1.0883260000000001,1.024865,0.064011,0.366119,-0.073929
1404,14.04,-0.107124,1.106537,0.9163629999999999,0.025664999999999997,0.355469,-0.030258000000000007
1405,14.05,-0.079819,1.104117,0.7203729999999999,-0.07234199999999999,0.35121199999999997,0.017669999999999998
1406,14.06,-0.166167,0.9515469999999999,0.824701,-0.236389,0.320312,0.072006
1407,14.07,-0.45858699999999997,0.8049689999999999,1.371635,-0.418549,0.267059,0.12207
1408,14.08,-0.818609,0.5260199999999999,2.173212,-0.5506439999999999,0.190353,0.191315
1409,14.09,-1.045228,0.10258199999999999,3.034175,-0.5900569999999999,0.10939000000000002,0.26055900000000004
