,ts,ax,ay,az,wx,wy,wz
0,0.0,-0.6051934462861938,0.07056045907072687,6.810161117803877,0.004745501127250075,0.01118672547746398,0.01118672547746398
1,0.01,-0.2683048923919571,-0.3305085197924174,1.0021460502599044,-0.010698382159356529,0.011644259772563014,0.011644259772563014
2,0.02,0.19323670160442608,0.2569782060232763,-2.203006308975551,-0.020225884435748197,0.004003209710087558,0.004003209710087558
3,0.03,0.5042970453686206,0.6515905020553088,-3.384620236081628,-0.00673720694184873,-0.0013832616485745528,-0.0013832616485745528
4,0.04,0.35600299958014325,0.1603607425850686,-3.475160027174895,0.008180375649071836,0.0022824365550277647,0.0022824365550277647
5,0.05,0.17301139111007713,-0.5658361902736317,-3.234319096586501,0.002273382337804093,0.003238779384542944,0.003238779384542944
6,0.06,0.28079201325963127,-0.6842245648478875,-2.988680237775496,-0.021326087611892367,0.0013275363380161349,0.0013275363380161349
7,0.07,0.41162142795215295,-0.12750114395501322,-2.405957022698707,-0.03890459211996302,0.0021721321720327338,0.0021721321720327338
8,0.08,0.17892489944043047,0.27581818838039557,-1.187162880944424,-0.028949855142675437,7.866946110835328e-05,7.866946110835328e-05
9,0.09,-0.12773676667724293,0.01540421288402484,0.26152733555067376,-0.0039874009301227534,-0.003524669375181361,-0.003524669375181361
10,0.1,-0.05570834286941753,-0.3104238524643041,1.3555974721353954,0.005185230027553036,-0.0030045550172513483,-0.0030045550172513483
11,0.11,0.06760848110382449,-0.1861257784501025,1.8585639630583644,-0.009184876104735906,0.0025057713959401144,0.0025057713959401144
12,0.12,-0.19538515823780603,0.2075062356591495,2.0639009647069244,-0.02999690669255432,0.003222691130019814,0.003222691130019814
13,0.13,-0.593540690179699,0.4393066223502118,2.332267768775405,-0.033777797564582705,0.00030201751008287163,0.00030201751008287163
14,0.14,-0.5434703165210861,0.2921165893637331,2.54008964050817,-0.017326264883489553,-0.003425693691991732,-0.003425693691991732
15,0.15,-0.23569645505270165,0.0005193412881192849,2.7427777324870943,-0.005101830785301808,-0.0034858388610936398,-0.0034858388610936398
16,0.16,-0.12071397972010606,-0.1025758313434103,2.7316044008320093,-0.008838596747862878,-0.003998417370301832,-0.003998417370301832
17,0.17,-0.16085598350644795,-0.016239877706379028,2.4873101990717594,-0.025474913463950984,-0.002840474098696709,-0.002840474098696709
18,0.18,-0.13115707857779657,-0.0253017022300838,1.959829039429007,-0.03921936729712644,-0.0014148410022542335,-0.0014148410022542335
19,0.19,-0.06605695249798535,-0.17139614420030425,1.2619461015769196,-0.03717379658533397,-0.0010039288796605491,-0.0010039288796605491
20,0.2,-0.1677981577923867,-0.0951180513943812,0.7414346038949953,-0.022565718919414446,-0.00029434357624822765,-0.00029434357624822765
21,0.21,-0.34786603527477633,0.2827411984578039,0.42855334211751295,-0.003408051400898673,-0.001895435834522415,-0.001895435834522415
22,0.22,-0.15396999560559954,0.6621307935106316,0.1255449295980099,0.010715898123669108,-0.002767537361827173,-0.002767537361827173
23,0.23,0.2957360460455229,0.6235620219492687,-0.2954890160002209,0.0115333926660428,-0.0022958027693027088,-0.0022958027693027088
24,0.24,0.34080894484847823,0.10714502748895971,-0.8937568592266996,-0.004464460668666235,0.0016200200398621598,0.0016200200398621598
25,0.25,0.056617891658126474,-0.30180139785982973,-1.4455442958393492,-0.022804258929750992,0.003120360978027968,0.003120360978027968
26,0.26,0.019452186354111695,-0.26574017244061177,-1.9202287464182204,-0.022562583137165228,0.004195154026765953,0.004195154026765953
27,0.27,0.18682987857214278,-0.050836989068627075,-2.0963975257367653,0.000268305426109252,0.003794636473996253,0.003794636473996253
28,0.28,0.19224667127557946,-0.053350401434910655,-1.9255235137692037,0.02869802549170793,0.003968259113879228,0.003968259113879228
29,0.29,0.19270885387887812,-0.18049357087860718,-1.7806273629653762,0.0371549461071116,0.006338535696029577,0.006338535696029577
30,0.3,0.4535416555241442,-0.19196217672408544,-1.9775665233471624,0.018251449899502104,0.00804900246646802,0.00804900246646802
31,0.31,0.5209007524595335,-0.13342793582038392,-2.341981792132518,-0.006984234218041682,0.00934844135212792,0.00934844135212792
32,0.32,0.04335497567896801,-0.07097830033876934,-2.408875810530054,-0.012989384149370144,0.008870084457055956,0.008870084457055956
33,0.33,-0.2523983602654601,-0.16952376710445352,-1.9776348250326896,0.001874235979548305,0.00593251269180209,0.00593251269180209
34,0.34,0.20635326869687498,-0.5163978094021325,-1.3290535324089072,0.023560676644665303,0.002671928976480718,0.002671928976480718
35,0.35,0.6666397800738039,-0.8073380992874799,-0.8538164480679562,0.02851185053182785,0.0033449664750273603,0.0033449664750273603
36,0.36,0.41021462781215756,-0.6120078674741273,-0.6149631425950868,0.012082220433470276,0.005916535327727072,0.005916535327727072
37,0.37,-0.11194102187374666,-0.02347508719872493,-0.5725230599052551,-0.005682165280987803,0.007306698613962181,0.007306698613962181
38,0.38,-0.1635163343545187,0.39310674319912087,-0.5786201029202416,-0.003368213446267901,0.009464409346754693,0.009464409346754693
39,0.39,0.04557517817424375,0.24606994834016754,-0.26327622223413416,0.014219165621426581,0.009390917339689116,0.009390917339689116
40,0.4,0.030902076670260223,-0.16649963548572058,0.12888002369396978,0.023051843218467996,0.007764071875150619,0.007764071875150619
41,0.41,-0.22997755759372704,-0.26321877716613373,0.5828793924451622,0.010277119819601045,0.006256892438880952,0.006256892438880952
42,0.42,-0.3849290713805925,0.13042602937808576,0.8740995816913772,-0.009271424065562205,0.004642209620105232,0.004642209620105232
43,0.43,-0.18671549930606357,0.5738031054005719,0.9328833853235978,-0.009909908740608774,0.004835346037415564,0.004835346037415564
44,0.44,0.019596843103209527,0.4509548106351903,1.1212640205909175,0.0018128276565492886,0.003788719104623362,0.003788719104623362
45,0.45,-0.08625968615723376,-0.02984908495144989,1.3502512502232435,0.005270333119978778,0.00395850436102737,0.00395850436102737
46,0.46,-0.2694191546187935,-0.12146699388990462,1.6256838209871955,-0.002306940225454829,0.004700688472487987,0.004700688472487987
47,0.47,-0.2543580694018893,0.39262151186642824,1.7548061924850966,-0.012090796965740171,0.0035454202128511842,0.0035454202128511842
48,0.48,-0.20464211945418712,0.8979212573160635,1.657843162077533,-0.014529511585009309,0.0039033320789341065,0.0039033320789341065
49,0.49,-0.2267163922966147,0.707948925237778,1.5980640467562108,-0.004227585865438633,0.004636658941887739,0.004636658941887739
50,0.5,-0.16810437253456315,0.09563729069865112,1.4916356426549142,0.0007503802461814838,0.00244492263854915,0.00244492263854915
51,0.51,-0.10194551704879037,-0.12214121578357914,1.4464363137352456,-0.010369645481959448,-0.0007122329141163774,-0.0007122329141163774
52,0.52,-0.10870148149556498,0.17395076699755818,1.4477602502730464,-0.024758382489292158,-0.00431539948179245,-0.00431539948179245
53,0.53,-0.16038904261758263,0.2784995291745251,1.3213330633124287,-0.02471628214285473,-0.004202494742707515,-0.004202494742707515
54,0.54,-0.1891829309461706,-0.05217207332678278,1.1337165251657384,-0.016652650340219968,-0.0051200050513598135,-0.0051200050513598135
55,0.55,-0.05488874863998419,-0.3785879424656703,0.8651305497728617,-0.017513352477391643,-0.006092821021922703,-0.006092821021922703
56,0.56,0.04781964423953009,-0.2754138382489333,0.7234110627042307,-0.020962787343851902,-0.009236798822548402,-0.009236798822548402
57,0.57,0.030262184833181452,0.15026050198185648,0.6584014983652128,-0.021379943218261862,-0.014117392363595712,-0.014117392363595712
58,0.58,0.00805362742164105,0.39498911089645666,0.6095809002541293,-0.014651817708318422,-0.015326638361744482,-0.015326638361744482
59,0.59,0.07965827522610225,0.10378703526985411,0.39685502958466157,-0.006145910871549715,-0.01490658900345686,-0.01490658900345686
60,0.6,0.1101535139232864,-0.2897063460313314,0.02640689685644748,-0.008607230022636097,-0.015367684064432691,-0.015367684064432691
61,0.61,-0.025957610834312334,-0.2297576773983098,-0.33718877922752055,-0.01747848500886204,-0.016307362720680577,-0.016307362720680577
62,0.62,-0.06039075743585441,-0.02679689422510531,-0.5554872555114507,-0.020928427749651816,-0.017064466140878334,-0.017064466140878334
63,0.63,0.01881937348806248,-0.14471511874464335,-0.64101472275968,-0.01772572877063484,-0.016918797491608812,-0.016918797491608812
64,0.64,0.03807232999310475,-0.4454221396147301,-0.7385048800153702,-0.016248961636654582,-0.015420342288607466,-0.015420342288607466
65,0.65,0.05552334217550732,-0.4187981783397283,-1.0100439876361835,-0.01510876132548529,-0.014038955158940266,-0.014038955158940266
66,0.66,0.09176451854028925,-0.16963121032307216,-1.3011879109167206,-0.01316402683398888,-0.014032385383670146,-0.014032385383670146
67,0.67,0.12649271205168985,-0.1860287323016315,-1.4389412209216808,-0.01269454195188782,-0.015438747205320853,-0.015438747205320853
68,0.68,0.03796802803445984,-0.4257115456536562,-1.270344346732865,-0.012952667388241107,-0.015477410791235272,-0.015477410791235272
69,0.69,0.0063257038093835205,-0.3820144088188187,-1.0723381458704735,-0.014948678470294562,-0.01277070526200325,-0.01277070526200325
70,0.7,0.15573124780711045,0.02509234767397081,-1.0636921238429429,-0.01169780084163711,-0.008765404293887094,-0.008765404293887094
71,0.71,0.16165897256309833,0.22410651861515754,-1.200485155939373,-0.0012087552033996144,-0.007680389451697248,-0.007680389451697248
72,0.72,0.07512716519526087,-0.03051763642996312,-1.303826804319375,0.004461771939437647,-0.00544489125442983,-0.00544489125442983
73,0.73,0.1635521921154733,-0.3485008423314965,-1.2030704171242381,-0.0028653994569567964,-0.006063091028213727,-0.006063091028213727
74,0.74,0.40157575316202354,-0.3731506912606931,-1.0167234151588525,-0.015077117631837843,-0.008019289629600052,-0.008019289629600052
75,0.75,0.3330762212542651,-0.11486358913482306,-0.6924359538823692,-0.018035308873660852,-0.004895496058915485,-0.004895496058915485
76,0.76,-0.014355651443595796,0.18839866619133297,-0.5404983210462293,-0.0023323509348851038,-0.0027505016215653546,-0.0027505016215653546
77,0.77,-0.03731412668822265,0.24852149553332456,-0.5883320933835501,0.019714653401246555,-0.00114295869173478,-0.00114295869173478
78,0.78,0.25673062144436354,0.05637293670925783,-0.6307446052393841,0.028031423359597896,-8.426265404894363e-05,-8.426265404894363e-05
79,0.79,0.31271491559896597,-0.09577191699619614,-0.5295879400702759,0.01527664919201051,0.0016468223303312119,0.0016468223303312119
80,0.8,0.07687657368360175,0.05398918631118394,-0.22540612000478955,-0.0041109721972687405,0.003170562299565693,0.003170562299565693
81,0.81,-0.1909509009804379,0.32148794415652393,0.0342925321894363,-0.008418140585453468,0.0029789971213097467,0.0029789971213097467
82,0.82,-0.08736023521347171,0.2657567260703608,-0.017026998451701275,0.007518663650508548,0.007094225787160044,0.007094225787160044
83,0.83,0.11876059729496083,0.05679257866884663,0.0161528055925787,0.0253015852104706,0.009463854853965187,0.009463854853965187
84,0.84,-0.02099893225418977,-0.05659187521006781,0.15841307957381623,0.022878336848740303,0.007228841756356659,0.007228841756356659
85,0.85,-0.16321391611586772,-0.025101789265034397,0.42421393185896383,0.0031062582499616627,0.007960304515472853,0.007960304515472853
86,0.86,-0.02345462193504856,0.10425877871547803,0.6673188455435716,-0.01093442949835061,0.007670480076033463,0.007670480076033463
87,0.87,0.07764619626503982,0.13651175651899444,0.6170742196382513,-0.009124017451059268,0.010109693863934531,0.010109693863934531
88,0.88,-0.12821179754638895,-0.017694148532523657,0.5619113439775336,0.0005868698021761263,0.012634099667583531,0.012634099667583531
89,0.89,-0.3152594069875775,-0.13727774456035913,0.5154989126736151,0.00878026248789742,0.013230676617768635,0.013230676617768635
90,0.9,-0.2150978751026319,0.2238088593030372,0.43272574069112796,0.009913390618270256,0.016175106382873058,0.016175106382873058
91,0.91,-0.11713033176378153,0.7582463774270594,0.5449066668012015,0.006678384946789265,0.01686475475092616,0.01686475475092616
92,0.92,-0.1674655710090251,0.653049031876775,0.6424937420130121,0.002113303425347896,0.014972715812790437,0.014972715812790437
93,0.93,-0.17606417949588818,-0.09873964827828458,0.8114685557365447,-0.005506308343742447,0.016352367422869045,0.016352367422869045
94,0.94,-0.08903662704007695,-0.4853180115892065,0.841876663600139,-0.01705032939186021,0.018090424758170163,0.018090424758170163
95,0.95,-0.09420930958326396,0.05808926163999796,0.7500290418010127,-0.01572326916277083,0.02075455522814372,0.02075455522814372
96,0.96,-0.22323403272500314,0.8451208643971789,0.6711756514661606,0.005666202072157007,0.021551184449214517,0.021551184449214517
97,0.97,-0.2877151476650258,0.914760257022475,0.6329591954513499,0.029302045912062293,0.01744821320246861,0.01744821320246861
98,0.98,-0.158495109425429,0.3035569765509636,0.7455672593833004,0.028933304069864663,0.014113574559956212,0.014113574559956212
99,0.99,0.0478809819240984,-0.16185916843825604,0.7864343462413934,-0.00045344732042256614,0.015087451910183187,0.015087451910183187
100,1.0,0.10372709696680239,-0.07928635268570507,0.649829369467412,-0.02859237447402377,0.01536428165578388,0.01536428165578388
101,1.01,-0.05750054893665009,0.05198029641760074,0.45401920808914187,-0.02868831708920748,0.013647816523025016,0.013647816523025016
102,1.02,-0.15307271849367513,-0.21733889891013358,0.26645877365912535,-0.0059688446721564885,0.013100906312721455,0.013100906312721455
103,1.03,-0.00014357818920545176,-0.4612506331063906,0.21245606339458115,0.01393613681351325,0.011561395945390969,0.011561395945390969
104,1.04,0.1246549566795004,-0.26429829500107854,0.1773594140785396,0.013423107453984524,0.009454909832600566,0.009454909832600566
105,1.05,-0.022272728105717787,-0.0011445126234575498,0.09772883222103539,-0.002532176447903472,0.0063881337407650784,0.0063881337407650784
106,1.06,-0.16088919919556327,-0.22280986924230411,-0.014767925715737963,-0.021963369708370286,0.0037003126995707,0.0037003126995707
107,1.07,0.0486439060468864,-0.6531644619021302,-0.09917642771352216,-0.035518445850445814,0.0006226335489039111,0.0006226335489039111
108,1.08,0.3011960242742052,-0.6422285997450717,-0.02502169127821456,-0.0307576006556026,-0.004886365408940168,-0.004886365408940168
109,1.09,0.26230170541460107,-0.31881040171870195,0.08159211131892807,-0.01122409903220672,-0.007288237579052223,-0.007288237579052223
110,1.1,0.03993075079344577,-0.15161692713854047,0.10069210704278803,0.004149299293904493,-0.0070178365600204,-0.0070178365600204
111,1.11,-0.07318851579192506,-0.2498509607492122,-0.16555504868999663,-0.00026752821158262073,-0.0095213339669616,-0.0095213339669616
112,1.12,0.0093502543658536,-0.3076098501173138,-0.559657984229037,-0.017431608369755044,-0.011726570938001436,-0.011726570938001436
113,1.13,0.15625052883149587,-0.22998338628427284,-0.718084562286569,-0.033500943782346686,-0.012523552893055769,-0.012523552893055769
114,1.14,0.11436841524109559,-0.14884337982766405,-0.5490293402644999,-0.03226453117464846,-0.014864013398358763,-0.014864013398358763
115,1.15,-0.04019421703637596,-0.1626452514708295,-0.3204051637140941,-0.012785694624884677,-0.016775651892019697,-0.016775651892019697
116,1.16,0.005631543910862166,-0.0403430829221902,-0.3745584558296464,0.0034643917058614173,-0.014969950325056347,-0.014969950325056347
117,1.17,0.08950074460433917,0.2769210779537963,-0.6280177183630957,0.0051320584306324,-0.014234074916181715,-0.014234074916181715
118,1.18,-0.019293731172259687,0.3473803872903261,-0.747320317851898,-0.008522509529072051,-0.014417818772340343,-0.014417818772340343
119,1.19,-0.11433515171064518,0.06193794021079531,-0.5877968812518941,-0.027616817192205486,-0.015764576209888328,-0.015764576209888328
120,1.2,0.07288642716607757,-0.2638929407382401,-0.36074554434892475,-0.03686705595025913,-0.01653976252516915,-0.01653976252516915
121,1.21,0.2360157259058241,-0.20140922247542484,-0.2584218539287895,-0.031082448525581487,-0.014774880218159682,-0.014774880218159682
122,1.22,0.059989681257513555,0.15824656213649593,-0.244461148765815,-0.010444610225021259,-0.01285348182670353,-0.01285348182670353
123,1.23,-0.03489952192399187,0.34334396408039003,-0.3909672269066695,0.009140593740036014,-0.013906314650802087,-0.013906314650802087
124,1.24,0.14195661710915933,0.22235475098779042,-0.519764888485643,0.010481990838088071,-0.01356469277022818,-0.01356469277022818
125,1.25,0.17898340304328053,0.05978594060602241,-0.5006226159199861,-0.0055643939218742245,-0.013397352968232407,-0.013397352968232407
126,1.26,-0.058032009091543546,0.11834465154039206,-0.2715779405252198,-0.02386638706476664,-0.015392712207804709,-0.015392712207804709
127,1.27,-0.0106565132097442,0.23717508621638517,-0.028341966512763606,-0.020472817817692737,-0.015816214419366315,-0.015816214419366315
128,1.28,0.358622122555094,0.16749456458039463,0.014171032664939381,0.002063699599747445,-0.01412416956283714,-0.01412416956283714
129,1.29,0.3623471987668473,0.011190337757783303,-0.0284662869300802,0.02106141486096185,-0.012455087910893666,-0.012455087910893666
130,1.3,-0.07047212890792323,0.0895781324820786,-0.0874928142741196,0.023098904099442676,-0.010762645119451304,-0.010762645119451304
131,1.31,-0.23098225479569728,0.35350762705655886,-0.1441533405358161,0.013081123932566056,-0.010321201181367916,-0.010321201181367916
132,1.32,0.021255883841290943,0.28934379589837733,-0.14008146179090433,0.0021649184598026994,-0.01151934175594201,-0.01151934175594201
133,1.33,0.14251083394571706,-0.2587780071787391,-0.03876580031783629,-0.004036916788677595,-0.013579826486282434,-0.013579826486282434
134,1.34,0.010367522520235865,-0.5705388099243811,0.16152189597470828,-0.002499160392220902,-0.013452077288856298,-0.013452077288856298
135,1.35,-0.108688284399558,-0.11401612096547026,0.2780528066166207,0.00879606623374073,-0.012862671175829524,-0.012862671175829524
136,1.36,-0.04321107553475855,0.4994129400189996,0.2861358789498447,0.02589759155894364,-0.01279305543609818,-0.01279305543609818
137,1.37,0.04384180142024589,0.4477296698540284,0.2726535174132363,0.03648749074374222,-0.011832238253680256,-0.011832238253680256
138,1.38,0.010182709015211205,-0.10997556443719936,0.286703998779798,0.02367046550550636,-0.011303890720241004,-0.011303890720241004
139,1.39,-0.1093747244667973,-0.41252921039091617,0.32366448507551593,-0.005092813260023286,-0.012209971934730406,-0.012209971934730406
140,1.4,-0.10519704530628324,-0.19836825233310815,0.27109904994106676,-0.016367050704980183,-0.013445745487395864,-0.013445745487395864
141,1.41,-0.006352529792335693,0.15039573650610974,0.16678966667539719,-0.0007169277987701065,-0.009958962696995928,-0.009958962696995928
142,1.42,-0.03708105528331372,0.21277715624120427,0.05458493845120577,0.024810557083457155,-0.0071950523482947875,-0.0071950523482947875
143,1.43,-0.28027329282037905,0.02997517491683431,0.12481379798235734,0.03426332361961041,-0.00825615575131945,-0.00825615575131945
144,1.44,-0.41050356809814065,0.00886616296443643,0.23542035017451055,0.017475712020629322,-0.010037295811630912,-0.010037295811630912
145,1.45,-0.20413331338350865,0.18924104807088415,0.22431081934058356,-0.008058398206422013,-0.009977177225201354,-0.009977177225201354
146,1.46,-0.008831783559014178,0.1517627885150655,0.15851666429331562,-0.0210015263209908,-0.009724060333640351,-0.009724060333640351
147,1.47,-0.058422815979537995,-0.18987263474224425,0.12209018016961071,-0.015291048383246625,-0.00964021065344518,-0.00964021065344518
148,1.48,-0.21051110630563913,-0.2994781886148755,0.17512634102203994,-0.0012300965990520562,-0.009036621823405996,-0.009036621823405996
149,1.49,-0.16127425597998885,0.09824631694792144,0.1880382036373202,0.010234737597511659,-0.00927994411177918,-0.00927994411177918
150,1.5,-0.048978393847551135,0.4280074718992955,0.22325037309033458,0.011697706573342523,-0.009674188273380879,-0.009674188273380879
151,1.51,-0.07368900202493332,0.21139228325827902,0.2738073871003233,-0.0010333592450226733,-0.009956121492110215,-0.009956121492110215
152,1.52,-0.13448758361053775,-0.05758554295513987,0.3368439736847908,-0.02048731887439851,-0.01100921510613148,-0.01100921510613148
153,1.53,-0.1496243967536796,0.13824483850804892,0.3178718984019403,-0.02551680589969224,-0.01021776831309473,-0.01021776831309473
154,1.54,-0.010590548561135789,0.5023529793716375,0.14395064820752382,-0.009379961342212587,-0.008674713651925656,-0.008674713651925656
155,1.55,0.10956536163437258,0.4372794384492551,0.031288494837752916,0.012014864731223405,-0.008265918962257037,-0.008265918962257037
156,1.56,0.00958059198888906,-0.04652727048871114,-0.017357259731760222,0.010879820925020493,-0.011442273558471895,-0.011442273558471895
157,1.57,-0.07710185305977528,-0.3449786116305054,0.07909042024525365,-0.016042531216751952,-0.013072740022203976,-0.013072740022203976
158,1.58,-0.0072482816501899805,-0.2797714834236546,0.17654378557742945,-0.04243950511077165,-0.011622612801106479,-0.011622612801106479
159,1.59,0.12116577452580943,-0.2371727068581731,0.09705091563568863,-0.04399151108240915,-0.011155670072779228,-0.011155670072779228
160,1.6,0.11641686614653918,-0.3151827874380751,-0.0006810712144219438,-0.022264052977119114,-0.009815703394071793,-0.009815703394071793
161,1.61,0.08657271892261609,-0.2520832030621172,-0.17555098367890654,0.0028199303546862595,-0.011772660104434769,-0.011772660104434769
162,1.62,0.209639480134342,-0.07459757803965662,-0.16756523361275824,0.00789442417796526,-0.012169634513054958,-0.012169634513054958
163,1.63,0.2875285557483852,-0.021456989547548405,-0.018534676969033034,-0.006878595162078878,-0.014241681134984727,-0.014241681134984727
164,1.64,0.18845434952858037,-0.027861477584311012,0.008159637811756548,-0.026942702472417517,-0.01443357752405075,-0.01443357752405075
165,1.65,0.048884687464785706,-0.12534875139053295,-0.08559152093361573,-0.036906009252607126,-0.011290710958935132,-0.011290710958935132
166,1.66,0.032958852991728876,-0.4125589630117773,-0.3522067411441231,-0.02837181421626755,-0.011567981430710715,-0.011567981430710715
167,1.67,0.15170260778696004,-0.640677064092826,-0.4131194285297716,-0.01104691771665877,-0.012972681501788043,-0.012972681501788043
168,1.68,0.2098306891872566,-0.4187608912042297,-0.2685093377963727,-0.0008639444694678133,-0.014226399532477032,-0.014226399532477032
169,1.69,0.14869828998339013,0.028345930319650492,-0.16151772285657218,-0.003214795299034886,-0.012019775246258236,-0.012019775246258236
170,1.7,0.0034416542449603044,0.14600907430040355,-0.19281477931099456,-0.010330794628879751,-0.008239277517340745,-0.008239277517340745
171,1.71,-0.11696229923821036,-0.0991569236167236,-0.3421188860146325,-0.01850660056591429,-0.007035355104192827,-0.007035355104192827
172,1.72,-0.029872753762118856,-0.3762988562671152,-0.4060750252802364,-0.024332173263582613,-0.006465968305722093,-0.006465968305722093
173,1.73,0.1733110716554105,-0.3722278486306452,-0.3010725583523656,-0.01934459840616041,-0.006593374522137982,-0.006593374522137982
174,1.74,0.16392316203684504,-0.045169874994471754,-0.09363134506995723,-0.004320646053791609,-0.006944857744997922,-0.006944857744997922
175,1.75,-0.0746384451955934,0.3294137555582421,-0.01210907738065553,0.011121546596731459,-0.004039932648737734,-0.004039932648737734
176,1.76,-0.16329588012686952,0.3619505851334011,-0.08806436411398302,0.015759687984272002,-0.0021450046908342976,-0.0021450046908342976
177,1.77,0.043823002389066654,0.11695883085150069,-0.2079868692553119,0.002897004083333193,0.00035687746605229123,0.00035687746605229123
178,1.78,0.14111009554957382,-0.09112497860087071,-0.15042016649970086,-0.01701709492266007,-0.0007732636879394106,-0.0007732636879394106
179,1.79,-0.006337285406482367,-0.1019930179994164,0.061024869177517926,-0.02439527102811724,-0.002624593214192564,-0.002624593214192564
180,1.8,-0.011735223441190467,0.015759527815268293,0.18629036569878896,-0.012121888792554223,0.0010600294643542296,0.0010600294643542296
181,1.81,0.16665785423354207,0.11539956114467308,0.05171745131328896,0.008169578959626944,0.004055835584146184,0.004055835584146184
182,1.82,0.05950473812515353,0.27082246443237934,-0.08882664004303624,0.01986470885082874,0.004528556430707854,0.004528556430707854
183,1.83,-0.1930641166813292,0.41681751129494526,-0.09165606275211946,0.015386400586790644,0.0046280558220064974,0.0046280558220064974
184,1.84,-0.1381865958106741,0.44704530004790743,0.036199471471818415,0.0019697391885581464,0.004809430253064003,0.004809430253064003
185,1.85,0.1132586759489762,0.3492007547837317,0.11528400357529038,-0.006997007182976045,0.005829101203154212,0.005829101203154212
186,1.86,0.1067740336796616,0.130829409481047,0.2265830040254903,-0.004096207536537109,0.007228973411039733,0.007228973411039733
187,1.87,-0.09935024078515292,-0.07268942309276796,0.27908226095734096,0.006812879474770235,0.006457614244871806,0.006457614244871806
188,1.88,-0.09637152115280863,0.0029181392352759516,0.173896222352187,0.016789458318432142,0.007209145501769047,0.007209145501769047
189,1.89,0.08309122961479198,0.26498295436627206,-0.07230447608036175,0.019488247866396018,0.010918483386530071,0.010918483386530071
190,1.9,-0.023862548323697413,0.3296231152956349,-0.2025550518087845,0.01471863152599527,0.010967403109802898,0.010967403109802898
191,1.91,-0.3754055780472581,0.14833012876026047,-0.10845227777859218,0.008217932128559566,0.008880703751425714,0.008880703751425714
192,1.92,-0.3277044854466814,-0.012357604574707748,0.1116470634306248,0.003972104010549203,0.00975786464099296,0.00975786464099296
193,1.93,0.06766785400170708,-0.008563083634686747,0.3017501487642431,0.005649228133776701,0.009056647098529696,0.009056647098529696
194,1.94,0.12209015987744523,0.0168517486110894,0.4228981791038873,0.015451203561040282,0.009419137205684354,0.009419137205684354
195,1.95,-0.17446721978585963,0.15592732962715963,0.42908001657003036,0.02334674200635855,0.009394179502550505,0.009394179502550505
196,1.96,-0.195883852270672,0.30857677327166116,0.22598476383169294,0.023024070903434925,0.009418655024347048,0.009418655024347048
197,1.97,0.016274225248718313,0.1221474794714782,0.04671600176376908,0.014186062141561312,0.009869587507657145,0.009869587507657145
198,1.98,0.007718571234812496,-0.22752786443924983,0.05557223335354805,0.0018000077074336485,0.009172139855040269,0.009172139855040269
199,1.99,-0.12781663811457042,-0.3364587102858302,0.14263860546710017,-0.007490679069807046,0.007520926555039259,0.007520926555039259
200,2.0,-0.08094901290857656,-0.18750485046316803,0.1302425087285197,-0.006561977630481125,0.007424743063747885,0.007424743063747885
201,2.01,-0.04249440077578453,-0.08068004742813265,0.01254287379480637,0.0064704959881989816,0.009448653565622505,0.009448653565622505
202,2.02,-0.14134367714453114,-0.08514393517193382,-0.012160767470398296,0.01269198722903221,0.010517767530656058,0.010517767530656058
203,2.03,-0.057115349367509685,-0.03377511856195328,0.004195059469609533,0.004454333782074952,0.0074288774234758685,0.0074288774234758685
204,2.04,0.08670299124036537,0.1661912667500966,-0.06711519684568727,-0.008285058687451231,0.006253206877417929,0.006253206877417929
205,2.05,-0.05262971214174329,0.1960898633789556,-0.19802826082945535,-0.015447960746437929,0.008214179470701723,0.008214179470701723
206,2.06,-0.3195046337654913,-0.07279905755549301,-0.20631530008105015,-0.012661722100272152,0.007699115546748346,0.007699115546748346
207,2.07,-0.12820917554373948,-0.3314091678981683,-0.17597086699489958,-0.0076290550120484,0.004337763165435393,0.004337763165435393
208,2.08,0.2529623367888677,-0.16698076339258533,-0.06329222757071498,-0.005713120673132225,0.0014664800606622116,0.0014664800606622116
209,2.09,0.21029669343683233,0.11643576759067428,0.07292746421550414,-0.008546899124296185,0.0010316882401961742,0.0010316882401961742
210,2.1,0.001083583996064355,0.015199674070695474,0.08987705828643734,-0.014715246095699144,0.0016658382274587409,0.0016658382274587409
211,2.11,0.014920576640246042,-0.23167656629938146,-0.039643216860457964,-0.02392980830644476,0.0004878704091771924,0.0004878704091771924
212,2.12,0.18135871464754708,-0.21200291563299567,-0.18284728770579464,-0.03101484335387666,-0.0009483986190453613,-0.0009483986190453613
213,2.13,0.17252638217862448,0.025774400286150995,-0.07306690341901208,-0.026039465941001268,-0.003024325170289911,-0.003024325170289911
214,2.14,0.02376937292791799,-0.04409519106880894,0.08307232659665632,-0.014025217601302488,-0.005821549553006387,-0.005821549553006387
215,2.15,0.02470565153568985,-0.34313510368706257,0.11196425642758845,-0.012206809450928136,-0.006460386267606063,-0.006460386267606063
216,2.16,0.16478985769597776,-0.30201415131328446,-0.025138297234571505,-0.02131222651495388,-0.008244168626771808,-0.008244168626771808
217,2.17,0.17246167772955953,0.15160286153347688,-0.09236862081428672,-0.02546406499881348,-0.0123749515108552,-0.0123749515108552
218,2.18,0.0911087696390053,0.41000233365333805,-0.052496320784742284,-0.017780234944399984,-0.012872404325123276,-0.012872404325123276
219,2.19,0.11511469255378828,0.03337930821975013,0.004474093577046104,-0.007565475956329341,-0.010886863771280285,-0.010886863771280285
220,2.2,0.11997999660063993,-0.4891410900563727,-0.07349987125118555,-0.006848359502320283,-0.011749336354671049,-0.011749336354671049
221,2.21,-0.11506799406545885,-0.5439369002921539,-0.18267385557459895,-0.018549768759490496,-0.013464842693281595,-0.013464842693281595
222,2.22,-0.15411222262932966,-0.05170341717695945,-0.33582079102223583,-0.023011203835503213,-0.015688273124491864,-0.015688273124491864
223,2.23,0.20042062388895296,0.36732308630570754,-0.2845296974085077,-0.007014345589702306,-0.01781114521458433,-0.01781114521458433
224,2.24,0.34346849585083533,0.13834235769390987,-0.06767723381006899,0.012078875171120476,-0.01680835788280303,-0.01680835788280303
225,2.25,0.00844485217407727,-0.4598409374561473,0.1924013114281873,0.0103570357637186,-0.017578159511178915,-0.017578159511178915
226,2.26,-0.19679021719608275,-0.6367688983339486,0.19128704655468862,-0.012379695488853638,-0.01623803510465626,-0.01623803510465626
227,2.27,-0.07252419542459054,-0.15178318345380906,-0.14874846943959447,-0.030500218995819367,-0.01472048242412131,-0.01472048242412131
228,2.28,-0.02934629520375312,0.2473447882097016,-0.3125862111948201,-0.021453010941363863,-0.01626720774138548,-0.01626720774138548
229,2.29,-0.0945217754056576,0.08410151769102897,-0.19576723297351076,0.004383893209532636,-0.017702955235437617,-0.017702955235437617
230,2.3,0.23426235451251304,-0.22681434749271132,-0.03206687102934194,0.019459988495075246,-0.019533552290533458,-0.019533552290533458
231,2.31,0.2969433912546292,-0.24000010501082075,0.18623374251734143,0.009690441591895605,-0.020232530434556303,-0.020232530434556303
232,2.32,-0.1480207895817403,0.03509352830183396,0.13246175874658106,-0.014644203367299055,-0.01644726256268449,-0.01644726256268449
233,2.33,-0.28061021753183113,0.22764863966957255,0.04919474704374052,-0.02649518523571081,-0.012287113248368944,-0.012287113248368944
234,2.34,0.057292155990931085,0.17258336322793158,-0.16866841118564585,-0.01562933665810547,-0.013079252362803566,-0.013079252362803566
235,2.35,0.18412189413994784,0.2374183414731383,-0.18366412045551395,0.004888064396458075,-0.01435047960367034,-0.01435047960367034
236,2.36,-0.21337841090492168,0.5261546624203258,0.18752836276906704,0.02288183223657652,-0.012731943044381005,-0.012731943044381005
237,2.37,-0.30859488799451873,0.6485157194564453,0.36145235304153667,0.023158219361776464,-0.010552230303530469,-0.010552230303530469
238,2.38,0.09565308488130214,0.4025921956101225,0.38328734503658324,0.002997250006191537,-0.006995113004469632,-0.006995113004469632
239,2.39,0.14011681486561378,-0.1470356525230191,0.1399041366118144,-0.02226693595894061,-0.003817451026426814,-0.003817451026426814
240,2.4,-0.30380077779688214,-0.2249881062548674,0.0050359348572460855,-0.03119046521538788,0.00032192822258781317,0.00032192822258781317
241,2.41,-0.3637345100602769,0.2899197423877985,-0.03340237469548471,-0.01409948469135914,-0.0017045216237338134,-0.0017045216237338134
242,2.42,0.11986870989243814,0.648660892196857,-0.0788747942335623,0.01887511504687538,-0.0036402214834937827,-0.0036402214834937827
243,2.43,0.2699566179551136,0.47355194400254386,0.19476453563905655,0.0388088448501887,-0.0007314343505742019,-0.0007314343505742019
244,2.44,-0.07707955359240468,0.08372150958185162,0.3490033755256642,0.024223373680711483,0.0021294534468553673,0.0021294534468553673
245,2.45,-0.15606741387989126,-0.0849550778587072,0.21342038052965112,-0.010256559408746922,0.003977845320655194,0.003977845320655194
246,2.46,0.09579446340254989,-0.01198995606733333,-0.01534200050193689,-0.03119589275169353,0.006186492333458329,0.006186492333458329
247,2.47,0.08555182591638053,0.19597662291594753,-0.18993086441171206,-0.018113371959965457,0.007119473615042217,0.007119473615042217
248,2.48,-0.15070530748381208,0.252553067112162,0.12277993104148718,0.018778411645022097,0.0051482923685816145,0.0051482923685816145
249,2.49,-0.07201379224842258,0.16112609561742094,0.29468117161044527,0.045952914490392655,0.0055976430057145385,0.0055976430057145385
250,2.5,0.17397706722669254,0.1423895780137833,0.1811863952697399,0.0401866388654005,0.010565407228551205,0.010565407228551205
251,2.51,0.031082051719866652,0.16000472252962772,-0.01731759061939535,0.0101768114981765,0.01175180767127935,0.01175180767127935
252,2.52,-0.2265788138153016,0.025681354999058686,-0.2786419858643132,-0.016661145735338247,0.010564759721430395,0.010564759721430395
253,2.53,-0.08372227178093634,-0.3149601587772496,-0.195600941358214,-0.02111127944351029,0.008691596268457917,0.008691596268457917
254,2.54,0.09206803423971084,-0.714098678437568,0.021464401844212222,-0.006237376588999576,0.008179924353401428,0.008179924353401428
255,2.55,-0.05163481079039532,-0.6840182655678146,0.21121969432106874,0.013389327808034516,0.012032443893494437,0.012032443893494437
256,2.56,-0.09707035158135499,-0.09136208443997143,0.09229016040762873,0.025857959261978692,0.01427862313766084,0.01427862313766084
257,2.57,0.05723710432781073,0.31057943545651673,-0.24430334358857633,0.024062765561959888,0.016208238701918513,0.016208238701918513
258,2.58,-0.03929872812532256,0.049086388403352055,-0.33857035653693124,0.008092527797851119,0.014625773199711959,0.014625773199711959
259,2.59,-0.23559125596559868,-0.5166301947375684,-0.17342407803679172,-0.015193991566812497,0.011249210584807398,0.011249210584807398
260,2.6,-0.015378500672532991,-0.7133369506077367,0.02398747315309091,-0.0307535326778598,0.009636177154363044,0.009636177154363044
261,2.61,0.24330052529256746,-0.374507848084759,0.03891051052738416,-0.02338721073495975,0.009961654419717792,0.009961654419717792
262,2.62,0.009828662474443892,0.05024004045744407,-0.029695318180518737,-0.001028373339286251,0.01036414597633956,0.01036414597633956
263,2.63,-0.20307502461548194,0.0840215613589535,-0.06057418078975614,0.01739463875955726,0.009590923072411132,0.009590923072411132
264,2.64,0.08098726668601045,-0.21532019163040161,-0.11328200328118491,0.008562012080350241,0.006743649722175626,0.006743649722175626
265,2.65,0.2660068848447269,-0.2629875161236671,-0.07169022992422894,-0.02119767846671904,0.005440068862066706,0.005440068862066706
266,2.66,0.031096914240598295,0.07366426774232271,-0.04184360957623394,-0.04227969067476652,0.007308845815514791,0.007308845815514791
267,2.67,-0.08591020370479752,0.4233415261483803,-0.21775287242793945,-0.034815347450958004,0.008596794990691672,0.008596794990691672
268,2.68,-0.09898987619820315,0.3587080284790986,-0.36480385832154544,-0.0048251714123089436,0.007806917691195984,0.007806917691195984
269,2.69,-0.18919853242308216,-0.12011506829184954,-0.3503385808745958,0.015762323070731055,0.007213206282208233,0.007213206282208233
270,2.7,-0.05234434864581945,-0.5124769275873684,-0.036956181774971064,0.00039476117091543153,0.002991244602063297,0.002991244602063297
271,2.71,0.33878230561456923,-0.2635985139193868,0.2609476355604589,-0.03330658039143769,-0.0019926940657802933,-0.0019926940657802933
272,2.72,0.3993812754603513,0.44545031715439004,0.27945294408206495,-0.04633259264335684,0.00109038231222267,0.00109038231222267
273,2.73,0.06087327883002194,0.6155306293863376,0.09983050222009934,-0.027399644514236703,0.005238845444547229,0.005238845444547229
274,2.74,-0.08800262012260901,-0.04552621567753323,-0.24976503439245462,-0.0020339739284228413,0.0052129979178305455,0.0052129979178305455
275,2.75,-0.15185949009390717,-0.6575222521505576,-0.3619635900659595,-0.001485444454626315,0.004233946562373678,0.004233946562373678
276,2.76,-0.11648528675517146,-0.4512624814260724,-0.2156579224092874,-0.024692644264731167,0.00021783774608892005,0.00021783774608892005
277,2.77,0.16127650842116448,0.28749116172437966,0.12382756888602278,-0.0401378014210514,-0.003237221425566707,-0.003237221425566707
278,2.78,0.3030093767700691,0.5466215744072831,0.33613353211028274,-0.02801289280524666,-0.005533830359180014,-0.005533830359180014
279,2.79,0.1244056583337812,0.04469720818166473,0.3019589726058718,-0.004594082111741643,-0.004162976845676253,-0.004162976845676253
280,2.8,-0.08226732429194851,-0.32436597657722444,0.15003246997426622,0.0013244949174074205,-0.003814881311989921,-0.003814881311989921
281,2.81,0.0891089232151587,0.006964683551651946,-0.0993942630852103,-0.010371402239290691,-0.005665956220597727,-0.005665956220597727
282,2.82,0.26665216019991633,0.4328473994234151,-0.11893763356832414,-0.019421785430098704,-0.009669564672583444,-0.009669564672583444
283,2.83,-0.039372852116471305,0.18791712676169525,0.19398116480222688,-0.0200969286957099,-0.01588441866471451,-0.01588441866471451
284,2.84,-0.22432353433513275,-0.503059088598269,0.5181900852600738,-0.020352067239039408,-0.019584213554724242,-0.019584213554724242
285,2.85,0.21119616041751896,-0.5829324503376219,0.5339994401738762,-0.0233227909834633,-0.019606898261158863,-0.019606898261158863
286,2.86,0.57116850419093,0.17833537644113545,0.1365710182123212,-0.017073885913076403,-0.017234379043380266,-0.017234379043380266
287,2.87,-0.0943471921215627,0.7174877667085423,-0.1185775298836538,-0.001099985679199899,-0.014580857732621409,-0.014580857732621409
288,2.88,-0.851033530888611,0.1522362351812139,-0.21702238519994166,0.0015089557295346336,-0.01667777855764263,-0.01667777855764263
289,2.89,-0.1540324367305662,-0.631704259729281,-0.303859153911518,-0.016650500019913767,-0.022672424602287453,-0.022672424602287453
290,2.9,0.791673761552846,-0.2488450709520617,-0.2037074321708854,-0.03562321366600103,-0.02738662443371079,-0.02738662443371079
291,2.91,0.27215664304982173,0.7458921561743956,0.07137190921967682,-0.0292063885177654,-0.028229007400974063,-0.028229007400974063
292,2.92,-0.7747667131777763,0.6384754164079287,0.37747375833018026,-0.0008970615711790668,-0.02690466788183537,-0.02690466788183537
293,2.93,-0.5272558807388531,-0.5077689010356486,0.19682286690205392,0.0076735632640930985,-0.025382041636937448,-0.025382041636937448
294,2.94,0.47822980228130696,-0.7282045215399728,-0.279965834915728,-0.019247885331690195,-0.023743371312451963,-0.023743371312451963
295,2.95,0.3208009097044837,0.2734775826084584,-0.35816170305188,-0.04280657027062814,-0.024380412039350336,-0.024380412039350336
296,2.96,-0.5979541954063659,0.9615620080184436,-0.058732203904080654,-0.03181928749555616,-0.026862277696144462,-0.026862277696144462
297,2.97,-0.5610900800900491,0.5235357211182383,0.20906608774700117,0.0009959957292332534,-0.027334286019098798,-0.027334286019098798
298,2.98,0.09909099344140213,-0.22377007197652443,0.10630924019404042,0.01902640316687839,-0.021082501819645855,-0.021082501819645855
299,2.99,0.06651329000139608,-0.09568063609824062,0.07076848057967544,0.006460114471355557,-0.017083834140473722,-0.017083834140473722
300,3.0,-0.37132055178628454,0.6351423517043837,-0.010202063302188369,-0.018042615413027444,-0.020330196222663764,-0.020330196222663764
301,3.01,-0.13287615048717252,0.6959602077212629,-0.14961307148433178,-0.02411607327439618,-0.018804454650428185,-0.018804454650428185
302,3.02,0.19821088762184028,-0.07498407502175572,0.023246314419854475,-0.01648851107130746,-0.016569984820755317,-0.016569984820755317
303,3.03,0.034324195003886865,-0.5996590240488762,0.1346411992763391,-0.009551392371093832,-0.014070126938376329,-0.014070126938376329
304,3.04,-0.14654153930926628,-0.5219782204598945,0.31940164730655096,-0.00700043387697796,-0.005795162971979281,-0.005795162971979281
305,3.05,-0.15005403891136276,-0.002099250119466156,0.07236025545101192,-0.003182253537688885,-0.0010460005259694642,-0.0010460005259694642
306,3.06,-0.15092622265782007,0.5684107611190309,-0.3863546385451846,0.009729261435206244,0.002903933347051186,0.002903933347051186
307,3.07,-0.1410597986528712,0.6701410813301147,-0.3942141698596815,0.022156189946051747,0.003316490427156682,0.003316490427156682
308,3.08,0.10608693882427364,0.20603060101922677,-0.21220580369267394,0.020574525194562186,-0.0008275741693742519,-0.0008275741693742519
309,3.09,0.4710127629871709,-0.5015385093113175,0.22322852437831092,0.0018137142163853184,0.0008448905607762679,0.0008448905607762679
310,3.1,0.37524841857295854,-0.8620265531094001,0.5050532939265888,-0.019771145658092047,0.003558725561338776,0.003558725561338776
311,3.11,-0.05607924193837166,-0.4964085831764421,0.22810300145875495,-0.019958127084584942,0.007734524830722819,0.007734524830722819
312,3.12,-0.02961853083515628,0.19916392951386275,-0.16047186307315695,0.009050557449133549,0.011494013119240552,0.011494013119240552
313,3.13,0.3213866904347702,0.2890077939832301,-0.3982528854985833,0.04225893177171257,0.01013550303910097,0.01013550303910097
314,3.14,0.3506240790673541,-0.24019753402792696,-0.14134378192816602,0.045941060206159366,0.008671631317823211,0.008671631317823211
315,3.15,0.12497208676080779,-0.5275150413988325,0.2951355034034983,0.017265013975653568,0.0075882721929617985,0.0075882721929617985
316,3.16,0.0291999983247187,-0.25573655498238873,0.3020155274909378,-0.018081212310270614,0.009539516680968613,0.009539516680968613
317,3.17,0.06781247410754176,-0.05315477770247998,-0.019424472352973773,-0.023640303215943282,0.012867970943761369,0.012867970943761369
318,3.18,-0.019991301600503088,-0.30597232734157137,-0.30837847957747533,-0.003107544009465857,0.011450280818779057,0.011450280818779057
319,3.19,-0.12154542715273287,-0.6012927025595172,-0.287415842253636,0.0236133208466234,0.008599635130920331,0.008599635130920331
320,3.2,0.0375461997313713,-0.47027271835128404,-0.05364908114096999,0.03232009434478023,0.00586963397266568,0.00586963397266568
321,3.21,0.0696892874280241,0.031610465126704346,0.17756779260903605,0.018891803429126504,0.0047294471663333285,0.0047294471663333285
322,3.22,-0.13118927835804808,0.34486614467374255,0.16561828023455477,0.0014851075501611608,0.008579820905575946,0.008579820905575946
323,3.23,-0.12039598418145019,0.19935444127141216,-0.09928409691401735,-0.00734918078627233,0.010767606340544493,0.010767606340544493
324,3.24,0.004728296080528965,-0.22620303916621545,-0.41587564863726434,-0.0034918781960377662,0.01043159994714696,0.01043159994714696
325,3.25,-0.12109191303231778,-0.4804973842292313,-0.43639066381050773,0.003848134640217961,0.009610479504373637,0.009610479504373637
326,3.26,-0.31662463966794785,-0.19896552526752523,-0.08756719700541087,0.005131652469904191,0.0052917040164925785,0.0052917040164925785
327,3.27,-0.10876108796941379,0.4060017408166628,0.11779592108876363,0.007024392157705714,0.0036914526157952117,0.0036914526157952117
328,3.28,0.1723488418951933,0.6826704083748578,0.0231411001532027,0.0076479174079989234,0.006712865656393542,0.006712865656393542
329,3.29,-0.012667552112632666,0.33488483144062176,-0.17474868149754108,0.0020441731113818593,0.007257145735207989,0.007257145735207989
330,3.3,-0.26834479882975804,-0.11608658760262333,-0.2800370694393741,-0.011572132287729235,0.004472711716827126,0.004472711716827126
331,3.31,-0.1004007985367896,-0.12900804638512622,-0.2192590854831559,-0.02387429677586209,0.003892713895580193,0.003892713895580193
332,3.32,0.10521620041547086,0.18121673968863722,0.0436350742144076,-0.02170545220841068,0.0019185360941543108,0.0019185360941543108
333,3.33,-0.09366200585370137,0.19273879972375085,0.44947882027287955,-0.005079980500032231,0.00014564912432526162,0.00014564912432526162
334,3.34,-0.2195877483608416,-0.020195941279983476,0.5625027991653666,0.005526447263301541,0.002061586891260782,0.002061586891260782
335,3.35,0.3281608349076366,0.14888384728131346,-0.037006669227781674,-0.004116554518950498,0.006403186240615321,0.006403186240615321
336,3.36,0.5372142846378245,0.5794174770975864,-0.6724339243512839,-0.0206619918507664,0.010587939095603576,0.010587939095603576
337,3.37,-0.3673675065622562,0.5806065385265763,-0.6073751501985758,-0.023763458888894168,0.008836860657441423,0.008836860657441423
338,3.38,-1.01381044464654,0.05174507336871531,0.08558626094176447,-0.02084649403142303,0.0013194887996040535,0.0013194887996040535
339,3.39,-0.04322562416660514,-0.4213535189616221,0.5588061422716153,-0.02265885180582945,-0.0034766457499043825,-0.0034766457499043825
340,3.4,1.2238348367774254,-0.4304828768088329,0.49070778709331947,-0.024416464661969943,-0.0022135448355244717,-0.0022135448355244717
341,3.41,0.6715013392767457,0.04525899393271021,0.32139483540489233,-0.021642846013376956,-0.0011259692372239864,-0.0011259692372239864
342,3.42,-0.7089421781266493,0.6206161873749887,0.3160749824719581,-0.012382932666993649,-0.001584866631910868,-0.001584866631910868
343,3.43,-0.4397152060847117,0.6763941729211533,0.13143771477937144,-0.0051261510721869845,-0.004235064015302477,-0.004235064015302477
344,3.44,0.7311442633123323,0.04933639721217398,-0.03929497168445234,-0.010615405560483506,-0.003196099058695701,-0.003196099058695701
345,3.45,0.5245060496742151,-0.5067336726842868,0.10667434310892082,-0.0313509759000885,-0.004350031856286159,-0.004350031856286159
346,3.46,-0.5447198225146411,-0.27762442952833577,0.4411843830661393,-0.046352875570567297,-0.009653003379583254,-0.009653003379583254
347,3.47,-0.2644761189925033,0.21964021379622595,0.33731613191468973,-0.03372113350216554,-0.011359450447882431,-0.011359450447882431
348,3.48,0.7078568091365199,0.1122018026338916,0.013140068074331213,-0.004259734312795639,-0.00975475064934127,-0.00975475064934127
349,3.49,0.4019434617517829,-0.5221521811642461,-0.17456712094648558,0.004602263065719776,-0.009757157637857623,-0.009757157637857623
350,3.5,-0.5150483544413893,-0.7342605531685183,0.02677917719498117,-0.01637126849934445,-0.013274523081973721,-0.013274523081973721
351,3.51,-0.44072935857829426,-0.20814826261827155,0.25383297712597425,-0.044496927595900425,-0.01958484685609068,-0.01958484685609068
352,3.52,0.3167382598817564,0.41599849017966045,0.32727357429891846,-0.05068863470268026,-0.021739204594105083,-0.021739204594105083
353,3.53,0.5083369672261933,0.4094489459270988,0.29794643914724805,-0.02508416530959632,-0.018866475698564332,-0.018866475698564332
354,3.54,0.03833962935264873,-0.1478092067855661,0.08551830630412233,0.0019464300157799926,-0.017023945215706767,-0.017023945215706767
355,3.55,-0.3811544454022346,-0.4313823407140326,-0.25126472532702204,0.0006155691754705685,-0.016338036106306655,-0.016338036106306655
356,3.56,-0.373795805566048,-0.18793973151007887,-0.549499001207818,-0.02225878217334488,-0.015448999922938062,-0.015448999922938062
357,3.57,-0.06437439223079267,0.0923827439840327,-0.6999126852315558,-0.03883751678429557,-0.01808966063291164,-0.01808966063291164
358,3.58,0.09975625238624122,-0.06594556000789216,-0.514564548980424,-0.03334928846266734,-0.02196504203788025,-0.02196504203788025
359,3.59,0.022029234699668,-0.2862262996787627,-0.22595947443889977,-0.012589039429356231,-0.0235088820793008,-0.0235088820793008
360,3.6,-0.0181073519077595,-0.00812591248723192,0.0442054116807758,0.010312215404031254,-0.02247819538445445,-0.02247819538445445
361,3.61,0.009759939025315939,0.5899489393350187,0.05503773854280253,0.024701092748000912,-0.020344711813921997,-0.020344711813921997
362,3.62,-0.09576624414245172,0.7851397626442225,-0.16229591545803843,0.02420915881851762,-0.017822806011889892,-0.017822806011889892
363,3.63,-0.2094514916873833,0.28183204184716265,-0.3442725569952826,0.01201381681008132,-0.013524628874205509,-0.013524628874205509
364,3.64,-0.30138644334432396,-0.36658326568718413,-0.3260333728451963,-0.00872195805627642,-0.013613011518863264,-0.013613011518863264
365,3.65,-0.36772129409638266,-0.6096696121840623,-0.11278005851875214,-0.02315125597691629,-0.01719820964586526,-0.01719820964586526
366,3.66,-0.16239182186890452,-0.49319049503682627,0.09714453955256103,-0.015106964532796719,-0.016726697839648696,-0.016726697839648696
367,3.67,0.20029922990961574,-0.17178657556599708,0.12447811704862753,0.01010297713321735,-0.014407587861020912,-0.014407587861020912
368,3.68,0.20923672667456786,0.3426738848198695,0.13526215366752392,0.029754860495678256,-0.012223088493028606,-0.012223088493028606
369,3.69,-0.1448289854842898,0.4705687637664726,0.19988257651800667,0.03177055958188026,-0.011391100166564682,-0.011391100166564682
370,3.7,-0.17004711724941604,-0.07143545322157749,0.15625004468122314,0.011741436284662465,-0.00895370615652318,-0.00895370615652318
371,3.71,0.08630993724208047,-0.6364858902370107,0.025393283473091693,-0.018279912526146386,-0.0054704833329232115,-0.0054704833329232115
372,3.72,0.09008198618096343,-0.5076062951287919,-0.06675216489881712,-0.028624453189774326,-0.0017115635815748837,-0.0017115635815748837
373,3.73,0.0248868504192405,0.04105337234841633,0.038259477350016745,-0.014255024379921185,-0.0056530624262827,-0.0056530624262827
374,3.74,0.020731853498226243,0.22107677389552527,0.154021308467191,0.024462960248476683,-0.002268414246102516,-0.002268414246102516
375,3.75,-0.027493542432777338,0.12539045327025655,0.17925818444023853,0.05081943352666031,0.006542586951958289,0.006542586951958289
376,3.76,-0.07502067487363494,0.29258836596427595,0.10977784086570458,0.04319650879621327,0.00961517326360776,0.00961517326360776
377,3.77,0.08736347466731899,0.6224530879792365,-0.12267613718569892,0.019678103124731103,0.011086715572060377,0.011086715572060377
378,3.78,0.20812163726177435,0.44227513178277267,-0.1245865353793301,0.001603307236891796,0.011200689829775774,0.011200689829775774
379,3.79,0.005081361936231127,-0.21171282106712144,-0.0077428046053420185,0.0023351861153856953,0.009321846821087922,0.009321846821087922
380,3.8,-0.03263680431819094,-0.5434644271833946,0.1561402748255482,0.016321844730185546,0.009406626882966396,0.009406626882966396
381,3.81,0.212557129862538,-0.12372770932031102,0.2516851174605062,0.0306943433587992,0.01119491451242702,0.01119491451242702
382,3.82,0.4057718314578177,0.47076597964429034,0.04434818803731311,0.043453320610079615,0.012084092824217848,0.012084092824217848
383,3.83,0.2195572705574657,0.4515991909621099,0.05315082116187537,0.04208387559862778,0.01267755831971879,0.01267755831971879
384,3.84,-0.14384670311121905,-0.08484004285720456,0.07607652631198433,0.020102662640212286,0.011886147289667994,0.011886147289667994
385,3.85,-0.10580817274610205,-0.30764632039947315,0.07641073232980579,-0.006670026867329918,0.010128962743868848,0.010128962743868848
386,3.86,0.24063686018924815,-0.034650327937335065,0.07581674041005462,-0.009414776419028813,0.009243960473805874,0.009243960473805874
387,3.87,0.26416457061729454,0.12665823715428404,-0.05192516280467728,0.010971362673426669,0.008723428062296189,0.008723428062296189
388,3.88,-0.0607075515384137,-0.07664005436335239,-0.061111411930199686,0.031044374515706682,0.009523809736623305,0.009523809736623305
389,3.89,-0.14903458331650776,-0.28290960274691124,-0.07871497235797698,0.025960706547990303,0.008509769976775773,0.008509769976775773
390,3.9,0.05367627567214386,-0.05110285607806368,-0.2228900114672913,-0.0005216973288295623,0.00757400098464741,0.00757400098464741
391,3.91,0.09520156176174908,0.254393675460678,-0.16217613318903193,-0.023187584248597282,0.0070810369086800684,0.0070810369086800684
392,3.92,-0.08126083598770391,-0.01908585009365732,-0.10492125604037288,-0.02689121552164306,0.005166402199665592,0.005166402199665592
393,3.93,-0.16811056722077472,-0.5019220535468583,-0.039063529500887414,-0.018417964576132543,0.004907193612040371,0.004907193612040371
394,3.94,-0.15828069373632833,-0.4315765312040532,0.011523026938229458,-0.009230981259575274,0.002368768490145809,0.002368768490145809
395,3.95,-0.11327780309939613,0.15233894779090124,-0.10984145410650599,-0.007830332346290016,0.0015968361883858385,0.0015968361883858385
396,3.96,-0.059111764334501216,0.49482349722946417,-0.14999949104811441,-0.010187278074920094,0.0011935199822741215,0.0011935199822741215
397,3.97,-0.16735327182813792,0.23680337347967284,-0.09392579051576026,-0.018826089204871086,-0.0018076052921566148,-0.0018076052921566148
398,3.98,-0.2816775574477119,-0.14377854485848035,0.04035748037218877,-0.030129501209383864,-0.002908639225440087,-0.002908639225440087
399,3.99,-0.10627763561549428,-0.09929513612864407,0.09861535585820158,-0.03291737717998755,-0.0013891282115472527,-0.0013891282115472527
400,4.0,0.1477201302940716,0.24215014074799388,-0.068608830032114,-0.02244865150929525,-0.00032341794931094284,-0.00032341794931094284
401,4.01,0.08360319554642465,0.36906610235987175,-0.18298946928082044,-0.005706696676510975,-0.0027820891556845327,-0.0027820891556845327
402,4.02,-0.15211073942093106,0.17114443976368793,-0.09394394748592338,0.00027531222884925595,-0.004524564358680176,-0.004524564358680176
403,4.03,-0.15501854763376,-0.09378220219821715,0.07681501511129894,-0.015422635688994782,-0.005819660928279836,-0.005819660928279836
404,4.04,0.04276946004038105,-0.1513948021202446,0.29591851103367545,-0.0398622536317998,-0.006306520325478058,-0.006306520325478058
405,4.05,0.173674181290335,-0.060076321430107826,0.32515437148117304,-0.04683591746673196,-0.005617682159192619,-0.005617682159192619
406,4.06,0.10713532666376936,-0.10157740098065557,0.27936013028184975,-0.02855556255885113,-0.005025002888242815,-0.005025002888242815
407,4.07,0.026332428794522966,-0.3525394514276622,0.024646870888675093,-0.00589750120120917,-0.0018015989158550148,-0.0018015989158550148
408,4.08,0.015567322799342982,-0.37686407775581765,-0.29831890578042525,-0.0013153960532766324,0.0009496751989304305,0.0009496751989304305
409,4.09,-0.05076905111058769,0.09962295768236462,-0.44444164119941537,-0.015404569850437703,0.00034362509445770383,0.00034362509445770383
410,4.1,-0.19673776077142638,0.6539615235387093,-0.3579013101496159,-0.02522984066281491,-0.0033602127664799533,-0.0033602127664799533
411,4.11,-0.19757842804598602,0.589179045842064,-0.04966172353660231,-0.0217479904005316,-0.004684762547685692,-0.004684762547685692
412,4.12,0.10543626375119966,-0.2611495263302689,0.23105117362893526,-0.01766947779078325,-0.005196017826967136,-0.005196017826967136
413,4.13,0.43504769175293684,-1.0205027346243822,0.38158054365220606,-0.020053226178964267,-0.00782257241793928,-0.00782257241793928
414,4.14,0.3357270548599766,-0.8911149361967889,0.5359435502740445,-0.025002020594189663,-0.007857335283833233,-0.007857335283833233
415,4.15,-0.02664597215526332,-0.15198362596016596,0.5478451278478655,-0.020529638806308696,-0.00629690526987013,-0.00629690526987013
416,4.16,0.006000359663346624,0.25118136807956903,0.3908822855529262,-0.0008237869444349867,-0.005421955275034274,-0.005421955275034274
417,4.17,0.45024059441622155,0.11860823818064914,-0.023258660970417733,0.015057629212363016,-0.00541936164425927,-0.00541936164425927
418,4.18,0.36700671900116166,-0.03464509823158171,-0.2977231703273079,0.011660610250855359,-0.004984048708387839,-0.004984048708387839
419,4.19,-0.40158447976101985,0.018911300125954267,-0.07197549961906526,-0.006128365454472989,-0.004800667396971707,-0.004800667396971707
420,4.2,-0.5523512149060053,0.023001534627593453,0.15853888027095284,-0.015249472091163348,-0.007028763055877906,-0.007028763055877906
421,4.21,0.2518370349946471,-0.18820561532660793,0.07389823298342406,-0.005549631757667411,-0.010177642353922815,-0.010177642353922815
422,4.22,0.7263111735317145,-0.3173954659302898,-0.1852038394962356,0.01032341762709031,-0.010464079285899078,-0.010464079285899078
423,4.23,0.13063035481439075,-0.08628137680690856,-0.28767845681056686,0.018936324254798256,-0.01184284833893752,-0.01184284833893752
424,4.24,-0.7967948779005672,0.26572002952119306,0.01631084927315156,0.021095426889046275,-0.014639826237493209,-0.014639826237493209
425,4.25,-0.6147288089243272,0.293293519970486,0.17127947272961216,0.015146202892187663,-0.01752711324181194,-0.01752711324181194
426,4.26,0.4739508413875547,0.1371442555194899,0.03180877544813815,0.001191828227950607,-0.017472393439860786,-0.017472393439860786
427,4.27,0.6748470269151009,0.2411136257320048,-0.16516160481882255,-0.00486196524830496,-0.019474334507432373,-0.019474334507432373
428,4.28,-0.5484006689853138,0.5542855302749127,-0.04634207893382672,0.0050731949390218495,-0.021167876549702057,-0.021167876549702057
429,4.29,-0.9066447204911333,0.48073022724744235,-0.02136556910602122,0.020889283311458038,-0.02604673027395148,-0.02604673027395148
430,4.3,0.5978844609110812,-0.17607679361672357,-0.3308382908543439,0.019379393255358444,-0.030573064729649,-0.030573064729649
431,4.31,1.1658216357736777,-0.6109875456891758,-0.4535136790770732,-0.007655981499135146,-0.029140803038024212,-0.029140803038024212
432,4.32,-0.3577486510566319,-0.05457270797346159,-0.16438066395936862,-0.0288983076790226,-0.03010432550140067,-0.03010432550140067
433,4.33,-1.4506707745651988,0.8862417866105385,0.23801406739352707,-0.011161586221707485,-0.033243123227360616,-0.033243123227360616
434,4.34,-0.33430523838709925,0.9457050033840884,-0.09764765109318284,0.030179859964630736,-0.03256220939573951,-0.03256220939573951
435,4.35,0.8879039852350941,0.28261782651554745,-0.53716241663591,0.053344332561860636,-0.030524312729170232,-0.030524312729170232
436,4.36,0.22731544366804313,-0.0967436558408103,-0.46812302550132945,0.037994377240530966,-0.03413944248045478,-0.03413944248045478
437,4.37,-0.9004993322061656,0.21533164532915375,0.0533685180902744,0.00322564796076856,-0.038616059281387186,-0.038616059281387186
438,4.38,-0.5436078823114548,0.7231364799512958,0.40795191117195917,-0.008826170605678047,-0.039209151929622106,-0.039209151929622106
439,4.39,0.4966824615721005,0.5812002999885022,0.092164291640722,0.011704268773776696,-0.036134440417166944,-0.036134440417166944
440,4.4,0.34867920828006643,-0.22134821832918677,-0.17548436036351273,0.038129898549190584,-0.03082261662996773,-0.03082261662996773
441,4.41,-0.6663380892362102,-0.7334065832045631,-0.1745910335850018,0.04031356441206398,-0.031362010137623436,-0.031362010137623436
442,4.42,-0.6829215568966404,-0.21614436010871207,-0.01867088289483046,0.02102739659697084,-0.03205085099368241,-0.03205085099368241
443,4.43,0.3907460967206627,0.45912013654811273,0.15823495797945586,0.004193403493556296,-0.025707402647314002,-0.025707402647314002
444,4.44,0.7250293515552426,0.08115832883267626,0.1587222122378365,-0.001003450777069775,-0.021981523910638876,-0.021981523910638876
445,4.45,-0.11671047677687052,-1.1622029042423119,0.19316824147128883,-0.0057235829779899465,-0.01695605598475835,-0.01695605598475835
446,4.46,-0.6614105397810817,-1.7484464979284862,0.1126492608656267,-0.01909338352098664,-0.014231297549539718,-0.014231297549539718
447,4.47,-0.022696767270273616,-0.8351140388418647,-0.06830870858199617,-0.022922213666749985,-0.01334460141850671,-0.01334460141850671
448,4.48,0.6147638016205654,0.46135949183989866,0.12094287792172898,-1.4681705919998568e-05,-0.009827249926963674,-0.009827249926963674
449,4.49,0.23811881776932606,0.629384486777473,0.42440395418686533,0.028079222520295224,-0.006069117148176115,-0.006069117148176115
450,4.5,-0.18333896200732347,-0.23216441834796703,0.44043973602876835,0.02683324759381754,-0.00408622787886729,-0.00408622787886729
451,4.51,0.1889660323224947,-0.5729988280715687,-0.11027407008831694,-0.017118935961295066,-0.006457512947579134,-0.006457512947579134
452,4.52,0.6632267458222794,-0.020521844936576383,-0.1401440458192526,-0.044152629511374095,-0.0018904374786950495,-0.0018904374786950495
453,4.53,0.44357245118538347,0.45759114972283566,0.25424403555907615,-0.031666880594919504,0.003502099386695985,0.003502099386695985
454,4.54,-0.027577647930966342,0.0025477062160878666,0.4082275585253665,-0.002523027390367527,0.005712893096469068,0.005712893096469068
455,4.55,-0.049310881625863806,-0.607582733451267,0.3478095740258863,0.014522980980164659,0.011043630319977096,0.011043630319977096
456,4.56,0.2563405379202753,-0.3130309373687543,0.09592290970921466,0.0067474330700191135,0.01719647849475859,0.01719647849475859
457,4.57,0.3452768067406486,0.4499290409490026,-0.2452647417714668,-0.012430214597120091,0.017485935492575284,0.017485935492575284
458,4.58,0.1130467218965136,0.5738060083797012,-0.27153759474845585,-0.021014821440461774,0.01697668157019065,0.01697668157019065
459,4.59,0.01880264588534082,-0.14467778289339317,-0.09101358244703679,-0.017998255265733863,0.017957858119417712,0.017957858119417712
460,4.6,0.16538988507420666,-0.6407439345113874,-0.036714305760230576,-0.017471083238076026,0.01791884843317628,0.01791884843317628
461,4.61,0.21792428679001366,-0.2898273492340909,-0.05860737498231068,-0.01748534450890473,0.01754267700599721,0.01754267700599721
462,4.62,-0.04012078367192806,0.3040165354886546,-0.19689462302915478,-0.01020113016748412,0.018897860904356856,0.018897860904356856
463,4.63,-0.3241722314338341,0.33112292200905785,-0.23656898819142774,-0.004649377148487625,0.020028913086234,0.020028913086234
464,4.64,-0.1893215125268848,-0.13922958051746362,-0.19731511491020282,-0.014431178379719137,0.01975537025609652,0.01975537025609652
465,4.65,0.09031085404976469,-0.41441324036678107,-0.13376964343881992,-0.033750946132577814,0.022698304257386743,0.022698304257386743
466,4.66,0.007999187092640914,-0.11948771379133727,-0.0413469035468112,-0.043263786765425735,0.023048884905620463,0.023048884905620463
467,4.67,-0.29111670764231545,0.3475494775429476,-0.0012007475864438538,-0.030535643152153336,0.0227992399863856,0.0227992399863856
468,4.68,-0.3336580578192353,0.3671969277419024,-0.014444737172058297,-0.009245362473552137,0.0221107977912256,0.0221107977912256
469,4.69,-0.13197451950815997,0.07292485187920911,-0.13430983568827737,-0.00374954976960167,0.021954242817897318,0.021954242817897318
470,4.7,-0.054737089806355,0.03631892903802683,-0.2035160501692053,-0.01935047057165417,0.0220015956869364,0.0220015956869364
471,4.71,-0.2522736492974785,0.4027743077937608,-0.14556343787734594,-0.0383092042840635,0.021703853953298,0.021703853953298
472,4.72,-0.4030079723974177,0.5666899762699189,-0.07165819282297943,-0.03937299869198012,0.019550051619311632,0.019550051619311632
473,4.73,-0.2228497470775101,0.19046122381057423,0.022612018338165202,-0.024893315274224344,0.018391431992831032,0.018391431992831032
474,4.74,0.009427939770830646,-0.2315694309323536,-0.03192449231765909,-0.011807034851069036,0.018554827145813642,0.018554827145813642
475,4.75,-0.0608058046584687,-0.10080598750962269,-0.12917380399951367,-0.01220276381300602,0.01820145374644745,0.01820145374644745
476,4.76,-0.3814251530279992,0.4460251319893339,-0.024774752256448172,-0.02101208950428636,0.01768772806860627,0.01768772806860627
477,4.77,-0.43131749364829164,0.601801762179619,0.08421025583060912,-0.02392486137776324,0.014688739812392203,0.014688739812392203
478,4.78,-0.056570847773877664,0.07792316793702611,0.19200938058501585,-0.022950968106890682,0.013154380665918907,0.013154380665918907
479,4.79,0.33526698114450015,-0.5340248788822004,0.19034175837826273,-0.03130182350491596,0.010923068497365887,0.010923068497365887
480,4.8,0.3059717004630515,-0.4286688271312331,0.11539995966656122,-0.04129761507447261,0.01137026748746097,0.01137026748746097
481,4.81,-0.065960661004615,0.11844322704256374,0.22481921160983592,-0.03515766958927788,0.01116510924878099,0.01116510924878099
482,4.82,-0.16960221048899818,0.32220546615133916,0.273138756270684,-0.01596357968380773,0.010083170830315224,0.010083170830315224
483,4.83,0.4168684735726458,0.04674760437381561,-0.027911596909722003,-0.00013082110854652391,0.012844652865635235,0.012844652865635235
484,4.84,0.5535048351508859,-0.2273023183793049,-0.4107475318405892,-0.0002482177553240492,0.016682329346701687,0.016682329346701687
485,4.85,-0.5499080894801864,-0.1658147523866739,-0.4267477734692082,-0.014524565023073354,0.01807882699614924,0.01807882699614924
486,4.86,-1.1847272147987291,0.1913817854623568,-0.034741973583952646,-0.02222522778665207,0.015217515076245363,0.015217515076245363
487,4.87,0.05130851920846824,0.5999314654671198,0.23470136352047727,-0.009681848331520788,0.010378785378189636,0.010378785378189636
488,4.88,1.323937428373063,0.5364437176851371,0.3291977617937982,0.009536249964737113,0.0124232996237695,0.0124232996237695
489,4.89,0.5933242328431945,-0.132528342997709,0.5001578969291058,0.014046818197246621,0.01608532088513331,0.01608532088513331
490,4.9,-0.6406709085746288,-0.8343899788451978,0.4499093465102356,-0.0103456937335231,0.01740160247661143,0.01740160247661143
491,4.91,-0.2849710880551027,-0.7217798623107673,0.17486561734388564,-0.04276662448864557,0.018544724434893155,0.018544724434893155
492,4.92,0.805156701721706,0.15638571001462429,-0.2366819621457803,-0.041763519624089133,0.019946736467344926,0.019946736467344926
493,4.93,0.7563523118517393,0.6795380437195204,-0.2428069050400053,-0.004926626909734493,0.023224034846650143,0.023224034846650143
494,4.94,-0.1640470771749284,0.21782894098308614,0.14599640979550232,0.02286412885947393,0.025700233581632672,0.025700233581632672
495,4.95,-0.3809894333495255,-0.4794160548799761,0.13846979996740255,0.010910644624863092,0.028210103868280982,0.028210103868280982
496,4.96,0.1879149251138461,-0.3085257484627152,0.1334785649098954,-0.02309452715317677,0.035702145601991815,0.035702145601991815
497,4.97,0.3369476402942155,0.254320086322395,0.26812879258159616,-0.05594636359719475,0.038024546201742615,0.038024546201742615
498,4.98,-0.13232588807256287,0.18701165941755488,0.25705824231994867,-0.0560434621557612,0.039116423567768635,0.039116423567768635
499,4.99,-0.46503617116655005,-0.795497660805245,0.07902531911430088,-0.03526431320344617,0.039236913873451615,0.039236913873451615
500,5.0,-0.21535638554555664,-1.555559855151015,-0.07787997286163645,-0.029539668426022018,0.03768769772236832,0.03768769772236832
501,5.01,0.2849356262716282,-1.0020788435696484,0.02488180162027781,-0.04202272678046928,0.036973249895381255,0.036973249895381255
502,5.02,0.49809363948208485,0.24262130673161753,0.04243962607747584,-0.047478510384909724,0.03628282059856202,0.03628282059856202
503,5.03,0.3594264949478844,0.9988092277634173,-0.023302696982982873,-0.032745966566345534,0.038183055420515935,0.038183055420515935
504,5.04,0.09708577982210907,0.9278557372083995,-0.09919415499456333,-0.008549659100753669,0.03986000694975026,0.03986000694975026
505,5.05,-0.048671160376781875,0.5351190870377355,-0.307892038969087,0.001464120767124285,0.03938876919986818,0.03938876919986818
506,5.06,-0.08668006544837727,0.15116620049358642,-0.33961620534117265,-0.014585330183000766,0.0346248176617769,0.0346248176617769
507,5.07,-0.05950819802214888,-0.14648561221828638,-0.4679141343931642,-0.0399426079600147,0.029980299456158075,0.029980299456158075
508,5.08,0.08322746510139098,0.022378009623421735,-0.5546678103038101,-0.044485275246650864,0.025767125699046357,0.025767125699046357
509,5.09,0.1554142192338049,0.5116005142307208,-0.4745626202334634,-0.017832346131948486,0.01738557177639106,0.01738557177639106
510,5.1,0.18989263047596244,0.5595008736177542,-0.41319208267321367,0.01717932583859357,0.008342321285973562,0.008342321285973562
511,5.11,0.2429765785489277,0.04950109673466513,-0.1934261549791681,0.0364084126811403,0.0004585824239630616,0.0004585824239630616
512,5.12,0.15471817096300153,-0.11718289676294913,-0.04150922173592923,0.030694457218016592,-0.008071750501511566,-0.008071750501511566
513,5.13,-0.15635858299045682,0.45723480241345893,0.05538728444438093,0.01508746195304474,-0.013160238903888205,-0.013160238903888205
514,5.14,-0.5303612319723011,0.8511900477856167,0.1259742042501547,0.017750214825010758,-0.018535532549177176,-0.018535532549177176
515,5.15,-0.47809557252027424,0.18020743849902204,-0.19142495436687867,0.040206054284804345,-0.025147164753089733,-0.025147164753089733
516,5.16,-0.11318426200488713,-0.7805377982763817,-0.3969226021748291,0.05239926600855283,-0.03305728957041628,-0.03305728957041628
517,5.17,-0.10699855835661448,-0.8196779322581245,-0.3070631528878255,0.04414436183791778,-0.045127231249680905,-0.045127231249680905
518,5.18,-0.448866134266952,-0.11218471846273947,0.1925967861973482,0.03500928316879262,-0.05459256063426469,-0.05459256063426469
519,5.19,-0.6843129702626671,0.06948415781350026,0.6645486903364487,0.035268837256694684,-0.05894385453584605,-0.05894385453584605
520,5.2,-0.5805139938735657,-0.6829378208514048,0.4516854741089126,0.03961160289347264,-0.05771564626834639,-0.05771564626834639
521,5.21,-0.453758515393048,-1.444772691022092,-0.03040115262241838,0.031170854973868907,-0.0557864511024756,-0.0557864511024756
522,5.22,-0.4796883560181776,-1.4276169664788898,-0.33902286074404686,0.011357112346997782,-0.06128904456212149,-0.06128904456212149
523,5.23,-0.46657142462234713,-0.7672307306315569,-0.09605426840979964,0.005692888705194764,-0.06806028698422,-0.06806028698422
524,5.24,-0.18516500707603878,-0.13534955693194606,0.38855471575206535,0.026735305528967183,-0.06805687614608083,-0.06805687614608083
525,5.25,0.09606881928901911,0.09221821948149,0.44861833037124066,0.053049335636404994,-0.06268784647679099,-0.06268784647679099
526,5.26,0.017848003008813063,-0.04475782659453553,0.1258553097344187,0.058359773428184464,-0.05682410327001777,-0.05682410327001777
527,5.27,-0.22355315978923146,-0.15283323080817252,-0.19532007305208565,0.038705040806585767,-0.055121243650166366,-0.055121243650166366
528,5.28,-0.17919884925398236,0.15056262128716233,-0.18988976047874423,0.015311511150550697,-0.05503922217863357,-0.05503922217863357
529,5.29,0.1415217752805395,0.6296824807791888,0.15732744509610525,0.01498626540422487,-0.05547464435965439,-0.05547464435965439
530,5.3,0.35413998502563615,0.6683251423936563,0.5005376352132097,0.03862612559611295,-0.0538528778160698,-0.0538528778160698
531,5.31,0.3998632259663212,0.3698992998159235,0.48287036488237656,0.05976066390575562,-0.04667834009020736,-0.04667834009020736
532,5.32,0.582237243038018,0.3117571533419832,0.15930558816934576,0.05471069493522632,-0.04134240909719199,-0.04134240909719199
533,5.33,0.6840764982701397,0.6390305202079061,-0.02157558726848391,0.03175229575450313,-0.04000643405631665,-0.04000643405631665
534,5.34,0.5429806125222447,0.9277675197956432,0.13687347153909052,0.013881350193091991,-0.03838469546850317,-0.03838469546850317
535,5.35,0.4691822116240093,0.8110305874859781,0.4907212340366462,0.013383752372398118,-0.03530657022162647,-0.03530657022162647
536,5.36,0.633311396498838,0.36848699975268456,0.5449447496071697,0.02222368692297901,-0.029266163739700205,-0.029266163739700205
537,5.37,0.7418060822597004,0.055119138843282234,0.2135534472155226,0.024329106990464876,-0.019783443833767702,-0.019783443833767702
538,5.38,0.5229298681737526,0.17843303797187196,-0.19815166426755587,0.01489609190460878,-0.011734912804483522,-0.011734912804483522
539,5.39,0.2600594868545463,0.436422906862561,-0.3936676583126021,0.004109361012148812,-0.010210107012055691,-0.010210107012055691
540,5.4,0.2867693827052213,0.3599852741454601,-0.2858515993758214,-0.0044899609697180536,-0.009726908974677607,-0.009726908974677607
541,5.41,0.4177183525034477,0.06180319853190394,0.007848082368264175,-0.01085954509834986,-0.0073915259082845295,-0.0073915259082845295
542,5.42,0.3394351698080625,0.035966128754469695,0.2567723472379046,-0.015300702174356143,-0.005586659623125008,-0.005586659623125008
543,5.43,0.049035495674930415,0.29720625421652735,0.36278081816994784,-0.014907783241556163,-0.0037962955923474782,-0.0037962955923474782
544,5.44,-0.19187172776813075,0.4374409345469343,0.27168019224125445,-0.015938155408887118,-0.000939839251822689,-0.000939839251822689
545,5.45,-0.040917810606299954,0.22458856846646524,0.015783489147118995,-0.02021791704396457,0.002212713733699867,0.002212713733699867
546,5.46,0.2397490933345228,-0.21383960619451012,-0.16034500785123812,-0.030356647368442336,0.005665623090809503,0.005665623090809503
547,5.47,0.09042666169272692,-0.4418867825785586,-0.23686038604609597,-0.04148370654171707,0.008478932303140445,0.008478932303140445
548,5.48,-0.4362377939981894,-0.29578461259995387,-0.15568527956475617,-0.04391707798445891,0.01249815034079088,0.01249815034079088
549,5.49,-0.696476827509483,-0.07431376347698196,-0.23063894969446802,-0.034345439104043626,0.0176273558397968,0.0176273558397968
550,5.5,-0.5205534851221364,-0.12983310753557276,-0.48954366630931756,-0.023857832968819003,0.02111548593307876,0.02111548593307876
551,5.51,-0.4387695632980948,-0.3226415579983546,-0.6518039110549494,-0.0253509422725295,0.021100142206241228,0.021100142206241228
552,5.52,-0.6353800252702344,-0.27813800880737827,-0.5480243621069157,-0.04101467203011186,0.018738937726684744,0.018738937726684744
553,5.53,-0.654470696244825,-0.17251267078698268,-0.2817979389378841,-0.05482112438552221,0.01554272286153275,0.01554272286153275
554,5.54,-0.3741053568250592,-0.39459396592747653,-0.16300716646554214,-0.057126549588237326,0.014216501808387828,0.014216501808387828
555,5.55,-0.19812950025255557,-0.7321800191796419,-0.2582790171987328,-0.054110310713215766,0.014835418504601022,0.014835418504601022
556,5.56,-0.36555564578665445,-0.6686000070203694,-0.29198311464598037,-0.05029572825512589,0.013127691757306477,0.013127691757306477
557,5.57,-0.5908557628642008,-0.2963303781555803,-0.07358877705085547,-0.05020210798976323,0.0047958112452940295,0.0047958112452940295
558,5.58,-0.3505485350139172,-0.1612793218805835,0.2988907402098141,-0.05100189277613298,-0.0039844628120853645,-0.0039844628120853645
559,5.59,0.17142241913742512,-0.5027586337463945,0.6152171480436691,-0.054836745449277656,-0.008066111766900917,-0.008066111766900917
560,5.6,0.24215763977646385,-0.8470086941524878,0.5774211580809658,-0.06139148682878263,-0.007698525116126008,-0.007698525116126008
561,5.61,-0.10296818310072503,-0.6246938414474511,0.20393928785175675,-0.0645504655323725,-0.0070983395910417125,-0.0070983395910417125
562,5.62,-0.2600775665355618,-0.06650416083731076,-0.29505353305659565,-0.05337333177319832,-0.007361532334471122,-0.007361532334471122
563,5.63,-0.09497094934572406,0.1730697891261318,-0.7001380594667631,-0.032341821411299335,-0.008911137056226533,-0.008911137056226533
564,5.64,-0.09468393613597578,0.055751522583872844,-0.7158637980806255,-0.022858822718981472,-0.011758127217910608,-0.011758127217910608
565,5.65,-0.2616844077470639,0.08882192915585486,-0.5809681500300621,-0.03288057166323943,-0.01130848872608379,-0.01130848872608379
566,5.66,-0.2597450503739782,0.40397844872805566,-0.39258316457431064,-0.04530791223020154,-0.012569107163888909,-0.012569107163888909
567,5.67,-0.16946108719444586,0.4420706368027103,-0.09145092748854255,-0.041192049684235864,-0.015177784585276487,-0.015177784585276487
568,5.68,-0.1265424706442787,-0.1484313892127958,0.349534736476073,-0.025583297004003976,-0.015667622547992126,-0.015667622547992126
569,5.69,0.18708659250675796,-0.7432250151934543,0.5433054615764411,-0.016435407070303037,-0.012626070833436162,-0.012626070833436162
570,5.7,0.69575943628013,-0.4728929345738021,0.16551146261853503,-0.012652341051148036,-0.0039051165525181963,-0.0039051165525181963
571,5.71,0.6009076034594386,0.653465078602218,-0.42096507480326645,-0.0029705346474182067,0.005731103069140175,0.005731103069140175
572,5.72,-0.18362204091072665,1.4586005713752934,-0.6770206623238326,0.021026574981875174,0.010831618683576507,0.010831618683576507
573,5.73,-0.4345988642426855,1.0608790214740802,-0.479904497565329,0.040231477843803536,0.010196780018276595,0.010196780018276595
574,5.74,0.2681340169748056,0.023314930023976776,-0.07290906773190486,0.03611320370182562,0.010863335290221545,0.010863335290221545
575,5.75,0.6914721173735826,-0.40588391896952386,0.3228910068986443,0.014480723463546653,0.016427036241326697,0.016427036241326697
576,5.76,0.2749734742288965,0.14495612888769543,0.7209949549453032,0.009900908822457592,0.021532016182486832,0.021532016182486832
577,5.77,0.1006433437740149,0.8058563502259741,1.0066045299736273,0.03918306303320356,0.019109592120875915,0.019109592120875915
578,5.78,0.7315157231852585,0.6532264681335999,0.9761485335594144,0.07559969449605189,0.017053404745726346,0.017053404745726346
579,5.79,1.022982849702926,-0.0843531499130078,0.9019516446322802,0.08499489055824598,0.020638191786930125,0.020638191786930125
580,5.8,0.2666769228838124,-0.49245047675838155,0.9928542882372218,0.06343676825554195,0.0239536860788948,0.0239536860788948
581,5.81,-0.3264114932888984,-0.2779760344618716,1.0483104089366306,0.03037732800291344,0.024500114103735645,0.024500114103735645
582,5.82,0.2770276532973858,0.02803070883440617,0.8537700398123623,0.020425161526642033,0.021621447452275882,0.021621447452275882
583,5.83,0.9984589889276354,-0.1403206532682929,0.5936090323086205,0.04399661043220583,0.02132964354929144,0.02132964354929144
584,5.84,0.6267386743146173,-0.5245560168709817,0.5779711733411752,0.07490168728558247,0.02060701572352121,0.02060701572352121
585,5.85,-0.0208662318353387,-0.5172505963742986,0.5546487832421919,0.08580822717956095,0.021930211939659626,0.021930211939659626
586,5.86,0.09772754843103863,-0.015056679674957718,0.29075811824493397,0.07408532567306628,0.02301599910167671,0.02301599910167671
587,5.87,0.3768668332110367,0.40799464749873116,-0.15479224318709994,0.05829257264784338,0.024666366523742864,0.024666366523742864
588,5.88,-0.0423335162186928,0.4607981363137641,-0.3348440883020447,0.0537948024003762,0.024989083972846705,0.024989083972846705
589,5.89,-0.4892857402407067,0.3079836708430629,-0.3683622293328528,0.06414116959145412,0.02209014811228598,0.02209014811228598
590,5.9,-0.167646545740878,0.17138049749558712,-0.47125962059445475,0.07838757911078087,0.01869041278710877,0.01869041278710877
591,5.91,0.17436251971861028,0.23237354868066895,-0.6153021626693956,0.08149208327598911,0.01641521442183113,0.01641521442183113
592,5.92,-0.2045874594196997,0.5236922509754621,-0.612994009094205,0.07211884805547257,0.016351985270168456,0.016351985270168456
593,5.93,-0.673761118127094,0.7864049967231476,-0.5346685788493792,0.060721372268952925,0.014310291230479246,0.014310291230479246
594,5.94,-0.518568957551444,0.5879376856201971,-0.6059637405392178,0.05490578120036321,0.011736778619563444,0.011736778619563444
595,5.95,-0.16313675525463603,-0.07543234495173118,-0.7850800599817489,0.04607028125442709,0.014163547764051073,0.014163547764051073
596,5.96,-0.20686938553243903,-0.5703068969810711,-0.8717880433676352,0.034225325979529216,0.014475793968907712,0.014475793968907712
597,5.97,-0.4394567424226392,-0.24775727828836208,-0.9030619211573974,0.02306033267633858,0.010096881038734956,0.010096881038734956
598,5.98,-0.48576545344224675,0.4873424943798032,-0.8288791672160818,0.024173717654445884,0.0071125535580337015,0.0071125535580337015
599,5.99,-0.4098290953405937,0.5457820560393394,-0.828068127743313,0.033978917453965043,0.007045448232902965,0.007045448232902965
600,6.0,-0.3325453070296861,-0.2631156506274583,-1.1275458937845888,0.03961342173111405,0.01181946604491253,0.01181946604491253
601,6.01,-0.4088255430296835,-0.8834539227019192,-0.8050641158540438,0.004394809170197293,0.010635096098272763,0.010635096098272763
602,6.02,-0.51173848359781,-0.5016147384030422,-0.3438925274495211,-0.03182582997616705,0.005623404590262763,0.005623404590262763
603,6.03,-0.4665592583759139,0.3354065491517916,-0.10827403032345204,-0.024250376381630072,0.002376089407466237,0.002376089407466237
604,6.04,-0.2343225556770719,0.39105907272577567,0.09245062816176247,0.002565636797453761,8.212817343938015e-05,8.212817343938015e-05
605,6.05,-0.0327694821614065,-0.3680213687149902,0.048489986531005114,0.014166240164925426,0.0005482706699440216,0.0005482706699440216
606,6.06,-0.08811229542866839,-0.7606168848498713,-0.06891882303247268,-0.005272274338259266,0.0032945026335770298,0.0032945026335770298
607,6.07,-0.25473776641854334,-0.28347751649141545,-0.09327726992570362,-0.040947407971522375,0.004279956432158993,0.004279956432158993
608,6.08,-0.24758115723431198,0.1912084848605175,0.049194542975841415,-0.05482854845844719,0.006286245331977311,0.006286245331977311
609,6.09,-0.010408346294668386,-0.11498289954790014,0.2387205142419409,-0.03764591502938247,0.006421797862728487,0.006421797862728487
610,6.1,0.16472734534639275,-0.742042667079877,0.34074461848765825,-0.016978252283203897,0.004839094206009803,0.004839094206009803
611,6.11,0.10371990219345534,-0.856843529707288,0.40577659543218514,-0.018082060838936227,0.002214035686479943,0.002214035686479943
612,6.12,0.10024571037418856,-0.3327508035368682,0.5032916350802601,-0.03615307128392237,0.0014261878188148547,0.0014261878188148547
613,6.13,0.26741588840965386,0.07380867289772103,0.5984988257285329,-0.04857507046076186,0.0006889687143324272,0.0006889687143324272
614,6.14,0.3222572022231658,-0.14487821375053683,0.7272471666231779,-0.04658817034707195,-0.0009403213378916408,-0.0009403213378916408
615,6.15,0.21152150008939236,-0.6182315311353697,0.8184402758206,-0.038533252531503775,-0.0016244120009019794,-0.0016244120009019794
616,6.16,0.24396321788843522,-0.6894207492943948,0.7901935265594927,-0.039637531876735056,-0.0028866839737025428,-0.0028866839737025428
617,6.17,0.4417998286328612,-0.29146007269570323,0.7541458837941558,-0.04284375711987316,-0.005038323623461818,-0.005038323623461818
618,6.18,0.4926970649020888,0.08899148078987074,0.7873726008581415,-0.0393681190037605,-0.006082026650280296,-0.006082026650280296
619,6.19,0.40695277769419713,0.09714149712650627,0.8078522655556736,-0.036686974154033936,-0.006156761105639981,-0.006156761105639981
620,6.2,0.38547463020108286,-0.14811855664886092,0.666212231223368,-0.039542509531831284,-0.005860364598844231,-0.005860364598844231
621,6.21,0.38450561850937987,-0.2862511299474715,0.43290241556222814,-0.047205264522055417,-0.007235109384870447,-0.007235109384870447
622,6.22,0.2545304838095218,-0.21523091407512568,0.28961211312818314,-0.05056808615647829,-0.009515050832468732,-0.009515050832468732
623,6.23,0.1204925656230987,-0.06277778158635156,0.23514231920879736,-0.04554305899707473,-0.008481302380773945,-0.008481302380773945
624,6.24,0.14543034395047422,0.059251181211782133,0.16687867619944166,-0.03403529249341488,-0.007621014531365575,-0.007621014531365575
625,6.25,0.1508504997264296,0.20126124511282728,0.040413935050217745,-0.021927189262733897,-0.00795633907950069,-0.00795633907950069
626,6.26,0.035010073323676505,0.3423783515288558,-0.12490919378929016,-0.01858111942633581,-0.008553447386812794,-0.008553447386812794
627,6.27,0.0007873682939860682,0.43245427413036885,-0.1742353452190391,-0.021200443798327712,-0.010576558679572776,-0.010576558679572776
628,6.28,0.08910032393467657,0.44922864271199753,-0.17953434818700037,-0.02236128360733157,-0.011352781767149106,-0.011352781767149106
629,6.29,0.0304286409453271,0.4306641022174593,-0.1624586898133039,-0.01826449646834953,-0.009206709958485552,-0.009206709958485552
630,6.3,-0.1317108229576489,0.4899206189016442,-0.23042136376757616,-0.008491875937728561,-0.008881391404671509,-0.008881391404671509
631,6.31,-0.1756250477097259,0.547637625126032,-0.33804543114023833,0.0005101684557299348,-0.010747336456121423,-0.010747336456121423
632,6.32,-0.05704256473672449,0.4777118281628834,-0.36506761734298154,0.005052050565941837,-0.013751389753609785,-0.013751389753609785
633,6.33,0.06044502260306624,0.36450604577478024,-0.2507870835053598,0.0021031604968691072,-0.01433502342113075,-0.01433502342113075
634,6.34,0.1246690512513193,0.33262400025529326,-0.21952029192543002,-0.006346599037612164,-0.014302147391403178,-0.014302147391403178
635,6.35,0.04571071862353829,0.31709601330978515,-0.30822666645254126,-0.00785732740586176,-0.01366926895577636,-0.01366926895577636
636,6.36,-0.14070983430446765,0.2350731121667531,-0.5076879319775747,-0.00019088208045458038,-0.012377799031102204,-0.012377799031102204
637,6.37,-0.2641441277452752,0.17255614910698647,-0.5224415000024407,0.008909337344465055,-0.01324944265380576,-0.01324944265380576
638,6.38,-0.18339833915677584,0.20284097729437345,-0.38849560070825845,0.014564536914845973,-0.014563985324031166,-0.014563985324031166
639,6.39,-0.027501328399400296,0.3146553029673318,-0.2614528716907467,0.011906517953010256,-0.013993370267685677,-0.013993370267685677
640,6.4,0.02217348309450337,0.40786227102223704,-0.2919915125893159,0.00849311804787742,-0.01125607261623058,-0.01125607261623058
641,6.41,-0.16631449198608766,0.32995026063161986,-0.41243717523600454,0.010810332092020704,-0.009664577495081986,-0.009664577495081986
642,6.42,-0.3693099865800866,0.13765754212793266,-0.5009793289360954,0.014751079033866068,-0.008860207394168472,-0.008860207394168472
643,6.43,-0.30717312929272345,0.11130584978786934,-0.42806367273199486,0.017372536516073043,-0.00940661020305444,-0.00940661020305444
644,6.44,-0.07204780074242179,0.21873298737024294,-0.3044910480971531,0.01901112888518345,-0.008304129696238824,-0.008304129696238824
645,6.45,-0.0718428976941988,0.19949022286555781,-0.24432617781550575,0.021505005650808918,-0.005553826481624889,-0.005553826481624889
646,6.46,-0.26555103449326595,0.011148824086200187,-0.22965850549475506,0.020009268916983076,-0.004124051701518952,-0.004124051701518952
647,6.47,-0.19554157531123895,-0.0313356373292331,-0.20711818711751134,0.017231385008793582,-0.005681078474656285,-0.005681078474656285
648,6.48,0.06565728937863691,0.09164007302345017,-0.10397471421740537,0.018692958735633224,-0.007036199385768911,-0.007036199385768911
649,6.49,0.08042040721492431,0.07510204327742692,0.08309074938226092,0.023226073935587285,-0.005644607921145628,-0.005644607921145628
650,6.5,-0.19162951955046414,-0.12070896130894504,0.22478669442802346,0.026681973716382118,-0.003104735725490572,-0.003104735725490572
651,6.51,-0.27342251781454274,-0.22923420433375763,0.18916203293006323,0.023111795776242783,-0.0031010036638868155,-0.0031010036638868155
652,6.52,-0.017577524186260837,-0.21613568919091686,0.11059640030137591,0.019236516335040883,-0.003172755468475563,-0.003172755468475563
653,6.53,0.1419011622149669,-0.2712608570405797,0.1267580722283964,0.016905907894222562,-0.0015117151552745392,-0.0015117151552745392
654,6.54,0.023806664241196707,-0.44832220605650047,0.2588395273352879,0.018084213781483963,0.0008272897333992425,0.0008272897333992425
655,6.55,-0.07532220844229369,-0.5832398992526873,0.3109773826803908,0.01868785988392702,0.0021716347999758325,0.0021716347999758325
656,6.56,0.011159514560676185,-0.5296972840806312,0.17594292753170893,0.016433392446108204,0.0024945548070264287,0.0024945548070264287
657,6.57,0.05119761823933197,-0.42524432322467975,0.06770947764405727,0.016676616804715504,0.005898520758195717,0.005898520758195717
658,6.58,-0.01961970268048708,-0.4588184740459157,0.09200520848095611,0.01546341577962325,0.0070247788395893145,0.0070247788395893145
659,6.59,-0.05782888893342948,-0.5079851692676826,0.19914654748948435,0.012272599786743249,0.0073738783910199685,0.0073738783910199685
660,6.6,-0.0029499082301789187,-0.49458695687791254,0.2549099224160279,0.010918489227600286,0.00985880545543738,0.00985880545543738
661,6.61,0.07470683590846941,-0.4052289164009202,0.19527134509262362,0.012067700898891006,0.0128049764982178,0.0128049764982178
662,6.62,0.10216761059550894,-0.32190444717570593,0.2205419876467911,0.015555240047908718,0.013250304398278016,0.013250304398278016
663,6.63,0.10338489435753409,-0.3360627113810235,0.2620900820716145,0.018229506965390677,0.01279130779238574,0.01279130779238574
664,6.64,0.12416906425498975,-0.310003236081304,0.3180067222576253,0.0155613756259625,0.013500217998695446,0.013500217998695446
665,6.65,0.1581315426783847,-0.18696016263264006,0.2610034324250766,0.011118824981657132,0.01464612335861007,0.01464612335861007
666,6.66,0.13710946513003675,-0.051259580839403324,0.15445803091953633,0.009192402095926295,0.01630576677841478,0.01630576677841478
667,6.67,0.06583405311855806,-0.08653327953344031,0.13814009537120603,0.00941609130105613,0.016248589711087922,0.016248589711087922
668,6.68,0.06952533405030972,-0.22772084008363536,0.200420746528229,0.0077049424542167564,0.0151334596723671,0.0151334596723671
669,6.69,0.1550124417946522,-0.3028720642548598,0.2905420150745013,0.0009999472607140477,0.015346319100066409,0.015346319100066409
670,6.7,0.1823036504493649,-0.24815450867292305,0.24677795866549254,-0.0044992837214281245,0.016007916813412126,0.016007916813412126
671,6.71,0.14832120676281546,-0.10230476312215345,0.09782849788356338,-0.004171150908076759,0.014928337208267122,0.014928337208267122
672,6.72,0.10125743124888967,0.058528201736034124,0.016364123148781988,-0.0019374630576824137,0.01345215345190308,0.01345215345190308
673,6.73,0.08004951035684399,0.10088683858150535,-0.060474895158254674,0.0007674670466583947,0.011407344186396636,0.011407344186396636
674,6.74,0.07703658860027804,0.06936767310687086,-0.053393432230499166,-0.0003596674805596248,0.011809052308389172,0.011809052308389172
675,6.75,0.027583836311468372,0.06463208945926838,-0.1121819183772077,-0.00592400570421261,0.012564422258818129,0.012564422258818129
676,6.76,-0.022985006407734494,0.14887122340856826,-0.19019130918752913,-0.012529495890970991,0.009375184030840762,0.009375184030840762
677,6.77,-0.034676780521736464,0.33745847147987523,-0.1235632012040279,-0.012396220686814495,0.008939415293233366,0.008939415293233366
678,6.78,-0.010459225254904128,0.43366652279378054,-0.06109454704329882,-0.002464910269883696,0.008113287828942542,0.008113287828942542
679,6.79,0.02076371291719427,0.3908534489047313,0.045960932657550455,0.004940057407632672,0.007711568058707545,0.007711568058707545
680,6.8,-0.0028924897082270792,0.3632915448230441,-0.02351180170169051,0.0038177463643842384,0.0072361464104997815,0.0072361464104997815
681,6.81,-0.0884219921780924,0.528561350558099,-0.18205782315446378,-0.003850509878440713,0.0065168534375245925,0.0065168534375245925
682,6.82,-0.21202870168208227,0.7016937022356602,-0.18593402547726523,-0.0072973221421746785,0.004179822282205519,0.004179822282205519
683,6.83,-0.20281485678471062,0.6252405538259052,-0.08182894711329233,-0.0021340092902233736,0.0016710539271120027,0.0016710539271120027
684,6.84,-0.017188240574206426,0.45038239903911453,-0.02276108656193848,0.0031869927656199798,0.0019805531236053095,0.0019805531236053095
685,6.85,0.01861186783384372,0.3597236055073024,-0.043374763277481465,0.0018735210213067235,0.003346197434660792,0.003346197434660792
686,6.86,-0.1549091522572515,0.38629502914489333,-0.13655617467661516,-0.004430972597768373,0.002392528980079296,0.002392528980079296
687,6.87,-0.16571568205639603,0.3340124315502848,-0.16522482850942583,-0.011728991284642012,0.0010514489451895798,0.0010514489451895798
688,6.88,0.0653311512994778,0.16026704261855246,-0.163209677944715,-0.01339488986655162,-0.000583094133812267,-0.000583094133812267
689,6.89,0.09986031148518283,-0.02584069323391039,-0.07778309663644023,-0.011554023831243859,-0.0013229192278017693,-0.0013229192278017693
690,6.9,-0.12069992592811543,-0.07919825613307044,-0.04983618391769795,-0.013362119682921772,-0.002243769802580811,-0.002243769802580811
691,6.91,-0.22594829360540697,0.06545899753851298,-0.05952863907136555,-0.012587806405367084,-0.001840944753199768,-0.001840944753199768
692,6.92,0.0007399572914734837,0.21217015083373042,-0.1807401591021332,-0.010854579716987276,-0.00256401959826804,-0.00256401959826804
693,6.93,0.17155424803717934,0.14183411697201062,-0.17117837860742519,-0.011162171087353866,-0.0023459041909196336,-0.0023459041909196336
694,6.94,0.03748388879402727,-0.12224052841572391,-0.06766317674613381,-0.013503681878875472,-0.002770949881666644,-0.002770949881666644
695,6.95,-0.0859229157825034,-0.19192687059787744,-0.02272026384292311,-0.017268674680747942,-0.002274512603613789,-0.002274512603613789
696,6.96,0.06225067906280713,0.01144842011059563,-0.0877632909434991,-0.015302239932375316,-0.0018425287087169122,-0.0018425287087169122
697,6.97,0.15400809550608818,0.14657489025356485,-0.15043078770799329,-0.005831694998167208,-0.003124007008064907,-0.003124007008064907
698,6.98,-0.02489591922426397,0.02383388093543168,-0.09393577009296784,0.003399347409773267,-0.003800935511292568,-0.003800935511292568
699,6.99,-0.12223100363607581,-0.14491284353530204,-0.02147282870815441,0.0035582165352083146,-0.003112904732616085,-0.003112904732616085
700,7.0,0.08641109088910262,-0.07925256817307766,-0.07312893237791138,-0.004284473841918468,-0.0010039961915616394,-0.0010039961915616394
701,7.01,0.10971090254231768,0.11257316439316384,-0.09211172475239443,-0.007906942725748394,0.0012793083719498913,0.0012793083719498913
702,7.02,-0.07125558685802888,-0.0065756403472013725,-0.03215090531921569,-0.000474717672709072,-0.0002675883137736022,-0.0002675883137736022
703,7.03,-0.04124840285646858,-0.3792641447433528,0.03806156575261843,0.006523515787704601,-0.001760545729855245,-0.001760545729855245
704,7.04,0.14131387124422917,-0.49342958234129836,0.07257408951603309,0.008171995891962283,-0.0020517243073714174,-0.0020517243073714174
705,7.05,0.11747668649340999,-0.2097166436114924,0.054590496001725886,0.005296020933643053,-0.00023033245906905507,-0.00023033245906905507
706,7.06,-0.09482839184248491,0.012455926966170872,0.08050373090477522,0.007007769401118056,0.0006776041456181128,0.0006776041456181128
707,7.07,-0.10964304714585303,-0.17242633782607297,0.0937491702751084,0.010281451526487923,-0.0002761505445651793,-0.0002761505445651793
708,7.08,0.11421240288438428,-0.4587346129197112,0.07450839019996873,0.008421583830651834,-0.0013037208753030648,-0.0013037208753030648
709,7.09,0.17066944789502048,-0.49236949880466585,0.09611746939090092,0.0016069528117206352,-0.0006876544883788829,-0.0006876544883788829
710,7.1,-0.027166489831481566,-0.32329237435229546,0.13444209576331254,-0.001313745547877049,-0.00042185507734929175,-0.00042185507734929175
711,7.11,-0.12894143085747256,-0.22731711259402576,0.11933398071532791,0.002688014716203989,0.00032340951775506347,0.00032340951775506347
712,7.12,0.0199981502829475,-0.28089146814847976,0.06751438926466882,0.007281908283039866,0.0006453982235214129,0.0006453982235214129
713,7.13,0.09403358602693579,-0.3106997700627495,0.06711591503936976,0.00766542324180245,0.0005108838273417968,0.0005108838273417968
714,7.14,-0.0555126690785161,-0.28459768056258156,0.1809545221427804,0.0029102298869377236,-0.0014014411905619367,-0.0014014411905619367
715,7.15,-0.08269911464397067,-0.16930477739548977,0.18883198938274343,-0.002945430150135424,-0.0014980644185247007,-0.0014980644185247007
716,7.16,0.04316065268817991,-0.07170439402637745,0.11710285241418641,-0.002696239484183925,-0.0013123688881597252,-0.0013123688881597252
717,7.17,0.06097655265135677,-0.03879413554991586,-0.0007797753700459209,0.002929271064142638,-0.0022883541762163465,-0.0022883541762163465
718,7.18,-0.04704507088100109,-0.031381789929476094,0.02362452309694294,0.008260906377515836,-0.0012969557702700732,-0.0012969557702700732
719,7.19,-0.10164807090972186,-0.02804322918276212,0.04671010897925932,0.008961475761059174,-0.0004519137370246189,-0.0004519137370246189
720,7.2,-0.11537040095102541,-0.04428538664594653,0.017295198285269847,0.0029865261400972482,-0.0001415914003880121,-0.0001415914003880121
721,7.21,-0.13787685677325326,-0.08839252662861366,-0.051750697822642265,-0.004578577636512845,-0.0006162852228028809,-0.0006162852228028809
722,7.22,-0.055326801485123304,0.012787679723467678,-0.11306689576822296,-0.00311177011607522,0.0006628295385197626,0.0006628295385197626
723,7.23,0.04708460165268748,0.1862456072501084,-0.033021849201374825,0.005252626648783457,0.0012282866406262375,0.0012282866406262375
724,7.24,-0.08456983491578356,0.1307294639691445,0.08623134654506547,0.010482473959715296,0.0015958481415514715,0.0015958481415514715
725,7.25,-0.23638903922064516,-0.04298571092672174,0.05982926670900672,0.006700741433756924,0.00076577855099545,0.00076577855099545
726,7.26,-0.12054446548073265,0.1104893172824228,-0.03156270248592352,-0.0009650506006716114,0.00020840829380447984,0.00020840829380447984
727,7.27,0.07541725383467532,0.4155441375310418,-0.11603133702352941,-0.00344808821455905,-0.00025230185859866793,-0.00025230185859866793
728,7.28,-0.007590942668436448,0.31142818628355673,0.04738310112344086,0.0019622550964891613,0.0005586049689860177,0.0005586049689860177
729,7.29,-0.1575795205785746,0.0016873261519039229,0.181523722909409,0.007603842120805291,-0.0012523621571179776,-0.0012523621571179776
730,7.3,0.006502948320121028,0.10154394230317694,0.08462525785608162,0.0038882277500323454,-0.002400696382304257,-0.002400696382304257
731,7.31,0.24308854123084916,0.48586578775664035,-0.034534387547521514,0.0006849133443672389,-0.0019482761262975992,-0.0019482761262975992
732,7.32,0.15647549808255218,0.5155036313575888,-0.06211438014038159,0.0028856406540182797,-0.003496086615282905,-0.003496086615282905
733,7.33,-0.03262486019207732,0.09240884628242912,0.023472768363863722,0.00030473513434361223,-0.0056498413703379435,-0.0056498413703379435
734,7.34,0.062338812500257766,-0.21778195196651717,0.0697799223423278,-0.011174805637498687,-0.006986837868089408,-0.006986837868089408
735,7.35,0.22850710405575383,-0.05086853061662586,-0.06497163478107604,-0.01882490624237504,-0.005037893647864285,-0.005037893647864285
736,7.36,0.17615830281957662,0.30366214982753426,-0.1506945278070949,-0.01280647437619141,-0.003649756835716813,-0.003649756835716813
737,7.37,0.07358098790949938,0.36087957251729863,-0.1476548681474808,-0.0003031587088729625,-0.0036465527212127726,-0.0036465527212127726
738,7.38,0.08653859941969488,0.10601159773250689,-0.05713741082060516,0.0020038295842506625,-0.0040394165628563315,-0.0040394165628563315
739,7.39,0.1162004773572019,-0.17788808674418122,0.02750158937483803,-0.011315228642354245,-0.006783829436660201,-0.006783829436660201
740,7.4,0.04982776722411447,-0.09467825875885769,-0.034574539571991095,-0.026973753890282427,-0.00514413718343121,-0.00514413718343121
741,7.41,0.009382249702064117,0.21769948674167802,-0.15345481261840974,-0.02579588841778719,-0.004196026245106886,-0.004196026245106886
742,7.42,-0.009261519810130778,0.2776105749753225,-0.17262448033740108,-0.008790931943824288,-0.005203907797505672,-0.005203907797505672
743,7.43,-0.04915943878049805,0.047862510979986686,-0.09085888466652148,0.005181918087139415,-0.006163123501474971,-0.006163123501474971
744,7.44,0.02529830725338158,-0.11694051582051224,0.03159593622067683,0.0016045515198644467,-0.004971836803438358,-0.004971836803438358
745,7.45,0.08795825028874574,-0.010074749101461208,0.06767007869611427,-0.014596202764266538,-0.005612821222894053,-0.005612821222894053
746,7.46,0.012401984862027569,0.13567321125866902,-0.005897562020558193,-0.0233363094876238,-0.0034976628564414376,-0.0034976628564414376
747,7.47,-0.0859397657350926,0.08864102222558572,-0.007967175018142515,-0.0194042977679639,-0.0016965056810368194,-0.0016965056810368194
748,7.48,-0.09053900325857261,-0.08937335127102591,-0.003951449468251839,-0.005353516696921515,-0.0031481840793941983,-0.0031481840793941983
749,7.49,0.016897979550178584,-0.18372663433916053,0.03713168152575566,0.005869235077083467,-0.0016999238100814226,-0.0016999238100814226
750,7.5,0.025420165745284898,-0.10188959705701807,0.07136662916245685,0.003216161776499031,-0.00029402407563473035,-0.00029402407563473035
751,7.51,-0.0674475544166546,0.07946010826345246,-0.0003752848194538711,-0.0035065575424459827,0.0004122433219300554,0.0004122433219300554
752,7.52,-0.058613456085314465,0.0718952840072692,-0.008132461256241274,-0.006444028090903889,-0.0010140756877557123,-0.0010140756877557123
753,7.53,0.026281783464863907,-0.1417675833594338,0.010464486483800498,-0.00633755315202069,-0.0030862627824124506,-0.0030862627824124506
754,7.54,0.007761395349645289,-0.341559441794318,0.037391537782239116,-0.00015779095403715884,-0.0015422159924870116,-0.0015422159924870116
755,7.55,-0.047241266149434774,-0.2707854849458317,0.06510651444664382,0.0055659115402322745,-0.0012819477876752571,-0.0012819477876752571
756,7.56,-0.04652679375838586,-0.01083102477253585,-0.024542235490912317,0.007524971633580338,0.00035018200562499926,0.00035018200562499926
757,7.57,-0.009001260530420496,0.07503388563900187,-0.06522988061452215,0.008999414516030065,0.0014215691716942915,0.0014215691716942915
758,7.58,0.0067594051174171485,-0.10681689994203403,-0.004159356833369307,0.006702383357600796,-0.0001458225294973625,-0.0001458225294973625
759,7.59,-0.010528350036527974,-0.3752887397616894,0.0845609218901902,7.162073510492625e-06,0.0015253878656366114,0.0015253878656366114
760,7.6,-0.01920562849721183,-0.38472333271285175,0.06294993107124228,-0.005383838243948086,0.0012711130943503508,0.0012711130943503508
761,7.61,-0.05410545338390558,-0.11950990207755419,-0.01141809177844251,-0.0005403156719642971,0.0009654821055732984,0.0009654821055732984
762,7.62,-0.060582639173303185,0.08289812829681739,-0.09122391722102274,0.011713396544738451,-0.0007418310113179356,-0.0007418310113179356
763,7.63,-0.06400745281572132,-0.014891355519819051,-0.0259703289708828,0.017637207013337337,-0.0004274469782712871,-0.0004274469782712871
764,7.64,-0.05130589508616381,-0.21020189659538918,0.07953270913690214,0.009771655724348384,0.00018633599639813765,0.00018633599639813765
765,7.65,-0.013372779728830726,-0.15376239237800565,0.08429523185324886,-0.003547774630814242,-0.0006161637936066513,-0.0006161637936066513
766,7.66,-0.014388827223610564,0.05505217047786572,0.02245400333113539,-0.008987906923403547,0.0008165755818065787,0.0008165755818065787
767,7.67,-0.06565696234714871,0.11769412860721992,-0.028858713167858874,0.0002356226332136148,-0.0018991043962559664,-0.0018991043962559664
768,7.68,-0.08922295332568703,-0.03859184855916897,-0.05181225144139019,0.014224928962602771,-0.0019333158537676977,-0.0019333158537676977
769,7.69,-0.02702899045879128,-0.1349578066146796,-0.004767737266805554,0.015699449032707785,0.0008141934467365491,0.0008141934467365491
770,7.7,0.00040426797245021046,-0.0027183294923741053,0.01347940127637,0.00413309091117926,-0.002167967020343777,-0.002167967020343777
771,7.71,-0.0380929261661713,0.21194033314619917,-0.024425684902744202,-0.006416687192722396,-0.0034809539936514174,-0.0034809539936514174
772,7.72,-0.06684480329826675,0.24670690997191552,-0.030439436480313373,-0.004189999712757018,-0.0012945768411321795,-0.0012945768411321795
773,7.73,-0.04228102680929419,0.10188552602496898,-0.04031441680500092,0.00487915474574714,-0.0016238732109052686,-0.0016238732109052686
774,7.74,-0.010973146329307383,-0.01308722681994691,-0.01962804867771638,0.01005988626531973,-0.001636684590879677,-0.001636684590879677
775,7.75,-0.03651392012943307,0.024864958828160033,-0.0011629766494303945,0.008531549861668477,-0.0005227146656135961,-0.0005227146656135961
776,7.76,-0.062164393614907325,0.19915401980717684,-0.04319993895270434,0.001020460160441366,-0.002521364847216687,-0.002521364847216687
777,7.77,-0.030288204866715608,0.2881537097612386,-0.016380829646644383,-0.0010791337811392322,-0.0039004977913771033,-0.0039004977913771033
778,7.78,0.03392882046116324,0.2536307558481211,0.019164503921769854,0.0031006578078246177,-0.0027130703798438965,-0.0027130703798438965
779,7.79,0.038000404340156106,0.12577178038478418,0.0926087824768101,0.006143129719384477,-0.0017406821999567225,-0.0017406821999567225
780,7.8,0.0007315561626772826,-0.008046527389186653,0.05953371206823963,0.0054482295355274,-0.002279638766238081,-0.002279638766238081
781,7.81,0.03258685661241581,-0.015601407319768439,-0.030182175644688718,0.0014961157223725178,-0.0016778197021987907,-0.0016778197021987907
782,7.82,0.08316934781304157,0.16194636215183222,-0.027102027643385727,-0.004114355800789961,-0.0006524392966088707,-0.0006524392966088707
783,7.83,0.038762235101258,0.2484260208409616,0.06762701600367585,-0.002486812828932535,-0.002426078103849358,-0.002426078103849358
784,7.84,0.06887655308519364,-0.04934132410858292,0.13721037658738486,-0.00031786577499575287,-0.002993872170747105,-0.002993872170747105
785,7.85,0.15644074425768928,-0.3044849674224509,0.09197166582032015,-0.005029814246679677,-0.003202825331872633,-0.003202825331872633
786,7.86,0.13521820127018622,-0.1518221801514114,-0.05489551009908458,-0.011632883459418477,-0.0022703004045162073,-0.0022703004045162073
787,7.87,0.0420523344086805,0.15263319216255297,-0.05942229476814666,-0.011459024569848965,-0.0031673559035165872,-0.0031673559035165872
788,7.88,0.02315639043457845,0.0763487631377608,-0.02394914791054127,-0.005005001019422003,-0.004826806440415835,-0.004826806440415835
789,7.89,0.09040803794395359,-0.22425806647024746,0.05366902772675387,-0.0027706114558274397,-0.004805058740721332,-0.004805058740721332
790,7.9,0.13997718992360947,-0.2440298212434694,0.052705011633562955,-0.00993272249120487,-0.004651734988527593,-0.004651734988527593
791,7.91,0.085731088647227,0.002490172050590475,0.0005543939962677161,-0.01630809732929071,-0.005495130626137315,-0.005495130626137315
792,7.92,0.04610470040623765,0.10861528464544855,-0.026899203224789028,-0.0142655786180316,-0.0052795731421008225,-0.0052795731421008225
793,7.93,0.03067449456595806,-0.03715377198928402,-0.05127726674699565,-0.0077005562625541285,-0.005649304137493236,-0.005649304137493236
794,7.94,0.02398217598552114,-0.2147030089487977,-0.024602155873093813,-0.003940904197805227,-0.0041990214359612045,-0.0041990214359612045
795,7.95,0.03848610706301498,-0.171138110139527,0.02925080721773992,-0.00682503519092213,-0.0022950959038125964,-0.0022950959038125964
796,7.96,0.07490725635901274,0.05069038773670177,-0.030142322727719908,-0.010402033665230702,-0.0038105398058153866,-0.0038105398058153866
797,7.97,0.032289771668317785,0.11117487489957939,-0.02387349082198568,-0.008725147328401864,-0.0031112439009706137,-0.0031112439009706137
798,7.98,-0.07784684581525908,-0.023072666489113387,-0.010302519601467155,-0.004304967385634698,-0.002682138386228679,-0.002682138386228679
799,7.99,-0.05464869555610958,-0.13933514321497042,0.0006520002769326398,-0.0016723280338656224,-0.0032029994169887983,-0.0032029994169887983
800,8.0,0.02215757955296347,-0.08007774983980107,-0.0151764848054338,-0.0035616943577720032,-0.002663471203809957,-0.002663471203809957
801,8.01,-0.0203370685626182,0.02667811068921422,-0.03343000461331276,-0.0063544527883310975,-0.002102256578552788,-0.002102256578552788
802,8.02,-0.0688820796827786,0.02606643808324685,-0.01161266526879402,-0.005302845779267129,-0.0023232189409576197,-0.0023232189409576197
803,8.03,-0.054890516960462814,-0.025031425084846484,0.02858510901352154,-0.003922309073034221,-0.002466376000276469,-0.002466376000276469
804,8.04,0.010781866064613663,-0.08703000778755172,-0.020105960762962567,-0.003189031734356388,-0.00034545653457530515,-0.00034545653457530515
805,8.05,-0.001586402119980762,-0.10130131244459069,-0.07134735789768767,-0.004595838183635956,0.0012425138605641607,0.0012425138605641607
806,8.06,-0.10866414222557225,-0.08004956835459222,-0.13406363283781256,-0.006508380060559804,0.00017510424651052004,0.00017510424651052004
807,8.07,-0.14254603141637703,-0.0032536165542647877,-0.090932532474576,-0.006857524931818368,-0.000832196761136012,-0.000832196761136012
808,8.08,-0.04595226021828181,0.028853218708295793,0.018902279129586058,-0.004932477414130247,-7.865633211324366e-05,-7.865633211324366e-05
809,8.09,0.05209592892200017,0.014379441724068708,0.04358996011137721,-0.002126202373485632,0.002036159558230886,0.002036159558230886
810,8.1,-0.0010414503244030454,0.038854691067977135,-0.0001308299251088496,4.8935337789414446e-05,0.0005459520874522223,0.0005459520874522223
811,8.11,-0.1583851690131222,0.1021494163570926,-0.06713797272971599,-0.00036298104018699074,-0.00031881976277416417,-0.00031881976277416417
812,8.12,-0.16432808141841815,0.12549226896274235,-0.06256177034547261,-0.001981151279067685,0.0004980259579931177,0.0004980259579931177
813,8.13,-0.04152214048996113,0.0626342274271572,0.06448596021653646,-0.0013918372591522194,-1.972474085344493e-05,-1.972474085344493e-05
814,8.14,-0.0028793939318914052,0.06399422977090602,0.11669721197803196,0.0008636998900701887,0.0005790078417004014,0.0005790078417004014
815,8.15,-0.06440103985658,0.1080463320121877,0.06889384194821165,0.003177369807661113,0.0029077344074709987,0.0029077344074709987
816,8.16,-0.06390443579701195,0.08228103743157622,-0.0670704617922032,0.005336842750352915,0.002745246365527645,0.002745246365527645
817,8.17,0.013100251340199556,0.012673358106159764,-0.09103632493468047,0.005253373263467944,0.002011176734049084,0.002011176734049084
818,8.18,-0.011230423193662256,0.033689513442845744,0.015836274927876582,0.003492483989530095,0.002958098210944981,0.002958098210944981
819,8.19,-0.06395788204160381,0.1236136037185668,0.11118230023993138,0.004010148617899962,0.003404579084727205,0.003404579084727205
820,8.2,-0.05011188850267328,0.11653269105326314,0.0725975099198348,0.006311447490876143,0.00554428599198822,0.00554428599198822
821,8.21,-0.014649913724307177,0.019217266750214734,-0.09178175327769121,0.010140844097259506,0.004278378704457466,0.004278378704457466
822,8.22,-0.03059017797194545,-0.05985669408923777,-0.07123041407557726,0.007862013396298013,0.003033569896610099,0.003033569896610099
823,8.23,-0.009647839875273003,-0.05362042542159612,0.04328483944382627,0.003761032799330724,0.003465112980295675,0.003465112980295675
824,8.24,0.05003308253754711,0.034433020192818346,0.1521936381946949,0.0031385279782113547,0.003483908137378294,0.003483908137378294
825,8.25,0.03731947422351264,0.10995254648078912,0.16034034222120047,0.00689390727759509,0.003178920366086676,0.003178920366086676
826,8.26,-0.013947132194156497,0.022317952779832662,0.051219819218868985,0.01123034474158727,0.0032851219706398547,0.0032851219706398547
827,8.27,0.017247723869134604,-0.11898849626857202,-0.03593413219715886,0.009544661768038587,0.005062032264406967,0.005062032264406967
828,8.28,0.08750173443311116,-0.14001060048924105,-0.04060113189752219,0.0010244959487398118,0.004545967104911165,0.004545967104911165
829,8.29,0.03583636922375909,-0.04778156729412007,0.039484252225952254,-0.002489249281916132,0.0003910827196212667,0.0003910827196212667
830,8.3,-0.02248494453339124,0.046923740200903535,0.12385893739897805,0.002690475982440489,0.001057711039629453,0.001057711039629453
831,8.31,0.07820546247883861,0.023571314292823248,0.08243848484766995,0.010015796252517715,0.001566094503876513,0.001566094503876513
832,8.32,0.1780158295900296,-0.030700957440446472,-0.00833479554959523,0.010255522339731859,2.9122831104781923e-05,2.9122831104781923e-05
833,8.33,0.09678413686230847,-0.024619908877319283,-0.03829760835808162,0.007892363544175341,0.00014354590697604876,0.00014354590697604876
834,8.34,-0.030992916043176694,0.09163792199653265,0.023858775557529674,0.005152397043364563,-0.0003576609993439917,-0.0003576609993439917
835,8.35,-0.003824588255508528,0.09147614642276802,0.014798686954890027,0.004921838967668461,-0.0004007250159466875,-0.0004007250159466875
836,8.36,0.13105758645539317,-0.030186390183777407,-0.05043282009474445,0.007824239685784095,-0.0017312492842082453,-0.0017312492842082453
837,8.37,0.10408026180484317,-0.011650617109575767,-0.04192073533544759,0.01134836729974533,-0.002930417665480378,-0.002930417665480378
838,8.38,-0.04590082110430965,0.09363537426360426,-0.023238181073630994,0.014584195670292928,-0.004141913026895927,-0.004141913026895927
839,8.39,-0.017437989536149404,0.04173674150298673,0.024232507013144333,0.013302927882785512,-0.005305844929596765,-0.005305844929596765
840,8.4,0.11729147184343669,-0.14572153297264706,-0.07039764533455152,0.00834729805609967,-0.00612644772774525,-0.00612644772774525
841,8.41,0.08072014963987736,-0.17565567175169736,-0.14708473160312618,0.0023456436399714427,-0.007028657511395428,-0.007028657511395428
842,8.42,-0.03614371236486995,-0.048483870587699734,-0.06336620745802557,0.006169159177331629,-0.007728366755787521,-0.007728366755787521
843,8.43,-0.04083071867446707,0.04951722317023251,0.0039025299601605015,0.014331830431244048,-0.009333043914473736,-0.009333043914473736
844,8.44,0.03958265846217231,-0.061494195477659774,0.05955913426158885,0.017812039515420826,-0.008379592131976874,-0.008379592131976874
845,8.45,-0.006192819598487456,-0.2644022855413248,0.009062318237688688,0.011778296297516588,-0.005986640351102744,-0.005986640351102744
846,8.46,-0.08018946830149105,-0.2769779389213885,-0.12345048988587969,0.0011368745051749214,-0.008498779308147847,-0.008498779308147847
847,8.47,0.014692598630519697,-0.030910317809287713,-0.14690539567611696,-0.001787022740353102,-0.009351804900095,-0.009351804900095
848,8.48,0.047546839811062155,0.12462596185974745,-0.03297828815438076,0.0062736415396541295,-0.00896215787370115,-0.00896215787370115
849,8.49,-0.0784263035547247,-0.07063023694393608,0.09128943154597709,0.01675679784666181,-0.007761796024977114,-0.007761796024977114
850,8.5,-0.10700293545059097,-0.24587184418435254,0.07000290662541543,0.015230900801099402,-0.005164149085549125,-0.005164149085549125
851,8.51,0.04615092432607558,-0.12443558338971049,-0.11216526348134441,0.0044294804428686605,-0.004163653975105056,-0.004163653975105056
852,8.52,0.06766879612629266,0.10764335894484409,-0.17178039518216354,-0.004638165037990275,-0.004695198731090427,-0.004695198731090427
853,8.53,-0.09910628812419003,0.09402723938033293,-0.04533008859647039,-0.003914806358493311,-0.004424883926998039,-0.004424883926998039
854,8.54,-0.10673917899120955,-0.0720133351230659,0.10705991956921514,0.004225587570567338,-0.004076780106286179,-0.004076780106286179
855,8.55,0.0765335167386183,-0.0559038250413902,0.09563464578387372,0.010284924361180987,-0.002308644914184439,-0.002308644914184439
856,8.56,0.0512228075975954,0.18627521494651217,-0.027255365758916017,0.008603842921802024,-5.797860479468382e-05,-5.797860479468382e-05
857,8.57,-0.11489114935236584,0.30688154376931764,-0.073837881030272,0.004020231064545193,-0.00021119055029697952,-0.00021119055029697952
858,8.58,-0.05067311888340093,0.11801716989020788,-0.004890727542011371,-0.0009567682715942537,-0.001597176669950083,-0.001597176669950083
859,8.59,0.1149980680461334,-0.044402983164940485,0.0981480996501644,-0.00460693851095841,-0.001374862235498108,-0.001374862235498108
860,8.6,0.09367498637202956,0.019280749862057432,0.08993553222590246,-0.0059175222676352964,0.0008796053537257308,0.0008796053537257308
861,8.61,-0.03678015826005243,0.15394012947672592,0.05851749557776896,-0.00010149365581010263,0.00251465294957246,0.00251465294957246
862,8.62,-0.045222986694092915,0.07441853429505842,0.01167841259151578,0.005963862659322176,0.0016285563700992696,0.0016285563700992696
863,8.63,-0.013973858412719607,0.006782830226843055,0.03704557492738608,0.0018122189659811442,0.001472484811619025,0.001472484811619025
864,8.64,0.005427909898889048,0.13884247002238748,0.08928401673867747,-0.004406492133461005,0.0016649563819307073,0.0016649563819307073
865,8.65,0.04547752830645948,0.17829327038642928,0.06738150576734887,-0.008132344879845347,0.0023620274519563964,0.0023620274519563964
866,8.66,-0.005457224401656531,-0.058158312898991926,0.025278126401353525,-0.008304599106113177,0.0027937778195565605,0.0027937778195565605
867,8.67,-0.10756508335835427,-0.20639340214080473,-0.011273125961195816,-0.006576631376519799,0.002497615180909634,0.002497615180909634
868,8.68,-0.042774988714736964,0.03323991099600136,-0.01249361389315794,-0.005040197817230983,0.0017725303201067046,0.0017725303201067046
869,8.69,0.08162714756546649,0.2923011240148265,0.01935522490451005,0.00017132409263649875,0.0016715328372611429,0.0016715328372611429
870,8.7,-0.00601160383648687,0.18210924911045204,0.03406002356434416,0.0017668467463967039,0.0016837107144440765,0.0016837107144440765
871,8.71,-0.1557000832518461,-0.1248656868714479,0.03203061957027168,-0.00439188541328846,0.002764141950254055,0.002764141950254055
872,8.72,-0.08038848401829606,-0.14014063179976405,-0.021788028450248992,-0.012826696678856556,0.0006018062204190307,0.0006018062204190307
873,8.73,0.09732601538738979,0.0531362923406528,-0.04688909255114243,-0.013555162891219044,-0.00012902446926071635,-0.00012902446926071635
874,8.74,0.05127174495613156,0.06956434832541089,-0.0005960545198780871,-0.004786314009399779,0.0011586562941580322,0.0011586562941580322
875,8.75,-0.13962162885612245,-0.1161663606218804,0.009879232463585356,-0.0012183326839895145,0.0010505029285061062,0.0010505029285061062
876,8.76,-0.1715574763186443,-0.13740442323471191,-0.02325959944942186,-0.004365171353902129,6.618220402967946e-05,6.618220402967946e-05
877,8.77,-0.01888060422605278,0.06193418728544123,-0.10578782791689179,-0.009788199039179449,0.0005162868376958924,0.0005162868376958924
878,8.78,0.05101326517264997,0.06631486046142755,-0.09485331420802143,-0.012603096798951758,0.000942925200012346,0.000942925200012346
879,8.79,-0.05602142511534388,-0.14975887481847266,0.014978990128205132,-0.010439150607219987,-0.001509071471424764,-0.001509071471424764
880,8.8,-0.0833800547688219,-0.2583151393197965,0.027028833738773586,-0.007655968633913128,-0.0011448943188729615,-0.0011448943188729615
881,8.81,0.02126724260912626,-0.06986866773631085,-0.019147851195198403,-0.005108415539686468,0.0012909953407523665,0.0012909953407523665
882,8.82,0.04942673754885118,0.11311597159583534,-0.06044111737537357,-0.002465927218819892,-0.0004303327724945573,-0.0004303327724945573
883,8.83,-0.037825944260476266,0.0049428867184028655,-0.03086155022252769,-0.0018436552522209735,-0.0022559241819205635,-0.0022559241819205635
884,8.84,-0.057169002220638254,-0.17557568317389186,0.036681571449493335,-0.008577856702592838,-0.0019973276954171845,-0.0019973276954171845
885,8.85,0.03404195247553213,-0.08055254040982987,-0.0014393388810809496,-0.01145974904066636,0.0008486723840194633,0.0008486723840194633
886,8.86,0.05724635993211252,0.14321323096403124,-0.024889038370035386,-0.005748795621053144,0.0011250257828912028,0.0011250257828912028
887,8.87,0.04026005296460908,0.13997113904850583,-0.029909154006438697,0.003282597938350462,-0.0007106638362457111,-0.0007106638362457111
888,8.88,0.04587619564990481,-0.037130552074872085,0.022430809501230543,0.006248711521443736,-0.0004413004946840757,-0.0004413004946840757
889,8.89,0.057883121304456185,-0.12987060605323897,0.054808093910530174,-0.0008573364427442548,0.0011660323809717804,0.0011660323809717804
890,8.9,0.05452774301710342,0.006042428998589432,0.022863028232135523,-0.007788952388274036,0.00046005574481740525,0.00046005574481740525
891,8.91,0.0638310720479163,0.1041198898949969,-0.03160227851711385,-0.007410719858083404,-0.0007201084098863999,-0.0007201084098863999
892,8.92,0.0919670919006922,0.024286071589825067,-0.01954101752632268,0.0022995492189040205,-0.002466166586994104,-0.002466166586994104
893,8.93,0.07063888305528027,-0.060489923850240906,0.06796063168780826,0.00922616357074152,-0.004375769804074854,-0.004375769804074854
