,ts,ax,ay,az,wx,wy,wz
0,0.0,-0.14482,-0.027016000000000002,-0.20457999999999998,-1.9608,-0.18677,-0.73505
1,0.01,-0.14140999999999998,-0.042911000000000005,-0.14286,-1.9249,0.12500999999999998,-0.5935699999999999
2,0.02,-0.11348,-0.049654000000000004,-0.080095,-1.6984,0.24449,-0.46103
3,0.03,-0.073357,-0.050875,-0.028058999999999997,-1.3519,0.14456,-0.36205
4,0.04,-0.017901,-0.056173,-0.002327,-0.9779100000000001,-0.16438,-0.32884
5,0.05,0.029464999999999998,-0.042772000000000004,0.003382,-0.67572,-0.56216,-0.37351
6,0.06,0.050739,-0.01234,0.009948,-0.47436999999999996,-0.92815,-0.47285
7,0.07,0.06277100000000001,0.007701,0.025065999999999998,-0.3806,-1.1643,-0.61424
8,0.08,0.06815299999999999,0.028408999999999997,0.038756,-0.38687,-1.2504,-0.7763399999999999
9,0.09,0.0756,0.059864999999999995,0.060946,-0.45805,-1.1878,-0.9505600000000001
10,0.1,0.10267000000000001,0.066771,0.08300199999999999,-0.5618,-1.0514,-1.109
11,0.11,0.12365,0.018972,0.088787,-0.6784600000000001,-0.8820399999999999,-1.1916
12,0.12,0.13622,-0.034899,0.12109,-0.7355,-0.6791,-1.1964
13,0.13,0.16326,-0.057340999999999996,0.17876,-0.67332,-0.48783999999999994,-1.1635
14,0.14,0.19397,-0.063876,0.22436,-0.51263,-0.37306,-1.1111
15,0.15,0.22041,-0.06969700000000001,0.25006,-0.28357,-0.37608,-1.0488
16,0.16,0.24525999999999998,-0.075173,0.26316,-0.022306,-0.49656999999999996,-0.9979899999999999
17,0.17,0.26413000000000003,-0.069493,0.25968,0.22335,-0.72132,-0.9822299999999999
18,0.18,0.26946,-0.053195000000000006,0.23337,0.42271000000000003,-1.0266,-1.0144
19,0.19,0.25439,-0.046481,0.20484000000000002,0.56506,-1.276,-1.0746
20,0.2,0.21721,-0.031695999999999995,0.19365,0.6846800000000001,-1.3131,-1.1618
21,0.21,0.16827,-0.013669999999999998,0.19946,0.82673,-1.0894,-1.2602
22,0.22,0.097664,0.002225,0.19977,0.97716,-0.71972,-1.3086
23,0.23,0.036436,0.010846,0.17585,1.1127,-0.30421,-1.2888
24,0.24,-0.008487999999999999,0.015241999999999999,0.17033,1.2607,0.10687,-1.205
25,0.25,-0.031599,0.049242,0.17857,1.4486,0.44088999999999995,-1.1198
26,0.26,-0.013000999999999999,0.10670999999999999,0.15617999999999999,1.6404,0.55865,-1.1079999999999999
27,0.27,0.057266,0.09399,0.05924,1.732,0.36829,-1.1715
28,0.28,0.10599000000000001,0.007826000000000001,-0.082725,1.6703,-0.043536,-1.2243
29,0.29,0.1089,-0.074657,-0.19235,1.4796,-0.4245,-1.2378
30,0.3,0.077532,-0.090577,-0.24391,1.2229,-0.61422,-1.2144
31,0.31,-0.008119,-0.023984000000000002,-0.26098000000000005,0.91919,-0.52442,-1.1351
32,0.32,-0.078293,0.046288,-0.25905,0.60014,-0.19902999999999998,-1.0337
33,0.33,-0.06285299999999999,0.042983,-0.24058000000000002,0.27917,0.2724,-0.9572
34,0.34,-0.007382,-0.039277,-0.23624,-0.044837,0.63515,-0.87087
35,0.35,0.019136,-0.14187,-0.28315999999999997,-0.41768999999999995,0.66046,-0.7328
36,0.36,0.026423000000000002,-0.21584,-0.35362,-0.82967,0.33975,-0.57711
37,0.37,0.010864,-0.27054,-0.4015,-1.2232,-0.084457,-0.44255
38,0.38,-0.033777999999999996,-0.2914,-0.3888,-1.4903,-0.35833000000000004,-0.36780999999999997
39,0.39,-0.076181,-0.27345,-0.3305,-1.5758,-0.3768,-0.36579
40,0.4,-0.12511,-0.23826999999999998,-0.27218000000000003,-1.5135,-0.21104,-0.40867
41,0.41,-0.16000999999999999,-0.19547,-0.21986999999999998,-1.3483,-0.005602,-0.47493
42,0.42,-0.16673,-0.17257999999999998,-0.18495999999999999,-1.1558,0.13141,-0.54528
43,0.43,-0.14958,-0.16455999999999998,-0.15764,-0.96545,0.14483,-0.61756
44,0.44,-0.13602,-0.16489,-0.12021,-0.7771399999999999,0.038926999999999996,-0.6832199999999999
45,0.45,-0.13624,-0.16075,-0.063436,-0.57315,-0.10761,-0.74345
46,0.46,-0.16002,-0.13954,0.002008,-0.33008000000000004,-0.28434,-0.77474
47,0.47,-0.19487000000000002,-0.11875999999999999,0.050413,-0.079868,-0.4846,-0.77823
48,0.48,-0.22565,-0.09462999999999999,0.072288,0.15172,-0.73375,-0.7592399999999999
49,0.49,-0.27958,-0.060320000000000006,0.073742,0.3181,-0.97919,-0.71155
50,0.5,-0.33960999999999997,-0.015024000000000001,0.07471,0.4264,-1.1527,-0.67157
51,0.51,-0.38977,0.039749,0.077968,0.47185,-1.2075,-0.6735300000000001
52,0.52,-0.45021000000000005,0.09904,0.064662,0.44588999999999995,-1.1465,-0.71958
53,0.53,-0.5091399999999999,0.1587,0.042329000000000006,0.36446,-0.9826600000000001,-0.81607
54,0.54,-0.5687800000000001,0.23437,0.0093,0.23813,-0.72147,-0.95231
55,0.55,-0.5687800000000001,0.23437,0.0093,0.23813,-0.72147,-0.95231
56,0.56,-0.63984,0.38161,-0.012318,0.10870999999999999,-0.15744,-1.2695
57,0.57,-0.68293,0.41276999999999997,-0.029657,0.14855,-0.017041,-1.3316
58,0.58,-0.60511,0.31777,-0.007468000000000001,0.14003,-0.41999,-1.1227
59,0.59,-0.7832,0.43049,-0.033727,0.51836,-0.062942,-1.1078
60,0.6,-0.85531,0.46311,-0.035851999999999995,0.8208799999999999,-0.21172,-0.81771
61,0.61,-0.9354399999999999,0.5493,-0.05111,1.1209,-0.36375,-0.46361
62,0.62,-0.97215,0.70223,-0.049947000000000005,1.3689,-0.40337,-0.18879
63,0.63,-0.92981,0.8514200000000001,-0.023769,1.5619999999999998,-0.33687,-0.081831
64,0.64,-0.79405,0.8646799999999999,0.008458,1.6949,-0.2089,-0.20990999999999999
65,0.65,-0.57599,0.74792,0.049280000000000004,1.7546,-0.040644,-0.57409
66,0.66,-0.31618,0.5895,0.07802200000000001,1.7223,0.017667,-1.0599
67,0.67,-0.13319,0.39447,0.050843,1.5212,-0.13907,-1.4229
68,0.68,-0.031459,0.17945999999999998,-0.023034,1.0844,-0.54346,-1.5574
69,0.69,0.016784999999999998,-0.002967,-0.11200999999999998,0.43593999999999994,-1.1062,-1.4423
70,0.7,0.01264,-0.13452,-0.17697000000000002,-0.33523000000000003,-1.6745,-1.1149
71,0.71,-0.016654,-0.22351999999999997,-0.22601,-1.133,-2.1522,-0.6479600000000001
72,0.72,-0.075651,-0.26655,-0.25477,-1.8299,-2.5232,-0.14149
73,0.73,-0.14123,-0.27519,-0.26626,-2.3188,-2.8148,0.29474
74,0.74,-0.16062,-0.25478,-0.21831,-2.4935,-2.9223,0.5049100000000001
75,0.75,-0.16577999999999998,-0.19942000000000001,-0.11366,-2.3147,-2.7638,0.41848
76,0.76,-0.17762,-0.11534000000000001,-0.037846,-1.8867,-2.4111,0.08556699999999999
77,0.77,-0.17724,-0.043992,-0.020894,-1.4073,-2.0074,-0.40531999999999996
78,0.78,-0.099236,-0.021254,-0.0007509999999999999,-1.0152,-1.6318,-0.9870399999999999
79,0.79,0.01094,-0.045163,0.001059,-0.79337,-1.3230000000000002,-1.5358
80,0.8,0.069297,-0.057544000000000005,0.040642000000000005,-0.7265199999999999,-1.0684,-1.9098
81,0.81,0.11054000000000001,-0.059346,0.09792999999999999,-0.75084,-0.87626,-2.0745
82,0.82,0.15693,-0.090536,0.15188,-0.82231,-0.74779,-2.0834
83,0.83,0.16823,-0.12598,0.20734,-0.92306,-0.60216,-1.9728
84,0.84,0.16542,-0.11882000000000001,0.27526999999999996,-0.9868100000000001,-0.48561000000000004,-1.8429
85,0.85,0.18675,-0.076987,0.32631,-0.9950899999999999,-0.5389,-1.766
86,0.86,0.22261,-0.066954,0.34773000000000004,-0.9722700000000001,-0.75753,-1.7698
87,0.87,0.26775,-0.094474,0.3677,-0.89892,-1.0991,-1.8364
88,0.88,0.28223000000000004,-0.11302999999999999,0.39386,-0.7912899999999999,-1.4355,-1.9188
89,0.89,0.24965,-0.11731,0.4026,-0.67825,-1.7284,-1.9491
90,0.9,0.1848,-0.12613,0.39014,-0.57547,-1.9296,-1.9144
91,0.91,0.14442,-0.1383,0.37563,-0.47498999999999997,-2.0179,-1.8788
92,0.92,0.12175,-0.13583,0.35641,-0.38182,-1.976,-1.8841
93,0.93,0.096302,-0.11413,0.33673000000000003,-0.29706,-1.8125,-1.9301
94,0.94,0.080263,-0.09862,0.30706,-0.2183,-1.6117,-1.9976
95,0.95,0.071174,-0.10166,0.26342,-0.16091,-1.4118,-2.0598
96,0.96,0.064711,-0.10595,0.21122,-0.1151,-1.1841,-2.1092
97,0.97,0.053101999999999996,-0.087393,0.15344000000000002,-0.05001,-0.9395,-2.1458
98,0.98,0.046797000000000005,-0.067661,0.10155,0.06840299999999999,-0.68365,-2.162
99,0.99,0.044444,-0.09158200000000001,0.060548000000000005,0.2577,-0.47638,-2.1333
100,1.0,0.050224,-0.13787,0.005305,0.49376000000000003,-0.38677,-2.0455
101,1.01,0.068479,-0.20839000000000002,-0.07170900000000001,0.6966899999999999,-0.42478999999999995,-1.9351
102,1.02,0.08271,-0.30751999999999996,-0.18429,0.77808,-0.6045699999999999,-1.8525
103,1.03,0.07712100000000001,-0.39814,-0.34354,0.6622600000000001,-0.9329,-1.8339
104,1.04,0.055878,-0.40043,-0.49154,0.3239,-1.2987,-1.9598
105,1.05,0.0036799999999999997,-0.26811,-0.5435300000000001,-0.13084,-1.4801,-2.2058
106,1.06,-0.060839,-0.16409,-0.51098,-0.56509,-1.3633,-2.4469
107,1.07,-0.13451,-0.23051999999999997,-0.46231000000000005,-0.94355,-0.9882,-2.5486
108,1.08,-0.19966,-0.30569,-0.42577,-1.2487,-0.56161,-2.5168
109,1.09,-0.22785999999999998,-0.27164,-0.39474000000000004,-1.459,-0.26266999999999996,-2.4259
110,1.1,-0.23884,-0.25443000000000005,-0.35505,-1.5599,-0.12557000000000001,-2.3014
111,1.11,-0.23414000000000001,-0.2893,-0.28725,-1.5113,-0.10479000000000001,-2.1797
112,1.12,-0.23124,-0.31028,-0.21383000000000002,-1.3267,-0.17248,-2.0768
113,1.13,-0.23056999999999997,-0.2933,-0.13790999999999998,-1.0418,-0.27718000000000004,-2.0259
114,1.14,-0.22235,-0.26652,-0.067303,-0.7219,-0.41835,-2.0134
115,1.15,-0.22058000000000003,-0.24017,-0.019454,-0.46076000000000006,-0.59311,-2.0265
116,1.16,-0.20614000000000002,-0.20886,0.011673000000000001,-0.29999000000000003,-0.79047,-2.06
117,1.17,-0.18592999999999998,-0.18792,0.026668999999999998,-0.25154,-1.0093,-2.0702
118,1.18,-0.19272,-0.18858,0.034887,-0.28776,-1.2052,-1.9632
119,1.19,-0.22373,-0.19813,0.05964,-0.35495,-1.3115,-1.7123
120,1.2,-0.24448000000000003,-0.20275,0.07685800000000001,-0.39121999999999996,-1.3659,-1.3728
121,1.21,-0.27476999999999996,-0.18875999999999998,0.079904,-0.4047,-1.3576,-1.0099
122,1.22,-0.29643,-0.13057,0.085298,-0.35231,-1.3061,-0.7377600000000001
123,1.23,-0.30845,-0.038396,0.08261,-0.24805,-1.2709,-0.61916
124,1.24,-0.33496,0.061658000000000004,0.067558,-0.10505,-1.2763,-0.63278
125,1.25,-0.36385,0.16551,0.059614,0.067103,-1.301,-0.74878
126,1.26,-0.38892,0.27329000000000003,0.06384400000000001,0.26097,-1.3152,-0.9224100000000001
127,1.27,-0.40551,0.36883,0.070621,0.4574,-1.2943,-1.1249
128,1.28,-0.40331,0.44299999999999995,0.077944,0.64012,-1.2487,-1.32
129,1.29,-0.39216,0.49776000000000004,0.084584,0.78201,-1.2071,-1.465
130,1.3,-0.37568,0.53455,0.081013,0.87751,-1.1843,-1.5385
131,1.31,-0.355,0.55107,0.07911599999999999,0.92781,-1.1719,-1.5502
132,1.32,-0.33678,0.55155,0.079313,0.9424799999999999,-1.1796,-1.5085
133,1.33,-0.3228,0.55051,0.07234299999999999,0.9353100000000001,-1.2318,-1.4380000000000002
134,1.34,-0.30867,0.55016,0.07106900000000001,0.9067700000000001,-1.2934,-1.3739
135,1.35,-0.28303,0.5374399999999999,0.076524,0.8689100000000001,-1.3454,-1.3536
136,1.36,-0.23794,0.49386,0.063608,0.78742,-1.4192,-1.3942
137,1.37,-0.18721,0.41194,0.016736,0.61538,-1.5104,-1.4872
138,1.38,-0.13352,0.31427,-0.027311000000000002,0.37758,-1.5755,-1.6177
139,1.39,-0.087258,0.21850999999999998,-0.051403,0.11135999999999999,-1.5891,-1.743
140,1.4,-0.060815,0.13759000000000002,-0.05832999999999999,-0.13987,-1.5614,-1.815
141,1.41,-0.031149,0.057370000000000004,-0.055528999999999995,-0.36341,-1.4999,-1.8198
142,1.42,0.01626,-0.043995,-0.056297,-0.56797,-1.4301,-1.7648
143,1.43,0.06698899999999999,-0.14957,-0.08041,-0.7901600000000001,-1.3985,-1.6617
144,1.44,0.096565,-0.23351,-0.12145,-1.0492,-1.4114,-1.5158
145,1.45,0.10459,-0.28826999999999997,-0.15512,-1.3069,-1.5012,-1.3261
146,1.46,0.10269,-0.33182,-0.17658,-1.5183,-1.6488,-1.1085
147,1.47,0.11075,-0.36107,-0.15805,-1.6205,-1.7665,-0.9131299999999999
148,1.48,0.12837,-0.34801,-0.10288,-1.5806,-1.7744,-0.8063100000000001
149,1.49,0.1518,-0.29175999999999996,-0.034877,-1.4353,-1.6296,-0.81912
150,1.5,0.18124,-0.23195,0.024756999999999998,-1.2417,-1.3689,-0.92919
151,1.51,0.22851999999999997,-0.19063,0.07064400000000001,-1.0551,-1.0868,-1.0927
152,1.52,0.28931999999999997,-0.18549000000000002,0.11054000000000001,-0.89375,-0.8738299999999999,-1.2251
153,1.53,0.33905,-0.22023,0.15900999999999998,-0.74768,-0.76845,-1.2507
154,1.54,0.38261999999999996,-0.25818,0.20956999999999998,-0.6198199999999999,-0.75039,-1.1886
155,1.55,0.4231,-0.28614,0.24203000000000002,-0.52687,-0.80028,-1.0805
156,1.56,0.43642,-0.32061999999999996,0.25096,-0.49735,-0.8933700000000001,-0.9447399999999999
157,1.57,0.42303999999999997,-0.35453,0.23947,-0.53681,-0.94858,-0.82196
158,1.58,0.38961,-0.36713,0.222,-0.63256,-0.8839100000000001,-0.7731399999999999
159,1.59,0.37401999999999996,-0.36495,0.21923,-0.74144,-0.66769,-0.84416
160,1.6,0.36989,-0.36926,0.19944,-0.84199,-0.3854,-0.9825299999999999
161,1.61,0.34812,-0.38338,0.18254,-0.93995,-0.041336000000000005,-1.1125
162,1.62,0.3318,-0.39628,0.17373,-0.96572,0.28504,-1.2017
163,1.63,0.30913,-0.38294,0.19391,-0.8921,0.5433899999999999,-1.2148
164,1.64,0.29091,-0.34479,0.22036,-0.71396,0.70277,-1.1636
165,1.65,0.27596,-0.29873,0.2434,-0.43778999999999996,0.75366,-1.0479
166,1.66,0.25516,-0.24656999999999998,0.27163000000000004,-0.07736599999999999,0.69512,-0.8881100000000001
167,1.67,0.25619000000000003,-0.19539,0.28373000000000004,0.3189,0.57448,-0.7399100000000001
168,1.68,0.25065,-0.14282999999999998,0.2972,0.7386699999999999,0.43556999999999996,-0.6268600000000001
169,1.69,0.2442,-0.10272,0.31306,1.1577,0.32121,-0.54268
170,1.7,0.23895,-0.071431,0.31893,1.5434,0.27857,-0.5077699999999999
171,1.71,0.25228,-0.057754999999999994,0.31704,1.8903,0.28,-0.52746
172,1.72,0.2802,-0.09332599999999999,0.30926,2.1819,0.29683000000000004,-0.5728800000000001
173,1.73,0.30634,-0.16627999999999998,0.27033,2.3475,0.29763,-0.60995
174,1.74,0.32211999999999996,-0.23418000000000003,0.19039,2.3408,0.25508000000000003,-0.62697
175,1.75,0.31556999999999996,-0.29729,0.086338,2.1226,0.18334,-0.61548
176,1.76,0.29959,-0.35836999999999997,-0.039375,1.6897,0.10057,-0.5926
177,1.77,0.27324,-0.40449,-0.15649000000000002,1.0908,0.06926399999999999,-0.58611
178,1.78,0.23499,-0.40971,-0.22610999999999998,0.42031999999999997,0.1366,-0.5959300000000001
179,1.79,0.18648,-0.39363000000000004,-0.25549,-0.2121,0.29952,-0.60372
180,1.8,0.13067,-0.40154,-0.26325,-0.73416,0.53718,-0.58903
181,1.81,0.08115399999999999,-0.38539,-0.25165,-1.1046,0.7704,-0.59222
182,1.82,0.027416000000000003,-0.33616,-0.23143000000000002,-1.3019999999999998,0.90417,-0.5992
183,1.83,-0.035976999999999995,-0.29601,-0.21769000000000002,-1.3621,0.86736,-0.58643
184,1.84,-0.081595,-0.26549,-0.20955,-1.3168,0.67729,-0.57107
185,1.85,-0.10943,-0.23603000000000002,-0.19727,-1.2312,0.42405,-0.58115
186,1.86,-0.13388,-0.19652999999999998,-0.1802,-1.1622,0.22107,-0.63298
187,1.87,-0.15504,-0.13555,-0.1551,-1.1248,0.16652,-0.73636
188,1.88,-0.15805,-0.07867400000000001,-0.11080999999999999,-1.0742,0.28556,-0.84215
189,1.89,-0.15967,-0.063459,-0.044987,-0.94899,0.46675,-0.83905
190,1.9,-0.14321,-0.073068,0.015565,-0.7674,0.57487,-0.7076399999999999
191,1.91,-0.12179000000000001,-0.06852000000000001,0.052266,-0.55233,0.53981,-0.4585
192,1.92,-0.11145999999999999,-0.06639500000000001,0.08544700000000001,-0.32798,0.38098000000000004,-0.13227
193,1.93,-0.099516,-0.065755,0.10238,-0.10877,0.11563,0.20054
194,1.94,-0.09399199999999999,-0.038154,0.099833,0.061336,-0.2004,0.4597
195,1.95,-0.094735,0.008006999999999998,0.10114,0.19399999999999998,-0.47016,0.59597
196,1.96,-0.10845999999999999,0.055945,0.11677,0.30046999999999996,-0.61812,0.6177600000000001
197,1.97,-0.12433,0.11237,0.13344,0.37212,-0.64208,0.54748
198,1.98,-0.13657,0.16558,0.141,0.39461,-0.57287,0.42463999999999996
199,1.99,-0.13567,0.20354,0.13785999999999998,0.37371,-0.47558,0.27926999999999996
200,2.0,-0.12405999999999999,0.2224,0.13059,0.31525,-0.39716999999999997,0.14667
201,2.01,-0.11435999999999999,0.22680999999999998,0.12144,0.2286,-0.34735,0.058908
202,2.02,-0.10475,0.22604000000000002,0.11927,0.14357999999999999,-0.32211,0.030964
203,2.03,-0.10637,0.2189,0.10726,0.07270499999999999,-0.34503,0.086386
204,2.04,-0.12384,0.20751,0.087979,0.027674,-0.4279,0.21348000000000003
205,2.05,-0.13979,0.2027,0.075776,0.03129,-0.55702,0.35141
206,2.06,-0.15179,0.21058000000000002,0.055588,0.088435,-0.69291,0.4414
207,2.07,-0.17965,0.21564,0.035488,0.21033000000000002,-0.7770600000000001,0.46738
208,2.08,-0.21423000000000003,0.21565,0.04665,0.42213999999999996,-0.74145,0.41111000000000003
209,2.09,-0.23745,0.22079000000000001,0.08566,0.71312,-0.5977100000000001,0.2726
210,2.1,-0.22548,0.21508000000000002,0.10479000000000001,1.0069,-0.4294,0.048659
211,2.11,-0.18478,0.1787,0.08518099999999999,1.1905,-0.31022,-0.22341999999999998
212,2.12,-0.1376,0.12107000000000001,0.044374000000000004,1.2062,-0.25678,-0.49993999999999994
213,2.13,-0.084134,0.045611,-0.0033729999999999997,1.0611,-0.27665,-0.73392
214,2.14,-0.041231,-0.054152,-0.040877,0.80078,-0.3511,-0.8655299999999999
215,2.15,-0.023119999999999998,-0.14765999999999999,-0.055348,0.48212,-0.43799,-0.86166
216,2.16,-0.030121,-0.20747,-0.060828999999999994,0.14371,-0.51632,-0.7350899999999999
217,2.17,-0.053259,-0.23484000000000002,-0.085333,-0.1791,-0.60018,-0.5359
218,2.18,-0.071047,-0.23723000000000002,-0.10915,-0.49399,-0.62976,-0.34105
219,2.19,-0.077803,-0.25435,-0.11405,-0.7389899999999999,-0.6161800000000001,-0.1846
220,2.2,-0.089615,-0.289,-0.11306,-0.90775,-0.55633,-0.048365
221,2.21,-0.10519,-0.30005,-0.10550999999999999,-1.0098,-0.44797,0.05480499999999999
222,2.22,-0.10547999999999999,-0.28757,-0.090581,-1.0496,-0.30491,0.11853
223,2.23,-0.094452,-0.25826,-0.06616,-1.0378,-0.15159,0.14923
224,2.24,-0.069342,-0.21244000000000002,-0.032366000000000006,-0.9752200000000001,-0.063662,0.14598
225,2.25,-0.024253999999999998,-0.17023,0.00432,-0.86954,-0.07196699999999999,0.1227
226,2.26,0.022727,-0.13719,0.046169999999999996,-0.74417,-0.15395,0.094239
227,2.27,0.058771000000000004,-0.10287,0.086499,-0.6126,-0.2605,0.070105
228,2.28,0.093395,-0.08092200000000001,0.11437,-0.5002800000000001,-0.36905,0.058752
229,2.29,0.12284,-0.07911900000000001,0.13806,-0.41142,-0.45186000000000004,0.079332
230,2.3,0.14711,-0.09252,0.16677999999999998,-0.33075,-0.47175,0.12754000000000001
231,2.31,0.16342,-0.11800000000000001,0.20244,-0.25611999999999996,-0.43088000000000004,0.20445
232,2.32,0.17565,-0.14255,0.2339,-0.19195,-0.35479,0.29622
233,2.33,0.18975999999999998,-0.15717,0.26384,-0.14034000000000002,-0.25619000000000003,0.37513
234,2.34,0.20651999999999998,-0.16382,0.29035,-0.084363,-0.16825,0.41563
235,2.35,0.21711,-0.17160999999999998,0.31254,-0.025362,-0.11760999999999999,0.43272
236,2.36,0.21577,-0.1844,0.31401,0.034354,-0.12343,0.43177
237,2.37,0.22491999999999998,-0.20031,0.31033,0.11547,-0.14962,0.38499
238,2.38,0.2337,-0.20514000000000002,0.3068,0.2235,-0.17492,0.28809
239,2.39,0.23586999999999997,-0.19657,0.28802,0.33623000000000003,-0.16187,0.16978
240,2.4,0.23683,-0.19087,0.26687,0.45797,-0.083893,0.05457000000000001
241,2.41,0.23633,-0.17912999999999998,0.24322,0.5715899999999999,0.061248000000000004,-0.031948000000000004
242,2.42,0.23464000000000002,-0.15031,0.21211999999999998,0.6736,0.24586999999999998,-0.076927
243,2.43,0.2279,-0.12414000000000001,0.17709,0.7712600000000001,0.45923,-0.06325800000000001
244,2.44,0.2243,-0.097221,0.14764000000000002,0.8877200000000001,0.65854,0.005973
245,2.45,0.22834000000000002,-0.072643,0.11650999999999999,1.0314,0.8106899999999999,0.10949
246,2.46,0.24006,-0.060395000000000004,0.088252,1.1925,0.87318,0.21854
247,2.47,0.25785,-0.06908099999999999,0.043470999999999996,1.3313,0.8122699999999999,0.30855
248,2.48,0.26871,-0.086283,-0.041753,1.3646,0.60948,0.36233000000000004
249,2.49,0.27403,-0.099079,-0.16015,1.2451,0.33129000000000003,0.35194000000000003
250,2.5,0.27165,-0.12279000000000001,-0.25947,1.0067,0.10422000000000001,0.28575
251,2.51,0.24243,-0.15622,-0.33145,0.71099,0.019372,0.19145
252,2.52,0.19022,-0.15702,-0.39185,0.39534,0.11052000000000001,0.090412
253,2.53,0.13159,-0.12947,-0.4254,0.12343,0.34515,0.005202
254,2.54,0.089558,-0.10595999999999998,-0.42418,-0.063739,0.65045,-0.05436799999999999
255,2.55,0.075793,-0.088882,-0.4056,-0.17012,0.93375,-0.091343
256,2.56,0.081076,-0.08341,-0.39441,-0.24768,1.1017,-0.10457999999999999
257,2.57,0.08306000000000001,-0.07977100000000001,-0.39699,-0.34697,1.1014,-0.091946
258,2.58,0.080407,-0.080002,-0.38889,-0.46338999999999997,0.9606600000000001,-0.079091
259,2.59,0.08048,-0.090013,-0.36339,-0.5866399999999999,0.75176,-0.08961000000000001
260,2.6,0.07582,-0.088886,-0.32126,-0.7031,0.57268,-0.13005999999999998
261,2.61,0.057002,-0.066967,-0.25215,-0.7983399999999999,0.50532,-0.18134
262,2.62,0.034781,-0.038266,-0.17645999999999998,-0.8788,0.55504,-0.2264
263,2.63,0.020712,-0.011419,-0.10459,-0.9397399999999999,0.66638,-0.23736999999999997
264,2.64,0.010541,-0.0038060000000000004,-0.052580999999999996,-0.9767899999999999,0.73802,-0.18099
265,2.65,-0.002374,-0.007197,-0.01431,-0.97783,0.68462,-0.058147000000000004
266,2.66,-0.011637999999999999,-0.002234,0.011221,-0.93639,0.4955,0.10344
267,2.67,-0.031254000000000004,0.0028120000000000003,0.03785,-0.8337899999999999,0.22913000000000003,0.28447
268,2.68,-0.070116,0.011984999999999999,0.062783,-0.67461,-0.024922,0.47626
269,2.69,-0.11715,0.033332,0.080064,-0.48378999999999994,-0.20888,0.64236
270,2.7,-0.17204,0.070645,0.092317,-0.28659,-0.28841999999999995,0.7656
271,2.71,-0.2252,0.11954000000000001,0.10624000000000001,-0.08261,-0.2241,0.82988
272,2.72,-0.25716999999999995,0.16163,0.12819,0.12283,-0.020137000000000002,0.8277399999999999
273,2.73,-0.2788,0.19959000000000002,0.13477,0.30657,0.24586999999999998,0.77956
274,2.74,-0.29838000000000003,0.24343,0.11260999999999999,0.44965,0.48346000000000006,0.70894
275,2.75,-0.31531,0.28685,0.091968,0.5623199999999999,0.65523,0.64052
276,2.76,-0.31935,0.31024,0.089797,0.68699,0.7395,0.5946899999999999
277,2.77,-0.32282,0.31856,0.095262,0.83945,0.71907,0.58432
278,2.78,-0.32488,0.3256,0.1022,1.005,0.6122,0.59867
279,2.79,-0.33179000000000003,0.33938,0.11072,1.1861,0.46256,0.62593
280,2.8,-0.34989000000000003,0.36783000000000005,0.11832000000000001,1.3692,0.29585,0.65856
281,2.81,-0.3561,0.39574000000000004,0.12487999999999999,1.5543,0.11102999999999999,0.67309
282,2.82,-0.35591,0.39845,0.12680999999999998,1.7382,-0.11214,0.6812699999999999
283,2.83,-0.35435,0.37827,0.11309000000000001,1.892,-0.34785,0.6904899999999999
284,2.84,-0.35624,0.36775,0.099531,2.0164,-0.53854,0.6793
285,2.85,-0.33621999999999996,0.35491,0.08288200000000001,2.0692,-0.6561,0.59848
286,2.86,-0.28889000000000004,0.31659,0.033095,1.9992,-0.72248,0.42449
287,2.87,-0.23911,0.25332,-0.039377999999999996,1.7717,-0.75979,0.18825999999999998
288,2.88,-0.19914,0.17081,-0.12425,1.3730000000000002,-0.7668699999999999,-0.08993999999999999
289,2.89,-0.18124,0.109,-0.19732,0.8219799999999999,-0.72688,-0.36741999999999997
290,2.9,-0.1821,0.05204299999999999,-0.24429,0.1756,-0.58704,-0.6078899999999999
291,2.91,-0.1914,-0.030217,-0.25952,-0.49141,-0.32561,-0.79737
292,2.92,-0.18896,-0.10375,-0.25881,-1.1111,0.013182,-0.94527
293,2.93,-0.17288,-0.13466,-0.26028,-1.6489,0.33421999999999996,-1.062
294,2.94,-0.1776,-0.1481,-0.25301999999999997,-2.0493,0.5410699999999999,-1.0887
295,2.95,-0.18612,-0.17892,-0.23117,-2.2785,0.6132,-1.0071
296,2.96,-0.17978,-0.21918,-0.20022,-2.3108,0.5451,-0.8458200000000001
297,2.97,-0.18425999999999998,-0.22784000000000001,-0.14612999999999998,-2.1426,0.36128000000000005,-0.6359899999999999
298,2.98,-0.18213,-0.19942000000000001,-0.074034,-1.8029,0.14090999999999998,-0.44501999999999997
299,2.99,-0.16144,-0.14449,-0.003018,-1.3549,-0.076011,-0.34246
300,3.0,-0.12709,-0.087638,0.061176999999999995,-0.8869,-0.27379000000000003,-0.35731
301,3.01,-0.070525,-0.047236,0.11275999999999999,-0.48139,-0.46988,-0.47261000000000003
302,3.02,-0.002514,-0.017733000000000002,0.15884,-0.15253,-0.66957,-0.62539
303,3.03,0.058651999999999996,-0.02023,0.21033000000000002,0.099188,-0.88039,-0.73346
304,3.04,0.12097999999999999,-0.0597,0.25504,0.27692,-1.0853,-0.76161
305,3.05,0.18461,-0.10502,0.29664,0.39466999999999997,-1.2718,-0.7098399999999999
306,3.06,0.23433,-0.14448,0.3328,0.4635,-1.4067,-0.60488
307,3.07,0.27164,-0.16577,0.36391999999999997,0.49745,-1.4849,-0.47658999999999996
308,3.08,0.29461,-0.17296,0.38001,0.48605,-1.4935,-0.34424
309,3.09,0.31394,-0.17125,0.37651,0.42416000000000004,-1.4302,-0.24199
310,3.1,0.32538,-0.17001,0.36289,0.32238,-1.3069,-0.17407
311,3.11,0.32285,-0.17242000000000002,0.33829000000000004,0.19763,-1.1418,-0.13935
312,3.12,0.3145,-0.17152,0.31586,0.082026,-0.9266700000000001,-0.14954
313,3.13,0.30668,-0.16526,0.30305,0.011873,-0.6607,-0.20456
314,3.14,0.29722,-0.15153,0.2846,-0.010887,-0.35567,-0.28733000000000003
315,3.15,0.29063,-0.13530999999999999,0.26577,0.021988,-0.038291000000000006,-0.3807
316,3.16,0.2801,-0.12062,0.24961999999999998,0.10572999999999999,0.25199,-0.44511000000000006
317,3.17,0.27205999999999997,-0.1091,0.22150999999999998,0.21758000000000002,0.47275,-0.48266000000000003
318,3.18,0.26375,-0.089669,0.19099000000000002,0.35533000000000003,0.61655,-0.49228
319,3.19,0.24435,-0.064104,0.16718,0.51991,0.6673899999999999,-0.46541000000000005
320,3.2,0.22298,-0.052554,0.13943,0.71655,0.6166699999999999,-0.39453
321,3.21,0.20432999999999998,-0.046135,0.10608,0.9400200000000001,0.46236000000000005,-0.31061
322,3.22,0.1954,-0.045482,0.062385,1.1704,0.22596999999999998,-0.25001999999999996
323,3.23,0.19097,-0.06241699999999999,0.002088,1.3645,-0.042054,-0.22252
324,3.24,0.18177000000000001,-0.088774,-0.087228,1.469,-0.31356,-0.23360999999999998
325,3.25,0.16446,-0.11717999999999999,-0.19526,1.431,-0.55404,-0.26741
326,3.26,0.14795999999999998,-0.14992,-0.31235,1.2337,-0.71114,-0.32404
327,3.27,0.12112,-0.1825,-0.41097,0.92845,-0.7692899999999999,-0.39278
328,3.28,0.07261000000000001,-0.19935999999999998,-0.48011000000000004,0.57282,-0.72153,-0.46286000000000005
329,3.29,0.023334999999999998,-0.19318,-0.52158,0.21894,-0.58748,-0.53096
330,3.3,-0.028439999999999997,-0.18283,-0.5329999999999999,-0.098256,-0.38236,-0.56923
331,3.31,-0.073249,-0.1759,-0.52612,-0.38195999999999997,-0.11254000000000002,-0.58514
332,3.32,-0.1063,-0.15245999999999998,-0.51536,-0.6389,0.17303,-0.5935600000000001
333,3.33,-0.13304000000000002,-0.11051,-0.49007,-0.85767,0.42846000000000006,-0.604
334,3.34,-0.14579,-0.07838099999999999,-0.43353,-1.0095,0.64603,-0.61425
335,3.35,-0.1395,-0.049067,-0.34121,-1.0687,0.83835,-0.63284
336,3.36,-0.1244,-0.016603,-0.23425,-1.0437,1.0076,-0.66085
337,3.37,-0.1071,0.015916,-0.1364,-0.9648899999999999,1.1178,-0.67692
338,3.38,-0.09514500000000001,0.039419,-0.049499,-0.84949,1.1467,-0.66289
339,3.39,-0.072138,0.051117,0.029031,-0.70634,1.0591,-0.62513
340,3.4,-0.04369,0.056214,0.086493,-0.56021,0.8245,-0.56575
341,3.41,-0.025983,0.063666,0.12237,-0.42908999999999997,0.45677,-0.48908999999999997
342,3.42,-0.011793999999999999,0.070869,0.15234,-0.30282,0.020885,-0.40698
343,3.43,-0.023457,0.073104,0.17586,-0.18093,-0.41073999999999994,-0.29286999999999996
344,3.44,-0.064786,0.077554,0.1854,-0.07244,-0.7559899999999999,-0.13623
345,3.45,-0.1171,0.092184,0.18592999999999998,0.010612,-0.9560799999999999,0.005166
346,3.46,-0.16641,0.12793,0.17526,0.047179,-0.9990899999999999,0.090697
347,3.47,-0.22411999999999999,0.18026,0.15821,0.034087,-0.88925,0.11076
348,3.48,-0.27857,0.23135999999999998,0.1461,0.0019379999999999998,-0.6641,0.070814
349,3.49,-0.32137,0.27202,0.13114,-0.041519,-0.41323999999999994,-0.012961000000000002
350,3.5,-0.36052,0.29600000000000004,0.097683,-0.087617,-0.23694,-0.11262
351,3.51,-0.39912,0.3116,0.053591999999999994,-0.12615,-0.1843,-0.21738000000000002
352,3.52,-0.43038999999999994,0.32986,0.02655,-0.10443,-0.20886,-0.33471999999999996
353,3.53,-0.46462,0.35541,0.025101,-0.0027530000000000002,-0.25006,-0.46468999999999994
354,3.54,-0.5008199999999999,0.38256999999999997,0.030188999999999997,0.16937,-0.28757,-0.59348
355,3.55,-0.5369,0.40595,0.030172000000000004,0.36495,-0.31783,-0.70944
356,3.56,-0.56886,0.43023999999999996,0.02086,0.56792,-0.34498,-0.80083
357,3.57,-0.5967100000000001,0.44626000000000005,0.026868,0.7823100000000001,-0.38611999999999996,-0.85269
358,3.58,-0.5995199999999999,0.44483999999999996,0.035026,0.99525,-0.46137,-0.88421
359,3.59,-0.56638,0.42489,0.036733999999999996,1.1726,-0.59917,-0.9381
360,3.6,-0.5001800000000001,0.37953000000000003,0.013354,1.2495,-0.8,-1.0636
361,3.61,-0.43176000000000003,0.31496,-0.034814,1.1949,-1.0679,-1.2414
362,3.62,-0.37376,0.23881,-0.09500900000000001,0.9940000000000001,-1.3718,-1.4558
363,3.63,-0.32986,0.17056,-0.15774000000000002,0.67285,-1.6503,-1.6875
364,3.64,-0.30654000000000003,0.11107,-0.18833,0.28858,-1.8014,-1.8939
365,3.65,-0.30287,0.031275,-0.18905999999999998,-0.11266,-1.7543,-2.0196
366,3.66,-0.29636,-0.037941,-0.18737,-0.52477,-1.5409,-2.0516
367,3.67,-0.28019,-0.095394,-0.20357,-0.93585,-1.2712,-1.9856
368,3.68,-0.27262,-0.16172999999999998,-0.22919,-1.3254,-1.0444,-1.8052
369,3.69,-0.2816,-0.23115,-0.24802,-1.6237,-0.9218799999999999,-1.4985
370,3.7,-0.28912,-0.28594,-0.24971999999999997,-1.7589,-0.91158,-1.1081
371,3.71,-0.28515999999999997,-0.30005,-0.21293,-1.6853,-0.95305,-0.7503
372,3.72,-0.26905,-0.22595,-0.16127,-1.4231,-1.0076,-0.56295
373,3.73,-0.25365,-0.11163,-0.1146,-1.0615,-1.0447,-0.59321
374,3.74,-0.22483000000000003,-0.012449,-0.07977000000000001,-0.67698,-1.1169,-0.8016300000000001
375,3.75,-0.16860999999999998,0.059878,-0.053937,-0.35746,-1.2503,-1.1168
376,3.76,-0.094407,0.088278,-0.029442000000000003,-0.15123,-1.4168,-1.4449
377,3.77,-0.017248,0.07119,-0.0018859999999999999,-0.072378,-1.5728,-1.6740000000000002
378,3.78,0.035088999999999995,0.040519,0.028526,-0.10279,-1.6822,-1.7432
379,3.79,0.078067,0.01789,0.063196,-0.19409,-1.7252,-1.6889
380,3.8,0.11578,0.009193000000000002,0.12002,-0.28731999999999996,-1.6894,-1.5493
381,3.81,0.13859000000000002,0.013328999999999999,0.17613,-0.34736999999999996,-1.6081,-1.3574
382,3.82,0.14776,0.016975,0.221,-0.36063,-1.5326,-1.1451
383,3.83,0.15111,0.030593000000000002,0.2584,-0.32711,-1.4947,-0.96047
384,3.84,0.16380999999999998,0.051925,0.29449000000000003,-0.24858000000000002,-1.4901,-0.8674799999999999
385,3.85,0.1748,0.066174,0.33042,-0.14207,-1.5091,-0.8608600000000001
386,3.86,0.18481,0.071699,0.35428000000000004,-0.027000000000000003,-1.5633,-0.91607
387,3.87,0.19605999999999998,0.068463,0.37311,0.076353,-1.6418,-1.0139
388,3.88,0.21179,0.052829999999999995,0.38643,0.15534,-1.7159,-1.1386
389,3.89,0.22224000000000002,0.032469,0.38140999999999997,0.1758,-1.767,-1.2591
390,3.9,0.22155,0.007495999999999999,0.36218,0.13463,-1.7709,-1.3531
391,3.91,0.21248000000000003,-0.017394,0.34415,0.047175999999999996,-1.6731,-1.4174
392,3.92,0.19714,-0.03306,0.32931,-0.040669,-1.4709999999999999,-1.4532
393,3.93,0.16910999999999998,-0.059861000000000004,0.3099,-0.098467,-1.2105,-1.4269999999999998
394,3.94,0.12334,-0.097275,0.2762,-0.12737,-0.9087799999999999,-1.3518
395,3.95,0.083599,-0.10450999999999999,0.2455,-0.10894000000000001,-0.56694,-1.2905
396,3.96,0.058422,-0.08164600000000001,0.19855,-0.035097,-0.26705999999999996,-1.2802
397,3.97,0.05315,-0.07660399999999999,0.12337000000000001,0.062775,-0.063224,-1.3242
398,3.98,0.080033,-0.12805999999999998,0.029651,0.19841,0.026336000000000002,-1.4212
399,3.99,0.13039,-0.23734,-0.049412,0.4019,0.037589,-1.5575
400,4.0,0.18228,-0.37538,-0.14110999999999999,0.6259100000000001,-0.059999000000000004,-1.7085
401,4.01,0.19616,-0.48207,-0.28800000000000003,0.755,-0.39236,-1.8102
402,4.02,0.13374,-0.5150100000000001,-0.51768,0.5775100000000001,-0.9716600000000001,-1.8041
403,4.03,0.00294,-0.44536000000000003,-0.71992,0.10073,-1.4346,-1.7188
404,4.04,-0.12769,-0.39461,-0.7845,-0.4648,-1.4972,-1.5969
405,4.05,-0.24086999999999997,-0.40876999999999997,-0.7767,-0.99466,-1.104,-1.4768
406,4.06,-0.33107,-0.3873,-0.75238,-1.411,-0.41863999999999996,-1.3955
407,4.07,-0.39115,-0.31421,-0.68807,-1.6440000000000001,0.35579,-1.3567
408,4.08,-0.40562,-0.25375,-0.59395,-1.6505,1.0186,-1.3429
409,4.09,-0.36332,-0.24089000000000002,-0.47644,-1.4353,1.3888,-1.3421
410,4.1,-0.28453,-0.2528,-0.34565,-1.0519,1.4293,-1.3447
411,4.11,-0.21235,-0.25977,-0.2242,-0.58275,1.1281,-1.3391
412,4.12,-0.15572,-0.25706,-0.1169,-0.12303,0.59045,-1.3171
413,4.13,-0.12325,-0.23195,-0.033044,0.24600000000000002,-0.071171,-1.2801
414,4.14,-0.12487000000000001,-0.19845,0.027201999999999997,0.485,-0.69552,-1.2124
415,4.15,-0.13565,-0.17648,0.079571,0.60023,-1.1686,-1.1153
416,4.16,-0.16128,-0.16423,0.12005999999999999,0.62203,-1.4247,-0.9738899999999999
417,4.17,-0.19249000000000002,-0.15161,0.16138,0.57396,-1.4533,-0.7946
418,4.18,-0.21806999999999999,-0.13688,0.18925999999999998,0.48331,-1.3291,-0.6039100000000001
419,4.19,-0.24784,-0.10633,0.18925999999999998,0.34429,-1.1278,-0.43266000000000004
420,4.2,-0.27015,-0.042204000000000005,0.18646,0.19501,-0.9178200000000001,-0.32868
421,4.21,-0.29702,0.036052,0.18625,0.06487799999999999,-0.7580100000000001,-0.2929
422,4.22,-0.33231,0.11535999999999999,0.19612000000000002,-0.009754,-0.63057,-0.31353000000000003
423,4.23,-0.35728000000000004,0.19722,0.21843,-0.015119,-0.54414,-0.38306999999999997
424,4.24,-0.37053,0.27074000000000004,0.23475,0.058046,-0.52866,-0.47903999999999997
425,4.25,-0.37994,0.32745,0.24416,0.17762999999999998,-0.58176,-0.58121
426,4.26,-0.37813,0.37905,0.25039,0.31499,-0.68613,-0.69607
427,4.27,-0.36286999999999997,0.43548000000000003,0.24347,0.43522,-0.81591,-0.8365299999999999
428,4.28,-0.34647,0.48807,0.2256,0.50866,-0.93889,-0.99736
429,4.29,-0.32696,0.52912,0.21228000000000002,0.5524899999999999,-1.036,-1.1711
430,4.3,-0.30918,0.55223,0.20888,0.5996100000000001,-1.1066,-1.3182
431,4.31,-0.30084,0.54597,0.20699,0.65175,-1.1709,-1.3927
432,4.32,-0.29543,0.5213800000000001,0.19161,0.70239,-1.2438,-1.3946
433,4.33,-0.28813,0.49515,0.17748,0.74978,-1.29,-1.3443
434,4.34,-0.28497,0.45074,0.16577,0.7952199999999999,-1.2852,-1.2514
435,4.35,-0.28129,0.39109,0.14498,0.8259299999999999,-1.2525,-1.1521
436,4.36,-0.25923,0.32964,0.11918,0.8407600000000001,-1.2367,-1.1019
437,4.37,-0.22565,0.26216999999999996,0.08001599999999999,0.79386,-1.2469,-1.1276
438,4.38,-0.19075,0.18463,0.02182,0.66579,-1.3118,-1.2259
439,4.39,-0.13591,0.088517,-0.050939,0.44278,-1.4185,-1.3948
440,4.4,-0.079933,-0.026641,-0.12796,0.17675,-1.5856,-1.5881
441,4.41,-0.064696,-0.12747999999999998,-0.17185999999999998,-0.087461,-1.7654,-1.7398
442,4.42,-0.081862,-0.1855,-0.20654,-0.33361,-1.8987,-1.8030000000000002
443,4.43,-0.10235,-0.23876,-0.22615,-0.55985,-1.8979,-1.7917
444,4.44,-0.11972000000000001,-0.29866,-0.23793000000000003,-0.76813,-1.7545,-1.7314
445,4.45,-0.12847,-0.32755,-0.25261,-0.961,-1.5378,-1.6468
446,4.46,-0.12457,-0.33991,-0.24786,-1.1078,-1.298,-1.5653
447,4.47,-0.12097000000000001,-0.3415,-0.2165,-1.1684,-1.0802,-1.4761
448,4.48,-0.12165,-0.34010999999999997,-0.16225,-1.1155,-0.9326,-1.3567
449,4.49,-0.11547,-0.32933,-0.098734,-0.96547,-0.90094,-1.2273
450,4.5,-0.092902,-0.29261,-0.04249,-0.7608199999999999,-0.9943799999999999,-1.1222
451,4.51,-0.057633000000000004,-0.23267,0.006077,-0.54801,-1.1709,-1.0767
452,4.52,-0.013971,-0.16898,0.052109,-0.36916,-1.3642,-1.0921
453,4.53,0.038718,-0.12045,0.099079,-0.24420999999999998,-1.5144,-1.1417
454,4.54,0.089059,-0.078891,0.13288,-0.19652999999999998,-1.5882,-1.196
455,4.55,0.13826,-0.043153,0.16848,-0.21746,-1.5603,-1.2345
456,4.56,0.18107,-0.021957,0.20999,-0.28047,-1.4383,-1.238
457,4.57,0.2127,-0.016803,0.25290999999999997,-0.35929,-1.2534,-1.183
458,4.58,0.23589000000000002,-0.026806,0.30048,-0.42558,-1.0643,-1.0659999999999998
459,4.59,0.25429,-0.050263999999999996,0.34395,-0.44783999999999996,-0.9353899999999999,-0.89015
460,4.6,0.27194,-0.084425,0.38335,-0.42599,-0.8814299999999999,-0.68953
461,4.61,0.29544000000000004,-0.11084000000000001,0.41023999999999994,-0.35767,-0.90455,-0.51859
462,4.62,0.30407,-0.11547,0.41561000000000003,-0.28192,-0.9788,-0.42226
463,4.63,0.30191,-0.1141,0.41171,-0.21634,-1.0454,-0.41563
464,4.64,0.29516,-0.12318,0.38691,-0.19484,-1.0615,-0.4732
465,4.65,0.28619,-0.13115,0.34335,-0.21721999999999997,-0.98345,-0.56838
466,4.66,0.26397,-0.14372000000000001,0.31526,-0.23329,-0.78501,-0.66375
467,4.67,0.23519,-0.15428,0.28849,-0.19779000000000002,-0.5209699999999999,-0.72713
468,4.68,0.20164,-0.18520999999999999,0.26125,-0.10897000000000001,-0.22439,-0.7339100000000001
469,4.69,0.1638,-0.20779,0.22594,0.017018000000000002,0.076097,-0.69793
470,4.7,0.13831,-0.18839,0.19314,0.18549000000000002,0.34321999999999997,-0.67783
471,4.71,0.13835999999999998,-0.18167,0.1687,0.39385,0.51413,-0.67883
472,4.72,0.15334,-0.22868000000000002,0.13057,0.6020399999999999,0.5316,-0.6806399999999999
473,4.73,0.17202,-0.2975,0.06518,0.76475,0.33419,-0.67681
474,4.74,0.17736,-0.35312,-0.036836,0.79072,-0.037894,-0.70172
475,4.75,0.15795,-0.38937,-0.18791,0.62079,-0.52445,-0.78335
476,4.76,0.10027,-0.40026,-0.34181,0.27474,-0.9178700000000001,-0.91455
477,4.77,0.019302,-0.37405,-0.42127,-0.13033,-0.98467,-1.0955
478,4.78,-0.07326,-0.32075,-0.441,-0.47596000000000005,-0.68648,-1.2696
479,4.79,-0.16058,-0.26295,-0.41913,-0.6904600000000001,-0.092126,-1.3777
480,4.8,-0.21081999999999998,-0.21614,-0.38145999999999997,-0.75549,0.56697,-1.4003
481,4.81,-0.21015999999999999,-0.19355999999999998,-0.3638,-0.72721,1.0686,-1.3467
482,4.82,-0.16972,-0.19242,-0.34621,-0.64058,1.2873,-1.252
483,4.83,-0.12903,-0.19885999999999998,-0.30843000000000004,-0.51168,1.2094,-1.1235
484,4.84,-0.092831,-0.21286999999999998,-0.25787,-0.34942,0.89994,-0.99569
485,4.85,-0.059240999999999995,-0.22058000000000003,-0.20569,-0.17005,0.43696,-0.90596
486,4.86,-0.054125,-0.20826,-0.15189,-0.003387,-0.03972,-0.8568
487,4.87,-0.07191399999999999,-0.17679,-0.09639099999999999,0.1187,-0.37959,-0.85065
488,4.88,-0.094574,-0.12771,-0.030115,0.21156,-0.52525,-0.8801200000000001
489,4.89,-0.11338,-0.07650900000000001,0.029182,0.25540999999999997,-0.5309,-0.90886
490,4.9,-0.12427,-0.040264999999999995,0.062533,0.22585,-0.48378999999999994,-0.89618
491,4.91,-0.13462000000000002,-0.007955,0.084785,0.12986,-0.43299,-0.8227899999999999
492,4.92,-0.1487,0.019645,0.10117999999999999,-0.000779,-0.41393,-0.69709
493,4.93,-0.17435,0.04829,0.11145999999999999,-0.13514,-0.44176000000000004,-0.5414399999999999
494,4.94,-0.20182,0.07009800000000001,0.1293,-0.21195999999999998,-0.4956,-0.41658999999999996
495,4.95,-0.2244,0.093692,0.16080999999999998,-0.20739000000000002,-0.54579,-0.34391
496,4.96,-0.25655,0.13801,0.17312,-0.15035,-0.59639,-0.30635999999999997
497,4.97,-0.28894000000000003,0.19724,0.18107,-0.07478,-0.61832,-0.30512
498,4.98,-0.31099,0.25158,0.1906,0.007645999999999999,-0.60405,-0.33703
499,4.99,-0.3208,0.29788000000000003,0.18885,0.076529,-0.5736399999999999,-0.40848
500,5.0,-0.31551999999999997,0.33812,0.17695,0.12397999999999999,-0.5718,-0.50553
501,5.01,-0.31331,0.36222,0.16396,0.14553,-0.6027899999999999,-0.59831
502,5.02,-0.31231,0.3657,0.15636,0.16884000000000002,-0.6679,-0.67287
503,5.03,-0.30823,0.3391,0.14654,0.18954000000000001,-0.7671399999999999,-0.70255
504,5.04,-0.31876,0.30721,0.13002,0.23119,-0.88259,-0.68092
505,5.05,-0.32815,0.28085,0.1247,0.31348000000000004,-0.97601,-0.64432
506,5.06,-0.34033,0.26218,0.12747999999999998,0.43573999999999996,-1.0058,-0.6045699999999999
507,5.07,-0.36417,0.26571,0.12959,0.58299,-0.98682,-0.5776600000000001
508,5.08,-0.3689,0.2651,0.11827,0.7315699999999999,-0.9709700000000001,-0.60625
509,5.09,-0.35536,0.24028000000000002,0.11294000000000001,0.8634799999999999,-0.9485100000000001,-0.7064
510,5.1,-0.3307,0.20276,0.09614400000000001,0.94014,-0.9404399999999999,-0.8749299999999999
511,5.11,-0.30067,0.14682,0.034801,0.8736200000000001,-0.9833700000000001,-1.0842
512,5.12,-0.26961,0.07221,-0.049089999999999995,0.64784,-1.0591,-1.2904
513,5.13,-0.2426,-0.014294,-0.1052,0.34407,-1.1235,-1.4542
514,5.14,-0.22988000000000003,-0.095779,-0.13398,0.028486,-1.1486,-1.5369
515,5.15,-0.24381999999999998,-0.15216,-0.15334,-0.26899,-1.1184,-1.5278
516,5.16,-0.26209,-0.18395999999999998,-0.17385,-0.55569,-1.0256,-1.4463
517,5.17,-0.28149,-0.18947999999999998,-0.19662000000000002,-0.8304799999999999,-0.89341,-1.3317
518,5.18,-0.29105,-0.19547,-0.21233000000000002,-1.0731,-0.74662,-1.2129
519,5.19,-0.28475,-0.22286999999999998,-0.21575999999999998,-1.2382,-0.63775,-1.1013
520,5.2,-0.28043,-0.25801999999999997,-0.20215999999999998,-1.2952,-0.60333,-0.9647899999999999
521,5.21,-0.26969,-0.28578000000000003,-0.16885,-1.2266,-0.62533,-0.8376100000000001
522,5.22,-0.24181,-0.28165,-0.11993,-1.0346,-0.70373,-0.74854
523,5.23,-0.21185,-0.24044000000000001,-0.06609,-0.77207,-0.80716,-0.70841
524,5.24,-0.17535,-0.18659,-0.011561,-0.48486,-0.9192799999999999,-0.71412
525,5.25,-0.12172999999999999,-0.14046,0.043992,-0.22939,-1.0215,-0.75726
526,5.26,-0.051160000000000004,-0.10254,0.099536,-0.02918,-1.1083,-0.82081
527,5.27,0.022175,-0.07371799999999999,0.14657,0.10061,-1.1914,-0.8791399999999999
528,5.28,0.08551900000000001,-0.05361900000000001,0.18727,0.14598,-1.2695,-0.90348
529,5.29,0.13330999999999998,-0.048089,0.21761,0.11442999999999999,-1.3311,-0.8799399999999999
530,5.3,0.16614,-0.05246,0.25004,0.037023,-1.3614,-0.81277
531,5.31,0.19897,-0.058660000000000004,0.28657,-0.05939199999999999,-1.3565,-0.72649
532,5.32,0.22934000000000002,-0.059696000000000006,0.31532,-0.14082999999999998,-1.3516,-0.64872
533,5.33,0.26506,-0.046131,0.33216999999999997,-0.20105,-1.3746,-0.59221
534,5.34,0.29628000000000004,-0.035758,0.33186,-0.24011,-1.4287,-0.54308
535,5.35,0.32037,-0.041236,0.32482,-0.24698,-1.4585,-0.49606999999999996
536,5.36,0.3387,-0.050073,0.32556999999999997,-0.22221,-1.4066,-0.4609
537,5.37,0.33676999999999996,-0.051517999999999994,0.3117,-0.19225,-1.2353,-0.41845
538,5.38,0.31472,-0.046275,0.28581999999999996,-0.17962999999999998,-0.9605100000000001,-0.36982
539,5.39,0.28431999999999996,-0.034326999999999996,0.25677,-0.1717,-0.6143,-0.33519
540,5.4,0.26643,-0.020488,0.23838,-0.13365,-0.25764000000000004,-0.33255
541,5.41,0.25379,-0.009295,0.23453000000000002,-0.031924,0.042045,-0.35318
542,5.42,0.23988,-0.00837,0.23283,0.12864,0.23255,-0.36712
543,5.43,0.2295,-0.014173,0.22821999999999998,0.34365999999999997,0.30217,-0.37006999999999995
544,5.44,0.22239,-0.01492,0.22404000000000002,0.58987,0.27138,-0.36959000000000003
545,5.45,0.22055999999999998,-0.02307,0.20531999999999997,0.83752,0.15106,-0.37215
546,5.46,0.22385,-0.078166,0.17163,1.0516,-0.026545999999999997,-0.35759
547,5.47,0.20815,-0.16777,0.12029000000000001,1.1924,-0.259,-0.30356
548,5.48,0.17556,-0.24816,0.020250999999999998,1.1898,-0.54038,-0.22621999999999998
549,5.49,0.1346,-0.32737,-0.10830999999999999,1.0231,-0.79482,-0.15561
550,5.5,0.07819,-0.40752,-0.23201999999999998,0.70527,-0.8945299999999999,-0.1293
551,5.51,-0.012941,-0.42113,-0.32766999999999996,0.29672,-0.77071,-0.16332
552,5.52,-0.10719000000000001,-0.36503,-0.37927,-0.12019,-0.40806,-0.27675
553,5.53,-0.15762,-0.30613,-0.38481,-0.45679,0.075504,-0.47031999999999996
554,5.54,-0.17412,-0.27969,-0.37748000000000004,-0.70177,0.5221100000000001,-0.69462
555,5.55,-0.17461,-0.2811,-0.379,-0.8767,0.8082699999999999,-0.88756
556,5.56,-0.16745,-0.27841,-0.37561,-1.0034,0.9032100000000001,-1.0107
557,5.57,-0.14979,-0.27116999999999997,-0.38032,-1.0945,0.80386,-1.0726
558,5.58,-0.12047000000000001,-0.2744,-0.36976,-1.1376,0.6071,-1.099
559,5.59,-0.098524,-0.26674000000000003,-0.31797,-1.0941,0.4437,-1.088
560,5.6,-0.0908,-0.2479,-0.24147,-0.9571799999999999,0.38605,-1.0428
561,5.61,-0.090181,-0.20801999999999998,-0.1648,-0.77582,0.42391,-0.97744
562,5.62,-0.084391,-0.15721,-0.10379000000000001,-0.5837600000000001,0.47658999999999996,-0.8971399999999999
563,5.63,-0.074045,-0.11126,-0.058758000000000005,-0.40726,0.46012,-0.80074
564,5.64,-0.065188,-0.07147300000000001,-0.018941999999999997,-0.25199,0.33724,-0.68284
565,5.65,-0.056797,-0.034483,0.022325,-0.1007,0.12168,-0.55625
566,5.66,-0.063574,0.001168,0.06577999999999999,0.044924,-0.13327,-0.42746000000000006
567,5.67,-0.070988,0.038462,0.11515999999999998,0.19175999999999999,-0.37861999999999996,-0.31149
568,5.68,-0.08856900000000001,0.071785,0.14954,0.29751,-0.56608,-0.20851
569,5.69,-0.10599000000000001,0.10357999999999999,0.17146,0.35601,-0.6795800000000001,-0.13882
570,5.7,-0.12009,0.1398,0.19044,0.365,-0.73935,-0.11522
571,5.71,-0.13767000000000001,0.17608,0.19729000000000002,0.31914000000000003,-0.75067,-0.1377
572,5.72,-0.15432,0.21173000000000003,0.19893,0.2481,-0.73192,-0.19229000000000002
573,5.73,-0.16119,0.23301999999999998,0.2087,0.19216,-0.70049,-0.26396
574,5.74,-0.15286,0.24314000000000002,0.20490999999999998,0.13297,-0.68605,-0.35161
575,5.75,-0.16257,0.25789,0.19236,0.086386,-0.68453,-0.42213999999999996
576,5.76,-0.18381,0.28408,0.17685,0.035762,-0.6425,-0.47568
577,5.77,-0.20851999999999998,0.31088000000000005,0.15454,0.002437,-0.5622699999999999,-0.5111
578,5.78,-0.2418,0.32711,0.14658,0.013241,-0.41103999999999996,-0.50921
579,5.79,-0.28179,0.32993,0.1551,0.10537,-0.20405,-0.46671999999999997
580,5.8,-0.29927,0.33196,0.17007,0.26716999999999996,0.038597,-0.42951000000000006
581,5.81,-0.2801,0.33481,0.17970999999999998,0.48365,0.28724,-0.43811000000000005
582,5.82,-0.25755,0.30611,0.19527,0.71477,0.48463,-0.46795
583,5.83,-0.21771,0.25043000000000004,0.1911,0.9035200000000001,0.55775,-0.54567
584,5.84,-0.156,0.1907,0.13209,0.97141,0.42201000000000005,-0.68514
585,5.85,-0.12365999999999999,0.11142,0.040324,0.87679,0.09794299999999999,-0.8427100000000001
586,5.86,-0.10712,0.017444,-0.037932,0.67124,-0.34351,-0.9821200000000001
587,5.87,-0.12389000000000001,-0.068879,-0.09606,0.37173,-0.75974,-1.0673
588,5.88,-0.16282,-0.12884,-0.14156,0.007025,-1.0125,-1.0835
589,5.89,-0.20581999999999998,-0.16333,-0.16508,-0.39537,-1.0124,-1.0522
590,5.9,-0.24051999999999998,-0.18041,-0.17174,-0.79928,-0.7832,-0.99136
591,5.91,-0.2616,-0.1853,-0.16533,-1.1659,-0.4169,-0.91259
592,5.92,-0.25281,-0.21441,-0.15325999999999998,-1.4609,-0.017108,-0.80707
593,5.93,-0.22102,-0.25325,-0.13915,-1.652,0.31254,-0.67989
594,5.94,-0.17467,-0.27718000000000004,-0.11145,-1.712,0.49937,-0.5437
595,5.95,-0.14337,-0.27463000000000004,-0.096506,-1.6595,0.47855,-0.40587
596,5.96,-0.12882000000000002,-0.22666,-0.086203,-1.4855,0.28734,-0.31023
597,5.97,-0.091146,-0.16257,-0.042558,-1.1816,0.006701,-0.29746999999999996
598,5.98,-0.05533099999999999,-0.11795,-0.0032450000000000005,-0.79752,-0.3001,-0.35497
599,5.99,-0.02667,-0.076822,0.026507,-0.414,-0.55679,-0.43498000000000003
600,6.0,0.001731,-0.041735,0.057046000000000006,-0.091646,-0.7106899999999999,-0.49712
601,6.01,0.032309,-0.019359,0.096403,0.14422000000000001,-0.71049,-0.51166
602,6.02,0.067584,-0.006265,0.14256,0.29534,-0.58286,-0.44438
603,6.03,0.09703300000000001,-0.026122000000000003,0.17778,0.35694000000000004,-0.39065,-0.29411
604,6.04,0.11950999999999999,-0.052319000000000004,0.20496,0.34898,-0.2043,-0.10765
605,6.05,0.14461,-0.068204,0.23084000000000002,0.29907,-0.07192899999999999,0.057475
606,6.06,0.17127,-0.079394,0.25109000000000004,0.22641,-0.017102000000000003,0.16826
607,6.07,0.18095999999999998,-0.08288,0.25742,0.15454,-0.043187,0.20340999999999998
608,6.08,0.18187,-0.08280900000000001,0.26554,0.09350900000000001,-0.092724,0.16496
609,6.09,0.1888,-0.091805,0.27403,0.071245,-0.13826,0.06360199999999999
610,6.1,0.18509,-0.10992,0.28098,0.098307,-0.15968,-0.048391
611,6.11,0.18056,-0.1284,0.2763,0.17135,-0.16655999999999999,-0.1582
612,6.12,0.17188,-0.12600999999999998,0.26289,0.25106,-0.11385999999999999,-0.22753
613,6.13,0.15597,-0.10658,0.23555,0.34371,-0.008053,-0.2361
614,6.14,0.14542,-0.087973,0.22721,0.4613,0.17742,-0.19673
615,6.15,0.13752999999999999,-0.073161,0.22286999999999998,0.6217199999999999,0.39448,-0.13919
616,6.16,0.13825,-0.06528400000000001,0.20315,0.80088,0.55705,-0.07619
617,6.17,0.13767000000000001,-0.051963,0.17465,0.9739899999999999,0.6301399999999999,-0.011975
618,6.18,0.14785,-0.043463,0.14878,1.1484,0.59668,0.048161
619,6.19,0.16605999999999999,-0.07432899999999999,0.12072000000000001,1.2995,0.45896000000000003,0.12552
620,6.2,0.18667999999999998,-0.12583,0.058885,1.3757,0.17265999999999998,0.21581999999999998
621,6.21,0.18878,-0.1596,-0.036321,1.3355,-0.27252,0.29552
622,6.22,0.18200999999999998,-0.18675,-0.16430999999999998,1.1381,-0.78774,0.32918000000000003
623,6.23,0.16284,-0.22139,-0.27481,0.84777,-1.2148,0.30594
624,6.24,0.099635,-0.22273,-0.32369000000000003,0.5603,-1.4234,0.2802
625,6.25,0.008990999999999999,-0.17682,-0.33168000000000003,0.29028000000000004,-1.2901,0.29657
626,6.26,-0.039742,-0.19016,-0.30068,0.12957,-0.8614200000000001,0.26245
627,6.27,-0.047285,-0.15005,-0.25454,0.042541,-0.30866,0.19941
628,6.28,-0.094057,-0.1024,-0.24148000000000003,-0.017662999999999998,0.13412000000000002,0.14302
629,6.29,-0.071857,-0.081137,-0.24065999999999999,-0.10637,0.34909,0.08912
630,6.3,-0.030246,-0.12977,-0.25471,-0.23417,0.36401999999999995,0.065389
631,6.31,-0.004478,-0.16852,-0.23079000000000002,-0.38092,0.28639000000000003,0.056732000000000005
632,6.32,0.011996,-0.17815,-0.20457999999999998,-0.5151399999999999,0.18412,0.066287
633,6.33,0.007745999999999999,-0.1781,-0.15332,-0.62435,0.15195999999999998,0.091772
634,6.34,0.000874,-0.1555,-0.11065,-0.71604,0.18678,0.12997999999999998
635,6.35,-0.008015000000000001,-0.11545,-0.054412,-0.77627,0.28101,0.16385999999999998
636,6.36,-0.023872,-0.076288,0.002082,-0.81415,0.36759000000000003,0.19994
637,6.37,-0.038702,-0.031779,0.026437000000000002,-0.86619,0.41381,0.22645
638,6.38,-0.056434000000000005,0.018049000000000003,0.044354000000000005,-0.9229299999999999,0.40148,0.24345
639,6.39,-0.083226,0.058814,0.058302,-0.9821700000000001,0.33695,0.25306999999999996
640,6.4,-0.13318,0.098151,0.059174000000000004,-1.0309,0.24251999999999999,0.25315
641,6.41,-0.1814,0.14175,0.061141999999999995,-1.0548,0.17242000000000002,0.22015
642,6.42,-0.20949,0.17153,0.08143500000000001,-1.0195,0.13066,0.13809000000000002
643,6.43,-0.23285999999999998,0.19050999999999998,0.094775,-0.93255,0.12368,0.012299
644,6.44,-0.25208,0.21816,0.11066,-0.8024899999999999,0.14834,-0.13802
645,6.45,-0.26203000000000004,0.25022,0.12111,-0.65841,0.18462,-0.30328
646,6.46,-0.25801999999999997,0.27638,0.11191,-0.53466,0.21254,-0.4675
647,6.47,-0.26035,0.30438000000000004,0.10175,-0.43892,0.22468000000000002,-0.60612
648,6.48,-0.26229,0.32592,0.10787000000000001,-0.34778000000000003,0.22403,-0.69882
649,6.49,-0.26275,0.32184,0.11399000000000001,-0.25306,0.17745999999999998,-0.72526
650,6.5,-0.27185,0.29228000000000004,0.10680999999999999,-0.1498,0.057180999999999996,-0.65442
651,6.51,-0.29772,0.2555,0.10269,-0.019469999999999998,-0.086854,-0.48956000000000005
652,6.52,-0.3178,0.22801999999999997,0.10657,0.15575999999999998,-0.1908,-0.282
653,6.53,-0.33111,0.2189,0.10607,0.38478,-0.2515,-0.09149700000000001
654,6.54,-0.35603,0.2309,0.10795999999999999,0.64564,-0.24418,0.030626999999999998
655,6.55,-0.37299,0.25777,0.12575999999999998,0.9228200000000001,-0.14629,0.02026
656,6.56,-0.35891,0.2804,0.12261,1.138,-0.010456,-0.1205
657,6.57,-0.3231,0.27118000000000003,0.073588,1.19,0.074602,-0.35005
658,6.58,-0.25984,0.22209,-0.005092,1.0442,0.084629,-0.63426
659,6.59,-0.19058,0.14503,-0.09128,0.73338,-0.00309,-0.9207
660,6.6,-0.145,0.043677999999999995,-0.15828,0.33514,-0.17115999999999998,-1.1314
661,6.61,-0.13144,-0.044572,-0.20359000000000002,-0.078878,-0.35946999999999996,-1.2107
662,6.62,-0.15937,-0.07785399999999999,-0.22116999999999998,-0.45883,-0.47148999999999996,-1.1514
663,6.63,-0.19483,-0.08697300000000001,-0.22575,-0.75858,-0.50115,-0.9981899999999999
664,6.64,-0.20959,-0.087002,-0.22511,-0.9714,-0.45799999999999996,-0.8321299999999999
665,6.65,-0.20425,-0.091968,-0.23081,-1.0922,-0.4028,-0.69794
666,6.66,-0.19055,-0.11375,-0.22860999999999998,-1.1262,-0.32696,-0.6074
667,6.67,-0.18127000000000001,-0.1426,-0.21361999999999998,-1.0674,-0.25934,-0.5230899999999999
668,6.68,-0.15738,-0.15859,-0.19063,-0.9257799999999999,-0.25206,-0.44493999999999995
669,6.69,-0.12215999999999999,-0.15219000000000002,-0.1583,-0.73569,-0.31338,-0.36551999999999996
670,6.7,-0.085575,-0.12199000000000002,-0.10339000000000001,-0.51277,-0.41863999999999996,-0.30517
671,6.71,-0.035726999999999995,-0.08404,-0.042755,-0.29645,-0.5643199999999999,-0.27145
672,6.72,0.021593,-0.055987999999999996,0.007398,-0.11137999999999999,-0.75767,-0.25264000000000003
673,6.73,0.095591,-0.045379,0.043931,0.019163999999999997,-0.9708100000000001,-0.24136
674,6.74,0.13732,-0.041155000000000004,0.087362,0.11374000000000001,-1.1091,-0.17157999999999998
675,6.75,0.13437000000000002,-0.035026,0.14212,0.18657,-1.1152,-0.024138
676,6.76,0.14274,-0.039602,0.18792,0.26099,-1.034,0.15837
677,6.77,0.16914,-0.063578,0.21261,0.30923,-0.90451,0.32047
678,6.78,0.19846,-0.07412,0.22994,0.34407,-0.76105,0.41315
679,6.79,0.21327,-0.06352000000000001,0.24777,0.36222,-0.61416,0.43213
680,6.8,0.22544,-0.061474,0.25911999999999996,0.3644,-0.49905,0.3903
681,6.81,0.25131,-0.070235,0.25766,0.33963000000000004,-0.4508,0.30051
682,6.82,0.27799,-0.07694,0.25084,0.29419,-0.46523000000000003,0.18945
683,6.83,0.29067,-0.087112,0.23955,0.24849000000000002,-0.49993000000000004,0.099771
684,6.84,0.28999,-0.10597999999999999,0.23881999999999998,0.24020999999999998,-0.49341999999999997,0.057048
685,6.85,0.28896,-0.11999000000000001,0.23975,0.2793,-0.41594,0.046306
686,6.86,0.2915,-0.12487000000000001,0.22432,0.34159,-0.23317,0.045025
687,6.87,0.28331999999999996,-0.11167,0.2054,0.40685,0.063578,0.057424
688,6.88,0.26281,-0.089568,0.19167,0.48091000000000006,0.41244,0.099632
689,6.89,0.2557,-0.07178999999999999,0.15671,0.54788,0.68782,0.16224
690,6.9,0.25371,-0.058626,0.096773,0.59137,0.8450799999999999,0.24956
691,6.91,0.25631,-0.044763,0.061877999999999996,0.6650699999999999,0.9040600000000001,0.32964
692,6.92,0.26981,-0.033433,0.046604,0.7981,0.89438,0.38219000000000003
693,6.93,0.28392,-0.034995,0.026688,0.96688,0.80558,0.41253
694,6.94,0.28541,-0.050887,-0.014147,1.1125,0.6231899999999999,0.4494
695,6.95,0.27421,-0.063428,-0.087536,1.1604,0.36275999999999997,0.48196000000000006
696,6.96,0.25447,-0.076883,-0.18514,1.0729,0.099202,0.49081
697,6.97,0.22649,-0.099463,-0.26642,0.87844,-0.081388,0.46624
698,6.98,0.19496,-0.11205,-0.32177,0.62143,-0.10690999999999999,0.39966
699,6.99,0.14891,-0.09422799999999999,-0.35198,0.34779,0.044618,0.31566
700,7.0,0.097786,-0.05764400000000001,-0.34325,0.12022999999999999,0.36517,0.2496
701,7.01,0.068127,-0.052830999999999996,-0.30635,-0.014212,0.74992,0.2252
702,7.02,0.059204,-0.074671,-0.27855,-0.087715,1.0457,0.24269000000000002
703,7.03,0.071864,-0.074823,-0.28002,-0.165,1.1358,0.26588
704,7.04,0.08691900000000001,-0.057221,-0.29612,-0.27906,1.0185,0.2755
705,7.05,0.091681,-0.05984400000000001,-0.31454,-0.44001,0.77256,0.27671999999999997
706,7.06,0.096091,-0.071464,-0.32075,-0.62747,0.5322399999999999,0.25334
707,7.07,0.08695,-0.062189,-0.28583000000000003,-0.77862,0.4195,0.21699000000000002
708,7.08,0.059264,-0.030285000000000003,-0.22863000000000003,-0.8645,0.47138,0.19113
709,7.09,0.040839,0.002487,-0.16591,-0.87923,0.61964,0.17482999999999999
710,7.1,0.023231,0.039132,-0.097841,-0.81621,0.77575,0.19388
711,7.11,0.011056,0.067946,-0.04446,-0.71134,0.84835,0.24836999999999998
712,7.12,0.007854,0.08871799999999999,-0.008634000000000001,-0.58518,0.79927,0.33086
713,7.13,0.008577,0.10355,0.024658000000000003,-0.43849,0.65518,0.4253
714,7.14,-0.0010949999999999998,0.11475,0.048188999999999996,-0.28569,0.47267,0.51662
715,7.15,-0.025877999999999998,0.12752,0.063273,-0.14006,0.31795,0.5907899999999999
716,7.16,-0.060865999999999996,0.15392,0.067896,-0.01489,0.25187,0.63169
717,7.17,-0.074431,0.18491,0.085853,0.098509,0.29462,0.6392800000000001
718,7.18,-0.08467999999999999,0.18875999999999998,0.10525999999999999,0.20063,0.39393,0.64782
719,7.19,-0.067725,0.17434000000000002,0.10102,0.24525,0.50758,0.6541100000000001
720,7.2,-0.050267,0.18004,0.095483,0.24581,0.58323,0.6593100000000001
721,7.21,-0.043930000000000004,0.19745,0.10081,0.21281,0.59841,0.66776
722,7.22,-0.047046,0.21605,0.10336,0.16940999999999998,0.5220199999999999,0.69024
723,7.23,-0.059620000000000006,0.23064,0.089877,0.12204000000000001,0.35507,0.72568
724,7.24,-0.088266,0.24881,0.074115,0.09675299999999999,0.15704,0.76975
725,7.25,-0.1273,0.26065,0.067954,0.11756,-0.010487,0.8223799999999999
726,7.26,-0.17372,0.26421999999999995,0.069979,0.20288,-0.10504000000000001,0.89207
727,7.27,-0.21894,0.27397,0.086046,0.3551,-0.10636,0.9606600000000001
728,7.28,-0.24639,0.28086,0.10568,0.56892,-0.033563,0.99185
729,7.29,-0.24813000000000002,0.27221999999999996,0.12057000000000001,0.81333,0.087007,0.9547
730,7.3,-0.23569,0.25403000000000003,0.12609,1.0571,0.21299,0.84603
731,7.31,-0.21181999999999998,0.23054000000000002,0.10518,1.2368,0.30546,0.67753
732,7.32,-0.16615,0.20349,0.055107,1.3029,0.30406,0.4695
733,7.33,-0.11849000000000001,0.15444000000000002,-0.022474,1.2103,0.19634000000000001,0.26886
734,7.34,-0.090678,0.07891000000000001,-0.11840999999999999,0.9748399999999999,0.020475,0.12359
735,7.35,-0.08089,0.015774,-0.1875,0.67111,-0.12505,0.034730000000000004
736,7.36,-0.089901,-0.014547999999999998,-0.2215,0.37298000000000003,-0.20248,0.000193
737,7.37,-0.11642000000000001,-0.028193,-0.23842,0.10837000000000001,-0.19286,0.016796000000000002
738,7.38,-0.13909000000000002,-0.046518000000000004,-0.24572,-0.12145999999999998,-0.09509,0.047179
739,7.39,-0.14887999999999998,-0.068128,-0.24931999999999999,-0.3367,0.079301,0.056105999999999996
740,7.4,-0.14886,-0.083135,-0.25019,-0.53764,0.28451,0.030846
741,7.41,-0.12559,-0.094093,-0.24731999999999998,-0.71848,0.45548,-0.018869
742,7.42,-0.094644,-0.11235,-0.2375,-0.8596299999999999,0.5270100000000001,-0.053397
743,7.43,-0.06643500000000001,-0.1378,-0.20751999999999998,-0.9292,0.51264,-0.033211000000000004
744,7.44,-0.032575,-0.16136,-0.15323,-0.9087299999999999,0.4474,0.037388
745,7.45,0.004424,-0.16951,-0.08985599999999999,-0.8064899999999999,0.358,0.14553
746,7.46,0.040033,-0.15095999999999998,-0.027975999999999997,-0.64789,0.26065,0.2762
747,7.47,0.077947,-0.12703,0.024343,-0.47552,0.1536,0.41438
748,7.48,0.1221,-0.11045,0.0693,-0.30421,0.045481,0.5515
749,7.49,0.16954,-0.096718,0.1168,-0.13387000000000002,-0.05409,0.67899
750,7.5,0.21375999999999998,-0.09247899999999999,0.16652,0.041847,-0.15157,0.8022199999999999
751,7.51,0.25293000000000004,-0.094054,0.21066,0.20617,-0.21270999999999998,0.91469
752,7.52,0.281,-0.093706,0.24871,0.34643,-0.23313000000000003,0.9960899999999999
753,7.53,0.30733,-0.08597,0.27731999999999996,0.45324,-0.20739000000000002,1.0154
754,7.54,0.33131,-0.071523,0.29729,0.52004,-0.15036,0.9781
755,7.55,0.34914,-0.051370000000000006,0.29916,0.53573,-0.10459,0.9011899999999999
756,7.56,0.36882,-0.027498,0.28846,0.49285,-0.054059,0.80923
757,7.57,0.39960999999999997,-0.008883,0.2763,0.41272,0.018076,0.73211
758,7.58,0.42315,0.006324000000000001,0.26536,0.32004,0.151,0.7029
759,7.59,0.43943000000000004,0.027750999999999998,0.27004,0.25551,0.37634,0.73761
760,7.6,0.46113999999999994,0.04674,0.27453,0.24868,0.64272,0.82039
761,7.61,0.48316000000000003,0.072537,0.27151,0.3087,0.88292,0.93748
762,7.62,0.5092300000000001,0.10662999999999999,0.24919000000000002,0.42941,0.9926,1.0837
763,7.63,0.52088,0.14018,0.19568,0.57029,0.96357,1.2431
764,7.64,0.51172,0.1793,0.13918,0.7186,0.91425,1.3779
765,7.65,0.5139,0.21436999999999998,0.093082,0.8909999999999999,0.90317,1.4497
766,7.66,0.51778,0.21974000000000002,0.030621,1.0628,0.9336700000000001,1.4991
767,7.67,0.53542,0.16990999999999998,-0.0359,1.2243,1.0122,1.5473
768,7.68,0.59004,0.089013,-0.098414,1.3815,1.078,1.5805
769,7.69,0.64842,0.0066760000000000005,-0.19388,1.4316,1.0925,1.5976
770,7.7,0.6734,-0.047149,-0.34481,1.2879,1.0105,1.6274
771,7.71,0.6791,-0.082517,-0.50048,0.9470799999999999,0.9515399999999999,1.6248
772,7.72,0.6896899999999999,-0.10226,-0.62259,0.47803999999999996,0.9757,1.577
773,7.73,0.63042,-0.061937,-0.6996399999999999,-0.06340900000000001,1.1613,1.5490000000000002
774,7.74,0.5603,-0.019756,-0.7287899999999999,-0.5492,1.5266,1.5582
775,7.75,0.5190600000000001,-0.022518,-0.71109,-0.89607,1.9513,1.6209
776,7.76,0.48389,-0.019996,-0.71746,-1.1245,2.2739,1.7278
777,7.77,0.45898999999999995,0.027264,-0.7267600000000001,-1.2434,2.4186,1.8468
778,7.78,0.43358,0.076335,-0.7049,-1.2428,2.4131,1.9333
779,7.79,0.4098,0.10442,-0.6613,-1.1444,2.3249,1.9593
780,7.8,0.38301999999999997,0.13246,-0.59841,-0.96491,2.1978,1.9139
781,7.81,0.35235,0.15185,-0.5263,-0.74549,2.0874,1.8109
782,7.82,0.31556999999999996,0.16857,-0.45876000000000006,-0.54698,2.0113,1.6780000000000002
783,7.83,0.28195,0.19864,-0.40488,-0.41741000000000006,1.9763,1.5288
784,7.84,0.25251999999999997,0.23914000000000002,-0.34351,-0.35181,1.9567,1.3892
785,7.85,0.23360999999999998,0.2634,-0.27516,-0.35028000000000004,1.9493,1.2835
786,7.86,0.22184,0.27839,-0.22311999999999999,-0.42706000000000005,1.9212,1.2322
787,7.87,0.20019,0.29952,-0.18344000000000002,-0.56743,1.8499,1.2385
788,7.88,0.1692,0.32095,-0.13302999999999998,-0.72755,1.7553,1.3173
789,7.89,0.11805999999999998,0.33741,-0.069731,-0.84882,1.6357,1.4817
790,7.9,0.050594,0.33848,0.002999,-0.8753,1.5344,1.7071
791,7.91,0.010196,0.32049,0.077511,-0.77572,1.446,1.923
792,7.92,-0.022955,0.30755,0.1468,-0.56065,1.3577,2.0879
793,7.93,-0.048788,0.30195,0.19287,-0.29730999999999996,1.2468,2.1622
794,7.94,-0.076389,0.29819,0.21743,-0.047451,1.135,2.1575
795,7.95,-0.093687,0.28376,0.2291,0.14128,1.0759999999999998,2.0875
796,7.96,-0.09725,0.25987,0.22436,0.25781,1.0357,1.9746
797,7.97,-0.11375999999999999,0.23403000000000002,0.20618000000000003,0.28594,1.0090000000000001,1.8531
798,7.98,-0.11994,0.21896,0.16877999999999999,0.23614000000000002,0.9743299999999999,1.7303
799,7.99,-0.10535,0.2101,0.11814000000000001,0.1328,0.93479,1.6373
800,8.0,-0.1079,0.18786,0.060534000000000004,0.023814,0.91863,1.6425
801,8.01,-0.1135,0.1698,0.02877,-0.004070000000000001,0.96245,1.7416
802,8.02,-0.10072,0.16988,0.01128,0.095237,1.0638,1.8846
803,8.03,-0.10205,0.18234,-0.014965000000000001,0.29569,1.1462,2.0439
804,8.04,-0.093019,0.21169000000000002,-0.066385,0.564,1.1481,2.1586
805,8.05,-0.057084,0.22146,-0.13627999999999998,0.87498,0.9654,2.1947
806,8.06,-0.013959000000000001,0.20304,-0.21347,1.1922,0.57921,2.1564
807,8.07,0.012727,0.18392999999999998,-0.28292,1.4981,0.086605,2.0713
808,8.08,0.032356,0.17278,-0.33888,1.7515,-0.33092,1.9263
809,8.09,0.036003,0.17705,-0.3506,1.9386,-0.53793,1.7444
810,8.1,0.046377,0.16055,-0.34459,2.0092,-0.50952,1.5342
811,8.11,0.08516599999999999,0.12584,-0.32006999999999997,1.9296,-0.32961999999999997,1.3139
812,8.12,0.13483,0.082425,-0.33454,1.6109,-0.14882,1.1027
813,8.13,0.16492,0.020125999999999998,-0.41735,1.0139,-0.058488,0.94357
814,8.14,0.1693,-0.02598,-0.49448000000000003,0.21044000000000002,0.004714,0.83746
815,8.15,0.12647,-0.026005,-0.51563,-0.6501,0.17275,0.79511
816,8.16,0.068351,0.010598999999999999,-0.45993999999999996,-1.3539,0.48863,0.7965300000000001
817,8.17,0.055729999999999995,0.04799,-0.34493,-1.7584,0.8851600000000001,0.80688
818,8.18,0.075538,0.078071,-0.18667,-1.7901,1.2083,0.83614
819,8.19,0.10497000000000001,0.086388,-0.031173000000000003,-1.4665,1.3025,0.92086
820,8.2,0.14894000000000002,0.06279900000000001,0.079329,-0.93401,1.1211,1.0502
821,8.21,0.20888,0.047139,0.13783,-0.3423,0.7388600000000001,1.1693
822,8.22,0.27283,0.041691000000000006,0.16579000000000002,0.20583,0.2249,1.2566
823,8.23,0.31648000000000004,0.007716,0.18245,0.6343300000000001,-0.303,1.35
824,8.24,0.33819,-0.04142,0.18523,0.8981899999999999,-0.7262,1.4612
825,8.25,0.34633,-0.07507799999999999,0.19004000000000001,1.0123,-0.9308,1.5802
826,8.26,0.35168,-0.088712,0.19888,0.9920399999999999,-0.85934,1.6825
827,8.27,0.3569,-0.083744,0.20332999999999998,0.87466,-0.5483600000000001,1.7575
828,8.28,0.36759000000000003,-0.065647,0.20501999999999998,0.6933199999999999,-0.11534000000000001,1.8013
829,8.29,0.37790999999999997,-0.048323000000000005,0.19852,0.47181999999999996,0.35106,1.8204
830,8.3,0.39955,-0.027175,0.1975,0.26688,0.73637,1.8161
831,8.31,0.43388999999999994,-0.012742,0.20434000000000002,0.1335,0.99003,1.7973
832,8.32,0.4706,-0.007142,0.22851999999999997,0.1048,1.1245,1.7789
833,8.33,0.50943,0.005468,0.23814000000000002,0.15734,1.1401,1.7523
834,8.34,0.54401,0.025133000000000003,0.22746999999999998,0.2765,1.0721,1.7088
835,8.35,0.55584,0.052635,0.2191,0.43183,0.98665,1.6601
836,8.36,0.55765,0.086621,0.18649000000000002,0.59044,0.91294,1.6125
837,8.37,0.55269,0.12229000000000001,0.14097,0.71438,0.9098299999999999,1.5722
838,8.38,0.53138,0.15927,0.08316599999999999,0.79951,1.0082,1.5636
839,8.39,0.5079,0.20851999999999998,0.034604,0.8671,1.2101,1.5975
840,8.4,0.48149,0.2525,-0.010178,0.92312,1.4695,1.6932
841,8.41,0.45445,0.28764,-0.06310700000000001,0.98316,1.7257,1.8306
842,8.42,0.44988999999999996,0.3055,-0.10264000000000001,1.0867,1.9549,1.9723
843,8.43,0.48061000000000004,0.27245,-0.12630999999999998,1.2559,2.0983,2.0834
844,8.44,0.5272100000000001,0.19968,-0.16965,1.4519,2.1052,2.1445
845,8.45,0.57573,0.13796,-0.24266,1.6012,1.942,2.1216
846,8.46,0.60249,0.082373,-0.35407,1.61,1.6458,2.0239
847,8.47,0.58278,0.039724,-0.45583999999999997,1.4996,1.3602,1.8834
848,8.48,0.55069,-0.007326999999999999,-0.50103,1.3029,1.2064,1.7168
849,8.49,0.49228999999999995,-0.04326,-0.5262899999999999,1.018,1.2462,1.5636
850,8.5,0.43323,-0.07476000000000001,-0.5335,0.64489,1.4764,1.4398
851,8.51,0.40323000000000003,-0.15166,-0.53861,0.19028,1.7967,1.3295
852,8.52,0.3579,-0.1923,-0.54888,-0.31215,2.0311,1.2567
853,8.53,0.28079,-0.19122999999999998,-0.53994,-0.81075,2.1194,1.2536
854,8.54,0.20034000000000002,-0.20313,-0.50713,-1.2506,2.1155,1.2923
855,8.55,0.11657000000000001,-0.18549000000000002,-0.44698000000000004,-1.5918,2.1364,1.296
856,8.56,0.041572000000000005,-0.13887,-0.36135,-1.8103,2.2502,1.2153
857,8.57,-0.021862,-0.092046,-0.25938,-1.9101,2.476,1.044
858,8.58,-0.065592,-0.033304,-0.16444,-1.9222,2.6884,0.81622
859,8.59,-0.093002,0.026656,-0.099723,-1.8971,2.7492,0.5856
860,8.6,-0.11855,0.059914999999999996,-0.061424,-1.8367,2.5752,0.39815
861,8.61,-0.13088,0.066058,-0.031038,-1.7291,2.1994,0.25276
862,8.62,-0.13187000000000001,0.058903,-0.000567,-1.5712,1.7314,0.15673
863,8.63,-0.12529,0.052439,0.013437000000000001,-1.3874,1.2249,0.13446
864,8.64,-0.1255,0.058696000000000005,0.01635,-1.2057,0.77361,0.20495
865,8.65,-0.14626,0.061904999999999995,0.026139,-1.0165,0.40636,0.39378
866,8.66,-0.18284,0.045357999999999996,0.050214,-0.82111,0.19347,0.67416
867,8.67,-0.21574000000000002,0.03085,0.074796,-0.60982,0.12002,0.9778
868,8.68,-0.24375,0.046096,0.093422,-0.3977,0.12971,1.2461
869,8.69,-0.26764,0.07406,0.087219,-0.20127,0.12577,1.4311
870,8.7,-0.2742,0.096808,0.057211,-0.032422,0.057199,1.4806
871,8.71,-0.27496,0.13509000000000002,0.034373,0.13978,-0.06881799999999999,1.4064
872,8.72,-0.28073000000000004,0.17807,0.036439,0.33564,-0.21946999999999997,1.2597
873,8.73,-0.27941,0.20354,0.047862,0.54145,-0.34352,1.0831
874,8.74,-0.27204,0.21706,0.067253,0.75951,-0.39948,0.9095700000000001
875,8.75,-0.25311,0.21727,0.095841,0.97703,-0.37128,0.76686
876,8.76,-0.22259,0.20238,0.11769,1.1934,-0.31119,0.69242
877,8.77,-0.19113,0.17509,0.13751,1.4062,-0.25006999999999996,0.69801
878,8.78,-0.15642,0.14145,0.1404,1.5844,-0.21216999999999997,0.75483
879,8.79,-0.12080999999999999,0.11118,0.12090999999999999,1.7067,-0.21965,0.8244299999999999
880,8.8,-0.09031900000000001,0.080805,0.085855,1.7468,-0.25731,0.8597899999999999
881,8.81,-0.057587,0.054154999999999995,0.03588,1.6876,-0.3282,0.83954
882,8.82,-0.037562,0.029629000000000003,-0.034058,1.4964,-0.40965,0.76143
883,8.83,-0.020506,0.0040420000000000005,-0.10887999999999999,1.1966,-0.49228999999999995,0.62229
884,8.84,-0.009244,-0.025705000000000002,-0.17277,0.8446100000000001,-0.5957600000000001,0.43293999999999994
885,8.85,0.000718,-0.056413,-0.207,0.50338,-0.71525,0.20413
886,8.86,0.002897,-0.08128300000000001,-0.21802,0.21223000000000003,-0.8277200000000001,-0.0032530000000000002
887,8.87,-0.0074719999999999995,-0.11765999999999999,-0.21799000000000002,-0.030987999999999998,-0.8991100000000001,-0.12737
888,8.88,-0.016755000000000003,-0.16831,-0.22705,-0.26987,-0.9077700000000001,-0.16299
889,8.89,-0.02114,-0.19619,-0.22923000000000002,-0.49325,-0.80898,-0.14007
890,8.9,-0.031045,-0.19339,-0.20461,-0.67866,-0.60506,-0.075638
891,8.91,-0.022466,-0.18792999999999999,-0.16602,-0.8101,-0.31422,0.003677
892,8.92,0.0077469999999999995,-0.1821,-0.12019,-0.8729899999999999,0.00484,0.075589
893,8.93,0.055464,-0.17582,-0.065944,-0.86269,0.25618,0.12533
894,8.94,0.11133,-0.16975,-0.02503,-0.79159,0.36319,0.16049000000000002
895,8.95,0.16243,-0.16463,0.0087,-0.6771,0.30039,0.20883000000000002
896,8.96,0.2128,-0.17062,0.042266000000000005,-0.5254,0.10513,0.28202
897,8.97,0.26384,-0.1886,0.079525,-0.337,-0.15547,0.38208000000000003
898,8.98,0.30949,-0.20328,0.1247,-0.11555,-0.41422,0.49286
899,8.99,0.34241,-0.19804000000000002,0.16894,0.13607,-0.62953,0.61216
900,9.0,0.37354,-0.177,0.2102,0.39689,-0.76925,0.71746
901,9.01,0.40498,-0.16109,0.23617,0.64444,-0.8491700000000001,0.8002199999999999
902,9.02,0.42202,-0.15261,0.25679,0.8479700000000001,-0.83175,0.8806
903,9.03,0.43986000000000003,-0.14518,0.2659,0.97525,-0.74762,0.95219
904,9.04,0.47325,-0.13853,0.2557,0.9960399999999999,-0.64875,1.0065
905,9.05,0.49423,-0.14759,0.22593000000000002,0.92714,-0.56192,1.0564
906,9.06,0.49972,-0.15815,0.22148,0.81999,-0.45665,1.0998
907,9.07,0.50654,-0.15713,0.20364000000000002,0.68101,-0.34364,1.1239
908,9.08,0.49355,-0.14885,0.15625999999999998,0.5242,-0.19530999999999998,1.1394
909,9.09,0.45361,-0.14490999999999998,0.13885,0.40452,0.050756,1.1419
910,9.1,0.40618000000000004,-0.13051,0.14051,0.35736999999999997,0.40389,1.1081
911,9.11,0.36216,-0.098773,0.12470999999999999,0.34826999999999997,0.8206899999999999,1.0337
912,9.12,0.31289,-0.065082,0.09363099999999999,0.34668000000000004,1.2257,0.93374
913,9.13,0.28279,-0.038273,0.064109,0.36277,1.5678,0.82216
914,9.14,0.25914,-0.019999,0.038145,0.39899999999999997,1.7828,0.74392
915,9.15,0.24503000000000003,-0.011233,0.012314,0.46492,1.8601,0.7012
916,9.16,0.2503,-0.011325,0.0043170000000000005,0.5938399999999999,1.8228,0.67694
917,9.17,0.25879,-0.020364,0.0035979999999999996,0.7742399999999999,1.6935,0.66467
918,9.18,0.27276,-0.033476,-0.018262999999999998,0.9561700000000001,1.4906,0.65894
919,9.19,0.26966,-0.043814,-0.06511499999999999,1.0768,1.2392,0.66493
920,9.2,0.25963,-0.063752,-0.12637,1.1154,0.99697,0.66542
921,9.21,0.24084,-0.09611900000000001,-0.19491,1.0844,0.83847,0.6475
922,9.22,0.20065999999999998,-0.12158,-0.25845,0.99756,0.76889,0.61652
923,9.23,0.15703,-0.13022,-0.33157,0.83983,0.75959,0.56716
924,9.24,0.11835999999999999,-0.12240999999999999,-0.39589,0.6291800000000001,0.80081,0.51122
925,9.25,0.086639,-0.11894,-0.41778000000000004,0.40736,0.9092600000000001,0.45087
926,9.26,0.065816,-0.10905,-0.40683,0.20944000000000002,1.0708,0.39154
927,9.27,0.048106,-0.092564,-0.3776,0.039392,1.2608,0.34820999999999996
928,9.28,0.037087,-0.08419700000000001,-0.33945,-0.10325,1.4272,0.33486
929,9.29,0.035557,-0.08195,-0.30289,-0.23683,1.5455,0.35363
930,9.3,0.038661,-0.081976,-0.26848,-0.3519,1.5858,0.38432
931,9.31,0.04427,-0.084768,-0.2335,-0.43983,1.5471,0.40985
932,9.32,0.043675,-0.083642,-0.19621,-0.49717,1.4485,0.4142
933,9.33,0.037271,-0.066002,-0.16218,-0.53128,1.3039,0.39091
934,9.34,0.027605,-0.035972000000000004,-0.13477999999999998,-0.5504899999999999,1.1389,0.3378
935,9.35,0.018097,-0.008328,-0.10853,-0.56005,0.96431,0.2623
936,9.36,-0.0018629999999999999,0.015834,-0.08174,-0.54597,0.8182699999999999,0.20067000000000002
937,9.37,-0.031399,0.034573,-0.046337,-0.50812,0.72741,0.16781
938,9.38,-0.050720999999999995,0.05227999999999999,-0.011483,-0.4487,0.67579,0.15199000000000001
939,9.39,-0.063377,0.073199,0.019902,-0.37861999999999996,0.6379100000000001,0.15859
940,9.4,-0.07254400000000001,0.085191,0.05426,-0.3035,0.59354,0.2143
941,9.41,-0.074811,0.080975,0.086314,-0.22655999999999998,0.5342,0.3106
942,9.42,-0.06411599999999999,0.06619900000000001,0.11682000000000001,-0.14344,0.45243,0.41336000000000006
943,9.43,-0.057998,0.055664,0.14124,-0.065581,0.36964,0.50117
944,9.44,-0.060921,0.058388999999999996,0.14388,-0.017254,0.29888000000000003,0.53874
945,9.45,-0.067151,0.076565,0.12007000000000001,-0.019701,0.23713,0.50255
946,9.46,-0.085327,0.10954000000000001,0.08161900000000001,-0.070684,0.21101,0.41071
947,9.47,-0.10549000000000001,0.14517,0.046173,-0.12962,0.22868000000000002,0.27609
948,9.48,-0.12497,0.17240999999999998,0.009271,-0.16577,0.29091999999999996,0.13929
949,9.49,-0.14611,0.19254000000000002,-0.005769,-0.12287999999999999,0.38658000000000003,0.035654000000000005
950,9.5,-0.14611,0.19254000000000002,-0.005769,-0.12287999999999999,0.38658000000000003,0.035654000000000005
951,9.51,-0.16357,0.19629000000000002,0.014262,0.039468,0.52274,0.00474
952,9.52,-0.17149,0.18783,0.048769,0.31053000000000003,0.68883,0.044411
953,9.53,-0.1693,0.17645,0.087298,0.68188,0.7592,0.14527
954,9.54,-0.1448,0.14557,0.09967899999999999,1.0544,0.7208399999999999,0.2666
955,9.55,-0.11218,0.12730999999999998,0.10685,1.4015,0.56017,0.36248
956,9.56,-0.097929,0.12412999999999999,0.10640999999999999,1.6652,0.33524,0.4071
957,9.57,-0.07282999999999999,0.097508,0.062385,1.7753,0.065846,0.36613
958,9.58,-0.045894,0.055016999999999996,-0.006783,1.7268,-0.1979,0.24376
959,9.59,-0.052792,0.023156,-0.072588,1.5592,-0.43186,0.097652
960,9.6,-0.082011,0.003153,-0.1286,1.3121,-0.60019,-0.03377
961,9.61,-0.11709000000000001,-0.013757,-0.16397,1.0261,-0.6638,-0.12275
962,9.62,-0.15824000000000002,-0.013909999999999999,-0.18126,0.73656,-0.59745,-0.15539
963,9.63,-0.17977,-0.015766,-0.17165999999999998,0.47898999999999997,-0.38753000000000004,-0.16047999999999998
964,9.64,-0.17992,-0.037037,-0.13367,0.26813000000000003,-0.066122,-0.1518
965,9.65,-0.1559,-0.058288,-0.10162,0.074411,0.2626,-0.14418
966,9.66,-0.11535,-0.074382,-0.07896900000000001,-0.11058,0.49213999999999997,-0.12249000000000002
967,9.67,-0.073518,-0.09855900000000001,-0.055564999999999996,-0.2872,0.58199,-0.07812000000000001
968,9.68,-0.030912000000000002,-0.11771,-0.029907,-0.43277,0.56075,-0.017493
969,9.69,0.006285,-0.11777,0.0075120000000000004,-0.53181,0.49223,0.050769999999999996
970,9.7,0.031159,-0.1044,0.050443,-0.5746600000000001,0.39233,0.1384
971,9.71,0.045273,-0.09850700000000001,0.074512,-0.58465,0.2719,0.2368
972,9.72,0.05354400000000001,-0.09059600000000001,0.09073200000000001,-0.57315,0.16834000000000002,0.33093
973,9.73,0.06283899999999999,-0.072541,0.11197,-0.52595,0.10927,0.4005
974,9.74,0.072274,-0.056264,0.13327,-0.45464,0.10758,0.43371000000000004
975,9.75,0.087767,-0.035682,0.15825999999999998,-0.35504,0.15577,0.43700000000000006
976,9.76,0.11123,-0.025138,0.19050999999999998,-0.24336999999999998,0.23265999999999998,0.41785
977,9.77,0.14022,-0.024828,0.22688000000000003,-0.11678,0.30517,0.39659
978,9.78,0.16856,-0.022369,0.26288,-0.00447,0.3309,0.38073
979,9.79,0.19075999999999999,-0.0070680000000000005,0.2837,0.076408,0.29615,0.36705
980,9.8,0.20913,0.009589,0.29251,0.11838,0.19992000000000001,0.35128000000000004
981,9.81,0.21529,0.009370999999999999,0.28708,0.11532,0.076346,0.34081999999999996
982,9.82,0.22265,0.003624,0.26932,0.078317,-0.026691000000000003,0.32066
983,9.83,0.22946,0.001201,0.24984,0.034606,-0.044410000000000005,0.28539000000000003
984,9.84,0.22988000000000003,-0.004189,0.24156,0.008025,0.08051799999999999,0.2531
985,9.85,0.22513000000000002,-0.017394999999999997,0.24598000000000003,0.011501,0.37567,0.24191
986,9.86,0.22726,-0.017218,0.24697,0.039986,0.74093,0.24986
987,9.87,0.24549,-0.009239,0.22386999999999999,0.052125,1.0733,0.27278
988,9.88,0.27241,-0.003821,0.17602,0.049166,1.2661,0.3194
989,9.89,0.30385,-0.003782,0.12585,0.052365999999999996,1.2969,0.37165
990,9.9,0.33074000000000003,0.00218,0.088403,0.11205,1.192,0.43065
991,9.91,0.34003,0.012389,0.05606799999999999,0.23915999999999998,0.9915700000000001,0.5091399999999999
992,9.92,0.34426,0.019249000000000002,0.020634,0.41302,0.77585,0.6016199999999999
993,9.93,0.34989000000000003,0.016766999999999997,-0.017629,0.60202,0.5919800000000001,0.7015399999999999
994,9.94,0.34697,0.012636,-0.065015,0.76361,0.45093999999999995,0.80774
995,9.95,0.33177,0.005661,-0.12889,0.8499,0.35849000000000003,0.89985
996,9.96,0.33438,-0.014062999999999999,-0.2076,0.8293,0.33305999999999997,0.9244100000000001
997,9.97,0.33074000000000003,-0.027780000000000003,-0.27426,0.7316699999999999,0.38185,0.8964
998,9.98,0.313,-0.033572000000000005,-0.31067,0.57943,0.5280699999999999,0.85105
999,9.99,0.29496,-0.035584,-0.31577,0.42641999999999997,0.72117,0.8194899999999999
1000,10.0,0.28852,-0.04871,-0.30107,0.29222,0.88425,0.8211
1001,10.01,0.30249000000000004,-0.083004,-0.28102,0.18709,0.9554299999999999,0.83467
1002,10.02,0.31599,-0.10859,-0.27011999999999997,0.078668,0.8849100000000001,0.85382
1003,10.03,0.31189,-0.10186,-0.2802,-0.07977100000000001,0.688,0.8624299999999999
1004,10.04,0.29362,-0.088987,-0.30399,-0.29812,0.46176000000000006,0.8539200000000001
1005,10.05,0.26398,-0.086894,-0.31503000000000003,-0.54989,0.31682,0.82491
1006,10.06,0.22958,-0.067273,-0.3036,-0.78456,0.28897,0.77012
1007,10.07,0.18762,-0.024037,-0.27435,-0.97445,0.38011999999999996,0.69811
1008,10.08,0.14259000000000002,0.031403,-0.22155999999999998,-1.0846,0.56758,0.6292800000000001
1009,10.09,0.10309000000000001,0.08482100000000001,-0.15675,-1.1082,0.79798,0.5914699999999999
1010,10.1,0.07154500000000001,0.13001,-0.093834,-1.0661,1.0022,0.60826
1011,10.11,0.056698,0.15074,-0.046258999999999995,-0.97829,1.092,0.68404
1012,10.12,0.053435,0.14206,-0.012952000000000002,-0.87365,1.0399,0.7985300000000001
1013,10.13,0.04243,0.14107,0.015588999999999999,-0.76463,0.8704700000000001,0.91643
1014,10.14,0.017262,0.15448,0.034886,-0.6614399999999999,0.6255,1.012
1015,10.15,-0.005675,0.16841,0.059782,-0.55161,0.38159,1.0607
1016,10.16,-0.029394999999999998,0.18066,0.079399,-0.43804,0.17925,1.0698
1017,10.17,-0.062165,0.19852999999999998,0.098341,-0.32677,0.073916,1.0542
1018,10.18,-0.092963,0.21803000000000003,0.11395,-0.22198,0.07842,1.0170000000000001
1019,10.19,-0.11352000000000001,0.23178,0.12336,-0.13245,0.17257,0.9721299999999999
1020,10.2,-0.12265,0.23861,0.1241,-0.068129,0.31381,0.92289
1021,10.21,-0.12735,0.24524,0.11749000000000001,-0.025341,0.44137,0.88965
1022,10.22,-0.12133,0.2525,0.10753,0.014575999999999999,0.49113,0.8810899999999999
1023,10.23,-0.10284000000000001,0.25606,0.10076,0.082876,0.37227,0.9027700000000001
1024,10.24,-0.08267100000000001,0.24684,0.08884600000000001,0.18592999999999998,0.080457,0.95149
1025,10.25,-0.08669199999999999,0.22846999999999998,0.058911,0.28436999999999996,-0.2433,1.0184
1026,10.26,-0.11640999999999999,0.22851999999999997,0.0376,0.40525,-0.44361000000000006,1.0627
1027,10.27,-0.15822999999999998,0.23785,0.035448,0.56014,-0.42038000000000003,1.0651
1028,10.28,-0.20698000000000003,0.24886999999999998,0.034602999999999995,0.73947,-0.16714,1.0244
1029,10.29,-0.23451,0.2591,0.040551,0.9254600000000001,0.21930999999999998,0.93225
1030,10.3,-0.22303,0.23964000000000002,0.023905000000000003,1.0424,0.60318,0.78554
1031,10.31,-0.16192,0.18378,-0.04024,1.0196,0.8433200000000001,0.5908100000000001
1032,10.32,-0.083989,0.1107,-0.10955,0.8799100000000001,0.86279,0.39947
1033,10.33,-0.013193,0.02252,-0.16958,0.66785,0.66862,0.25001
1034,10.34,0.020388,-0.046856,-0.21119000000000002,0.4245,0.35314,0.19037
1035,10.35,0.00402,-0.068123,-0.22614,0.17669,0.070642,0.21819000000000002
1036,10.36,-0.026275,-0.065822,-0.23506,-0.073385,-0.071226,0.28739000000000003
1037,10.37,-0.057884000000000005,-0.08838700000000001,-0.25131,-0.34436,-0.022188,0.36155
1038,10.38,-0.092183,-0.11105999999999999,-0.27592,-0.63347,0.15063,0.41838000000000003
1039,10.39,-0.13095,-0.11452999999999999,-0.29634,-0.92545,0.36184,0.47193999999999997
1040,10.4,-0.15879000000000001,-0.12155999999999999,-0.30811,-1.171,0.5183,0.53635
1041,10.41,-0.17010999999999998,-0.12719,-0.30637,-1.335,0.59844,0.60317
1042,10.42,-0.16297999999999999,-0.12140999999999999,-0.29256,-1.3962,0.59142,0.66285
1043,10.43,-0.13982999999999998,-0.1065,-0.26799,-1.3543,0.51963,0.71749
1044,10.44,-0.099877,-0.090611,-0.22930999999999999,-1.2056,0.35848,0.79275
1045,10.45,-0.043682,-0.096215,-0.17446,-0.97746,0.13377999999999998,0.90669
1046,10.46,0.021204,-0.1172,-0.1077,-0.70808,-0.11687,1.0432
1047,10.47,0.079917,-0.11514,-0.036318,-0.43063999999999997,-0.29938000000000003,1.1742
1048,10.48,0.13242,-0.09064900000000001,0.037358999999999996,-0.18012999999999998,-0.39851,1.2719
1049,10.49,0.19087,-0.083058,0.091017,0.011443,-0.42572,1.3267
1050,10.5,0.24925,-0.1039,0.14189000000000002,0.15158,-0.37786,1.3301
1051,10.51,0.29153,-0.11840999999999999,0.19453,0.24352,-0.25389,1.2777
1052,10.52,0.33912,-0.11481,0.23144,0.28179,-0.076128,1.1611
1053,10.53,0.38229,-0.12226,0.25269,0.27224,0.11164,1.0252
1054,10.54,0.40825,-0.14562,0.27175,0.24015999999999998,0.30169,0.9149
1055,10.55,0.44166000000000005,-0.16831,0.29763,0.22168000000000002,0.48307,0.8441
1056,10.56,0.46961,-0.17647000000000002,0.31616,0.22082,0.63015,0.8257
1057,10.57,0.49151999999999996,-0.17031,0.32958000000000004,0.24383000000000002,0.72583,0.85759
1058,10.58,0.51337,-0.1591,0.33543,0.2781,0.7777,0.9152
1059,10.59,0.53318,-0.13829,0.32626,0.32379,0.7943,0.9814299999999999
1060,10.6,0.54705,-0.10744000000000001,0.29069,0.36285,0.77794,1.0402
1061,10.61,0.55116,-0.055037,0.23575,0.41148,0.75617,1.0937
1062,10.62,0.54071,0.013101,0.19014,0.50397,0.7542800000000001,1.1579
1063,10.63,0.52458,0.074633,0.12797999999999998,0.62964,0.77767,1.2392
1064,10.64,0.48589,0.13768,0.07041599999999999,0.80073,0.89123,1.345
1065,10.65,0.45361,0.18633,0.032894,1.0236,1.0864,1.4657
1066,10.66,0.43838999999999995,0.20824,-0.02146,1.2573,1.2996,1.5948
1067,10.67,0.45988,0.21155,-0.093154,1.4852,1.4489,1.7071
1068,10.68,0.51403,0.18683,-0.15672,1.7116,1.5258,1.7863
1069,10.69,0.5734199999999999,0.13795,-0.19085,1.9524,1.5153,1.839
1070,10.7,0.62531,0.091486,-0.23903000000000002,2.1406,1.3325,1.8728
1071,10.71,0.63632,0.085013,-0.35651,2.1363,0.91806,1.8671
1072,10.72,0.64637,0.095911,-0.52222,1.8431,0.4741,1.7553
1073,10.73,0.6219,0.097811,-0.63931,1.3780000000000001,0.24474,1.5884
1074,10.74,0.52868,0.11315,-0.64704,0.91164,0.41815,1.4538
1075,10.75,0.4552,0.10793,-0.59783,0.54375,0.92529,1.369
1076,10.76,0.41117,0.066637,-0.55414,0.26699,1.5243,1.3451
1077,10.77,0.3808,0.043529000000000005,-0.55388,0.0007599999999999999,2.0018,1.3683
1078,10.78,0.3621,0.06994700000000001,-0.5603100000000001,-0.27474,2.2555,1.393
1079,10.79,0.34421,0.10617,-0.54724,-0.53274,2.2757,1.3851
1080,10.8,0.32429,0.14057,-0.52,-0.74502,2.1069999999999998,1.3199
1081,10.81,0.29968,0.16601,-0.47566,-0.89138,1.8782,1.2026
1082,10.82,0.26634,0.1876,-0.41017,-0.94342,1.6849,1.0577
1083,10.83,0.22476,0.2129,-0.32959,-0.9211299999999999,1.59,0.9298299999999999
1084,10.84,0.18479,0.23201999999999998,-0.25063,-0.8482299999999999,1.5799,0.84352
1085,10.85,0.16384,0.24416999999999997,-0.17373,-0.7339,1.5779,0.8042199999999999
1086,10.86,0.14628,0.24803000000000003,-0.11477000000000001,-0.62138,1.5173,0.8237399999999999
1087,10.87,0.13238,0.25089,-0.065439,-0.5149,1.3863,0.87326
1088,10.88,0.11880999999999999,0.25456,-0.016006,-0.42357,1.2427,0.94305
1089,10.89,0.09661499999999999,0.26248,0.031671,-0.33851,1.1322,1.0373
1090,10.9,0.08239500000000001,0.26354,0.079529,-0.25843,1.0728,1.1443
1091,10.91,0.065586,0.26581,0.12097999999999999,-0.18675,1.0422,1.2704
1092,10.92,0.037282,0.26454,0.16128,-0.12440999999999999,1.0522,1.4082
1093,10.93,0.014671,0.26731,0.20089,-0.051244000000000005,1.0739,1.5364
1094,10.94,0.001457,0.27502,0.22358000000000003,0.00912,1.0839,1.6432
1095,10.95,-0.013969999999999998,0.27639,0.22956999999999997,0.054471000000000006,1.0771,1.7383
1096,10.96,-0.028110000000000003,0.28059,0.23546,0.09883,1.067,1.8131
1097,10.97,-0.040369999999999996,0.28943,0.23363,0.14547000000000002,1.074,1.8869
1098,10.98,-0.060574,0.30911,0.21688000000000002,0.17928,1.0939,1.984
1099,10.99,-0.069035,0.33674,0.20104,0.22053000000000003,1.1052,2.0769
1100,11.0,-0.066541,0.354,0.20044,0.28644000000000003,1.1216,2.1507
1101,11.01,-0.07835299999999999,0.37545,0.20529,0.40015,1.1046,2.2117
1102,11.02,-0.08204700000000001,0.40255,0.20695999999999998,0.54708,1.0831,2.2387
1103,11.03,-0.085329,0.42663,0.21964,0.72645,1.0774,2.2059
1104,11.04,-0.065829,0.42951000000000006,0.23656999999999997,0.9188200000000001,1.0568,2.1092
1105,11.05,-0.033915,0.4065,0.22113000000000002,1.0711,0.9341700000000001,1.9784
1106,11.06,-0.003919,0.3611,0.17223,1.1467,0.7003199999999999,1.8423
1107,11.07,0.040438,0.2739,0.095984,1.1366,0.41923,1.7072
1108,11.08,0.095551,0.15481,-0.008745999999999999,1.0213,0.19441,1.5772
1109,11.09,0.15143,0.038193,-0.12925999999999999,0.79194,0.12928,1.4595
1110,11.1,0.18459,-0.065241,-0.25035999999999997,0.47731,0.23425,1.3894
1111,11.11,0.18270999999999998,-0.15604,-0.35605,0.10843,0.40883,1.4012
1112,11.12,0.14172,-0.20661,-0.44727,-0.29389,0.58362,1.4845
1113,11.13,0.10993,-0.21066999999999997,-0.50657,-0.69293,0.75415,1.5423
1114,11.14,0.10430999999999999,-0.2063,-0.5564399999999999,-1.0675,0.86275,1.5190000000000001
1115,11.15,0.089271,-0.21318,-0.62748,-1.4509999999999998,0.8841100000000001,1.4382
1116,11.16,0.054383,-0.1954,-0.68066,-1.791,0.8784700000000001,1.3523
1117,11.17,0.009355,-0.15088,-0.6765,-1.9781,0.9237700000000001,1.29
1118,11.18,-0.013636,-0.10719000000000001,-0.60945,-1.9332,1.0502,1.2557
1119,11.19,-0.009496,-0.07954299999999999,-0.49553,-1.6122,1.1733,1.2709
1120,11.2,0.014818000000000001,-0.081247,-0.36184,-1.064,1.2071,1.3583
1121,11.21,0.058199,-0.1016,-0.23278000000000001,-0.39988,1.0853,1.5027
1122,11.22,0.14345,-0.11899000000000001,-0.13918,0.23625,0.78691,1.6207
1123,11.23,0.22599,-0.12758,-0.067753,0.73535,0.39485,1.6809
1124,11.24,0.29638000000000003,-0.14432,-0.005497,1.0725,-0.00646,1.6822
1125,11.25,0.3518,-0.16377,0.041644,1.225,-0.30817,1.6425
1126,11.26,0.38249,-0.17293,0.076066,1.1962,-0.46879,1.5915
1127,11.27,0.39715,-0.17029,0.09094400000000001,0.99172,-0.45214,1.5452
1128,11.28,0.40394,-0.16244,0.097722,0.65973,-0.23942,1.493
1129,11.29,0.39548,-0.14941,0.11794,0.27248,0.13465,1.4393
1130,11.3,0.37517,-0.1237,0.1386,-0.098107,0.6034,1.4059
1131,11.31,0.36057,-0.10286,0.16562000000000002,-0.39300999999999997,1.079,1.4002
1132,11.32,0.35848,-0.088213,0.1951,-0.56187,1.4512,1.411
1133,11.33,0.36888000000000004,-0.05990499999999999,0.22157,-0.59311,1.6784,1.4074
1134,11.34,0.37461,-0.025184,0.24931,-0.49204,1.7628,1.3861
1135,11.35,0.3863,-0.002723,0.26345,-0.2896,1.7047,1.3502
1136,11.36,0.39474000000000004,0.011583,0.25933,-0.034779000000000004,1.5226,1.3072
1137,11.37,0.39954,0.029226,0.23765999999999998,0.22796,1.2562,1.2537
1138,11.38,0.39749,0.05942000000000001,0.20171,0.45335,0.9869600000000001,1.1969
1139,11.39,0.37798000000000004,0.090503,0.15327000000000002,0.60821,0.8525200000000001,1.1633
1140,11.4,0.3556,0.11292999999999999,0.11341,0.7027399999999999,0.93485,1.1676
1141,11.41,0.33668000000000003,0.12605,0.0823,0.7537699999999999,1.2146,1.2259
1142,11.42,0.31671,0.13701,0.049484,0.79886,1.5956,1.3534
1143,11.43,0.30514,0.13644,0.019969,0.84259,1.9691,1.5268
1144,11.44,0.31829,0.12079000000000001,-0.030475,0.88092,2.2062,1.7079
1145,11.45,0.35198,0.1008,-0.084695,0.94009,2.2237,1.8531
1146,11.46,0.37636,0.06942899999999999,-0.12521,1.0351,2.0193,1.9529
1147,11.47,0.40005999999999997,0.020238,-0.18238,1.1375,1.6486,1.9986
1148,11.48,0.41197,-0.025705000000000002,-0.25001999999999996,1.2033,1.1984,1.9813
1149,11.49,0.39026,-0.05626799999999999,-0.3358,1.1822,0.77881,1.9148
1150,11.5,0.34583,-0.070438,-0.42061000000000004,1.0652,0.49218999999999996,1.7934
1151,11.51,0.29075,-0.077225,-0.47962,0.8723,0.40445,1.6159999999999999
1152,11.52,0.23538,-0.086519,-0.51126,0.62888,0.52069,1.4073
1153,11.53,0.18746,-0.099328,-0.51517,0.35468,0.79489,1.2035
1154,11.54,0.15937,-0.10797999999999999,-0.5132,0.058471,1.13,1.0177
1155,11.55,0.14811,-0.10565999999999999,-0.50113,-0.24988000000000002,1.4268,0.8544299999999999
1156,11.56,0.14349,-0.095158,-0.47523000000000004,-0.53363,1.6232,0.7308399999999999
1157,11.57,0.13448,-0.081514,-0.41935,-0.75124,1.7114,0.64812
1158,11.58,0.12718,-0.051301,-0.35348,-0.8845,1.6838,0.5828300000000001
1159,11.59,0.1082,-0.01845,-0.28415999999999997,-0.9384899999999999,1.5735,0.53276
1160,11.6,0.063941,0.021286000000000003,-0.21264,-0.92769,1.4369999999999998,0.501
1161,11.61,0.015997,0.067966,-0.14644000000000001,-0.8663799999999999,1.3321,0.44792
1162,11.62,-0.010139,0.10445,-0.07142799999999999,-0.73644,1.2534,0.36609
1163,11.63,-0.029310000000000003,0.13224,-0.0028640000000000002,-0.56517,1.1412,0.28867
1164,11.64,-0.038704,0.15263,0.037879,-0.38925,0.95547,0.23059000000000002
1165,11.65,-0.036623,0.17203,0.06643099999999999,-0.23842,0.70919,0.18752
1166,11.66,-0.046067000000000004,0.18612,0.092464,-0.12125999999999999,0.4237,0.1989
1167,11.67,-0.069781,0.18227000000000002,0.11022,-0.048075,0.16086,0.29129
1168,11.68,-0.09565499999999999,0.171,0.12397999999999999,-0.013087,-0.027150999999999998,0.46247
1169,11.69,-0.13174,0.16457,0.14617,0.0036780000000000003,-0.073322,0.6653899999999999
1170,11.7,-0.17055,0.17131,0.16055999999999998,0.00551,4e-06,0.84352
1171,11.71,-0.20042000000000001,0.18752,0.15320999999999999,-0.022419,0.16744,0.9360299999999999
1172,11.72,-0.23178,0.18574000000000002,0.14284000000000002,-0.089931,0.40986000000000006,0.9557700000000001
1173,11.73,-0.26536,0.17576,0.11845,-0.22518000000000002,0.6923199999999999,0.9304899999999999
1174,11.74,-0.29606,0.16813,0.07483300000000001,-0.43159,0.99351,0.8708899999999999
1175,11.75,-0.31443000000000004,0.1541,0.023622,-0.6873199999999999,1.2515,0.78674
1176,11.76,-0.3236,0.14515999999999998,-0.049746,-0.9702200000000001,1.4414,0.69518
1177,11.77,-0.33185,0.15503,-0.10684,-1.1801,1.5658,0.61455
1178,11.78,-0.32101999999999997,0.16134,-0.14185999999999999,-1.225,1.6472,0.54387
1179,11.79,-0.29609,0.16601,-0.15172,-1.0336,1.6669999999999998,0.49933999999999995
1180,11.8,-0.28041,0.17803,-0.12145,-0.59223,1.6346,0.51617
1181,11.81,-0.26578,0.19415,-0.056054,0.07979,1.5245,0.58478
1182,11.82,-0.21191999999999997,0.19669,-0.009741,0.8085100000000001,1.2926,0.64089
1183,11.83,-0.12797,0.17419,-0.037261,1.3857,0.8679899999999999,0.6180899999999999
1184,11.84,-0.075945,0.14653,-0.09123400000000001,1.7167,0.30485999999999996,0.52145
1185,11.85,-0.053288,0.095576,-0.13837,1.8289,-0.29265,0.3722
1186,11.86,-0.047056,0.040309,-0.16354000000000002,1.7609,-0.7842,0.18402000000000002
1187,11.87,-0.068784,0.012384000000000001,-0.15709,1.5898,-1.0788,-0.007895000000000001
1188,11.88,-0.10063,-0.018001,-0.13878,1.3371,-1.1522,-0.15977
1189,11.89,-0.11787,-0.049530000000000005,-0.13109,1.0045,-1.0513,-0.27581
1190,11.9,-0.11495,-0.06023200000000001,-0.12828,0.59914,-0.83373,-0.36229
1191,11.91,-0.09418,-0.061605999999999994,-0.12159,0.14528,-0.5272899999999999,-0.43193000000000004
1192,11.92,-0.06163099999999999,-0.06615,-0.10232000000000001,-0.29984,-0.18365,-0.4824
1193,11.93,-0.019548,-0.082437,-0.061774,-0.67075,0.12204000000000001,-0.49318999999999996
1194,11.94,0.033826,-0.10232999999999999,-0.010747,-0.9127,0.31048000000000003,-0.45445
1195,11.95,0.082857,-0.11315,0.035219,-1.0251,0.32941,-0.35220999999999997
1196,11.96,0.11919,-0.11132,0.074242,-1.0069,0.17033,-0.19605999999999998
1197,11.97,0.14917,-0.10450999999999999,0.11127000000000001,-0.88423,-0.12072000000000001,-0.010669
1198,11.98,0.16322,-0.095924,0.14551,-0.67899,-0.48598,0.1814
1199,11.99,0.16842000000000001,-0.08105,0.16714,-0.43508,-0.84405,0.33402
1200,12.0,0.16751,-0.05291799999999999,0.18320999999999998,-0.18878,-1.0849,0.40852
1201,12.01,0.15184,-0.01492,0.20235999999999998,0.043175,-1.1635,0.41226999999999997
1202,12.02,0.13723,0.01291,0.22436999999999999,0.25751,-1.0736,0.36551
1203,12.03,0.13777,0.018211,0.25228,0.43,-0.8959,0.29505
1204,12.04,0.16008,0.0024649999999999997,0.26258000000000004,0.5108699999999999,-0.70468,0.218
1205,12.05,0.19714,-0.01846,0.25806,0.47833000000000003,-0.54981,0.14189000000000002
1206,12.06,0.23828000000000002,-0.034288,0.25584,0.35594000000000003,-0.42831,0.060336
1207,12.07,0.29215,-0.056295000000000005,0.25819000000000003,0.17475,-0.33081,-0.035149
1208,12.08,0.32583,-0.08822200000000001,0.25683,-0.022791,-0.2673,-0.11565999999999999
1209,12.09,0.33096,-0.11646,0.25699,-0.20439000000000002,-0.19329000000000002,-0.16627
1210,12.1,0.32903000000000004,-0.1398,0.26195,-0.33335,-0.057933000000000005,-0.19235
1211,12.11,0.32194,-0.1612,0.25722,-0.4033,0.12700999999999998,-0.20668000000000003
1212,12.12,0.30225,-0.15341,0.22868000000000002,-0.43478,0.33292,-0.19749
1213,12.13,0.28676999999999997,-0.12668,0.19017,-0.42686999999999997,0.53741,-0.16795
1214,12.14,0.28392,-0.10286,0.14568,-0.3758,0.68399,-0.11795
1215,12.15,0.27991,-0.07621499999999999,0.090918,-0.30101999999999995,0.74829,-0.033606
1216,12.16,0.2715,-0.048273,0.043223000000000004,-0.17677,0.7460899999999999,0.07869
1217,12.17,0.24928000000000003,-0.017151,0.005657,-0.002679,0.72532,0.22313000000000002
1218,12.18,0.2234,0.020953,-0.0198,0.22704000000000002,0.72541,0.37189
1219,12.19,0.19230999999999998,0.06365499999999999,-0.036367000000000003,0.51561,0.74952,0.52285
1220,12.2,0.16502999999999998,0.0926,-0.044762,0.8385299999999999,0.78296,0.64931
1221,12.21,0.14935,0.10235,-0.063809,1.1503,0.73873,0.74279
1222,12.22,0.13494,0.10915,-0.11241,1.3665,0.5760000000000001,0.78295
1223,12.23,0.1214,0.11312,-0.17144,1.4438,0.35907,0.76425
1224,12.24,0.10955999999999999,0.09787799999999999,-0.22568000000000002,1.3937,0.18479,0.70043
1225,12.25,0.10022,0.069256,-0.25517,1.2646,0.12949000000000002,0.5957
1226,12.26,0.085345,0.051316999999999995,-0.2492,1.1174,0.20008,0.48751000000000005
1227,12.27,0.062677,0.042526,-0.22233000000000003,0.98536,0.32058000000000003,0.41875
1228,12.28,0.058798,0.02455,-0.19565,0.85836,0.42716000000000004,0.38099
1229,12.29,0.07466,0.0063560000000000005,-0.17462,0.7277,0.47728000000000004,0.35079
1230,12.3,0.08358099999999999,-0.007976,-0.16485,0.56635,0.43601,0.33243
1231,12.31,0.083853,-0.024528,-0.18218,0.3361,0.309,0.30023
1232,12.32,0.079433,-0.035541,-0.20317000000000002,0.043039999999999995,0.17935,0.23698000000000002
1233,12.33,0.069759,-0.043557,-0.20143,-0.27805,0.13625,0.15644
1234,12.34,0.036494,-0.039261000000000004,-0.18748,-0.58449,0.20915999999999998,0.10668
1235,12.35,-0.0028699999999999997,-0.028019,-0.15608,-0.8094100000000001,0.36446,0.099616
1236,12.36,-0.022937,-0.014074000000000001,-0.10532000000000001,-0.90099,0.5325,0.11731
1237,12.37,-0.028600999999999998,0.019815,-0.053725999999999996,-0.8545200000000001,0.6237199999999999,0.14711
1238,12.38,-0.035801,0.058539999999999995,-0.014493,-0.7089,0.58092,0.18907000000000002
1239,12.39,-0.039471,0.090766,0.016617,-0.49933999999999995,0.39693,0.23351999999999998
1240,12.4,-0.038074000000000004,0.1142,0.033723,-0.25659,0.08694199999999999,0.26758000000000004
1241,12.41,-0.046555,0.13921,0.05157899999999999,-0.010969,-0.2774,0.27931999999999996
1242,12.42,-0.06816900000000001,0.15983,0.066203,0.20599,-0.6297699999999999,0.28245
1243,12.43,-0.11052000000000001,0.16469,0.06641699999999999,0.33626999999999996,-0.87913,0.28631999999999996
1244,12.44,-0.1572,0.17232,0.062104999999999994,0.37301999999999996,-0.95934,0.27798
1245,12.45,-0.19116,0.19804000000000002,0.070137,0.33257,-0.83536,0.24354
1246,12.46,-0.22183000000000003,0.22769,0.088225,0.25148000000000004,-0.58532,0.21627
1247,12.47,-0.2397,0.24072,0.10265999999999999,0.14826,-0.29248,0.20597
1248,12.48,-0.23501,0.24798,0.10745,0.040457,-0.035843,0.19679000000000002
1249,12.49,-0.22862,0.25939,0.11268,-0.03614,0.12038,0.18678
1250,12.5,-0.2275,0.27566,0.11029000000000001,-0.065717,0.1409,0.16000999999999999
1251,12.51,-0.22488000000000002,0.30049000000000003,0.092947,-0.068381,0.039744999999999996,0.10361
1252,12.52,-0.23569,0.31868,0.068075,-0.060663999999999996,-0.09985,0.044091000000000005
1253,12.53,-0.27412,0.30158,0.052648,-0.020938,-0.20993,0.034749
1254,12.54,-0.32832,0.24591999999999997,0.051259000000000006,0.06491,-0.23840999999999998,0.10432999999999999
1255,12.55,-0.36973,0.19968,0.049574,0.20986999999999997,-0.19708,0.19844
1256,12.56,-0.40854,0.17979,0.068437,0.44298000000000004,-0.085062,0.2755
1257,12.57,-0.43615,0.16285,0.10459,0.74087,0.063817,0.25761
1258,12.58,-0.42627,0.1538,0.096736,1.0019,0.17268,0.077475
1259,12.59,-0.39769,0.15295999999999998,0.051820000000000005,1.1306,0.20389000000000002,-0.21696
1260,12.6,-0.35846999999999996,0.12818,-0.023625,1.0814,0.10449000000000001,-0.56484
1261,12.61,-0.30768,0.05126699999999999,-0.11433,0.8509700000000001,-0.10849,-0.9171100000000001
1262,12.62,-0.2659,-0.043016000000000006,-0.17955,0.50132,-0.38663000000000003,-1.2108
1263,12.63,-0.26631,-0.10675,-0.21233000000000002,0.092459,-0.6463,-1.369
1264,12.64,-0.29628000000000004,-0.15592,-0.23665999999999998,-0.32377,-0.80376,-1.3833
1265,12.65,-0.30751,-0.19922,-0.26499,-0.72348,-0.857,-1.3327
1266,12.66,-0.31255,-0.22518000000000002,-0.30698000000000003,-1.0979999999999999,-0.80924,-1.2598
1267,12.67,-0.3352,-0.23581999999999997,-0.33802,-1.4151,-0.64688,-1.1667
1268,12.68,-0.35618,-0.24011,-0.33769,-1.6279,-0.37884,-1.0618
1269,12.69,-0.36755,-0.21461999999999998,-0.31378,-1.6912,-0.089646,-0.9557100000000001
1270,12.7,-0.36954000000000004,-0.15508,-0.27342,-1.5899,0.10547999999999999,-0.85554
1271,12.71,-0.34638,-0.098361,-0.21574000000000002,-1.3359999999999999,0.15125999999999998,-0.76658
1272,12.72,-0.29644000000000004,-0.060383000000000006,-0.14870999999999998,-0.9586100000000001,0.019149,-0.70699
1273,12.73,-0.23443000000000003,-0.039494,-0.08547,-0.53773,-0.29658,-0.67048
1274,12.74,-0.17551,-0.025262,-0.03966,-0.13814,-0.75064,-0.65298
1275,12.75,-0.12236,-0.003854,0.004504,0.19064,-1.2616,-0.64937
1276,12.76,-0.08934199999999999,0.012536,0.042499,0.4059,-1.6971,-0.6525
1277,12.77,-0.07271,0.03388,0.077066,0.51175,-1.9462,-0.66682
1278,12.78,-0.06868099999999999,0.06655499999999999,0.12107000000000001,0.53841,-1.9667,-0.69663
1279,12.79,-0.063538,0.087002,0.16595,0.50915,-1.7852,-0.7428899999999999
1280,12.8,-0.05045,0.10101,0.20104,0.42556000000000005,-1.4712,-0.8087
1281,12.81,-0.029976999999999997,0.12093,0.23095,0.30196999999999996,-1.1003,-0.8896299999999999
1282,12.82,-0.001419,0.13812,0.26459,0.158,-0.74953,-0.9844299999999999
1283,12.83,0.038047000000000004,0.14503,0.29453,0.010156,-0.49246,-1.0929
1284,12.84,0.07753099999999999,0.13890999999999998,0.31358,-0.13972,-0.34834,-1.1895
1285,12.85,0.10328,0.12811,0.33418000000000003,-0.26911,-0.29498,-1.2582
1286,12.86,0.12245,0.11893,0.35225,-0.38084,-0.29613,-1.3203
1287,12.87,0.13209,0.11110999999999999,0.36036,-0.46416,-0.33802,-1.3694
1288,12.88,0.12764,0.086487,0.35443,-0.51766,-0.37272,-1.3940000000000001
1289,12.89,0.10629000000000001,0.062541,0.34205,-0.52833,-0.36835999999999997,-1.3898
1290,12.9,0.090548,0.063058,0.31188,-0.5174,-0.33223,-1.3855
1291,12.91,0.072338,0.073433,0.26455,-0.4868,-0.24404,-1.3867
1292,12.92,0.037248,0.08306000000000001,0.22841,-0.42391,-0.11135999999999999,-1.3772
1293,12.93,0.009174,0.085213,0.1704,-0.3165,0.002794,-1.3367
1294,12.94,-0.0029690000000000003,0.069736,0.1076,-0.16049000000000002,0.074964,-1.2682
1295,12.95,-0.004242,0.054802,0.0592,0.06463200000000001,0.11885,-1.1964
1296,12.96,0.017164,0.029193,0.012418,0.35896,0.12491,-1.1564
1297,12.97,0.058462,-0.033093,-0.05039,0.66565,0.054183,-1.1515
1298,12.98,0.089951,-0.11395,-0.1438,0.8975200000000001,-0.16618,-1.1464
1299,12.99,0.094843,-0.16279000000000002,-0.27226,0.9480799999999999,-0.49377,-1.1137
1300,13.0,0.062712,-0.19114,-0.42923,0.78058,-0.85795,-1.0568
1301,13.01,-0.010692,-0.1873,-0.55632,0.43796999999999997,-1.1109,-1.0111
1302,13.02,-0.10065,-0.14899,-0.62135,0.050467000000000005,-1.1205,-0.98503
1303,13.03,-0.19047,-0.13062,-0.6230100000000001,-0.271,-0.88029,-0.96252
1304,13.04,-0.25195,-0.12972,-0.59924,-0.49125,-0.5321600000000001,-0.9549799999999999
1305,13.05,-0.28707,-0.11757000000000001,-0.59362,-0.66365,-0.21745,-0.9665100000000001
1306,13.06,-0.30053,-0.10364000000000001,-0.58041,-0.79404,0.010619,-0.98421
1307,13.07,-0.28634,-0.10935,-0.53135,-0.84303,0.14319,-1.0070000000000001
1308,13.08,-0.25385,-0.12737,-0.45853999999999995,-0.7828,0.18322,-1.0411
1309,13.09,-0.21377,-0.1351,-0.36012,-0.59835,0.13805,-1.0823
1310,13.1,-0.18043,-0.14010999999999998,-0.25059000000000003,-0.31442,0.007858,-1.1019
1311,13.11,-0.16205,-0.14475,-0.15708,0.001693,-0.20363,-1.0732
1312,13.12,-0.14725,-0.14105,-0.08697200000000001,0.2847,-0.5172100000000001,-0.98675
1313,13.13,-0.13802999999999999,-0.14304,-0.036118,0.49881000000000003,-0.87715,-0.85446
1314,13.14,-0.14289000000000002,-0.13735,0.007651000000000001,0.6392399999999999,-1.228,-0.69348
1315,13.15,-0.16932,-0.11849000000000001,0.05062,0.7193,-1.5102,-0.51246
1316,13.16,-0.21497,-0.10209,0.087009,0.748,-1.6768,-0.32959
1317,13.17,-0.26404,-0.092249,0.10795,0.73601,-1.7419,-0.17045
1318,13.18,-0.32032,-0.080472,0.12638,0.6804899999999999,-1.6776,-0.058584000000000004
1319,13.19,-0.37082,-0.052159000000000004,0.13799,0.57703,-1.5116,-0.012089
1320,13.2,-0.42023999999999995,-0.006146,0.12300000000000001,0.39748,-1.2917,-0.026664999999999998
1321,13.21,-0.45958999999999994,0.043754,0.10172,0.18001,-1.0490000000000002,-0.10219
1322,13.22,-0.49395,0.08978799999999999,0.097227,-0.015849000000000002,-0.81387,-0.24491
1323,13.23,-0.5181899999999999,0.13052,0.09313099999999999,-0.14132,-0.63251,-0.47067
1324,13.24,-0.52504,0.17103,0.08682100000000001,-0.18918,-0.51994,-0.74847
1325,13.25,-0.53335,0.21243,0.082588,-0.16697,-0.44738999999999995,-1.0186
1326,13.26,-0.54238,0.2403,0.086409,-0.098148,-0.3806,-1.2342
1327,13.27,-0.55708,0.26729,0.071912,-0.004202,-0.33326,-1.3836
1328,13.28,-0.57739,0.31175,0.051119,0.10547999999999999,-0.30526,-1.5105
1329,13.29,-0.58895,0.35686,0.024719,0.24053000000000002,-0.31688,-1.6522
1330,13.3,-0.60034,0.38747,0.008542000000000001,0.4203,-0.34698,-1.8055
1331,13.31,-0.6055,0.41196000000000005,0.000442,0.6479,-0.39878,-1.9555
1332,13.32,-0.59696,0.41993,-0.007097,0.89366,-0.44009,-2.0949
1333,13.33,-0.58148,0.41425,-0.011035,1.1328,-0.48776,-2.2064
1334,13.34,-0.54381,0.39186,-0.027911000000000002,1.3075,-0.58501,-2.301
1335,13.35,-0.46875,0.34525,-0.07664800000000001,1.3479,-0.79515,-2.4051
1336,13.36,-0.39233,0.29241999999999996,-0.15122,1.2382,-1.1085,-2.5062
1337,13.37,-0.33521,0.22851,-0.20911999999999997,1.0278,-1.4541,-2.5903
1338,13.38,-0.29341999999999996,0.17895999999999998,-0.25090999999999997,0.76759,-1.7428,-2.6542
1339,13.39,-0.29161,0.16395,-0.28335,0.49728999999999995,-1.9174,-2.648
1340,13.4,-0.30975,0.14612999999999998,-0.30905,0.25195,-1.9816,-2.548
1341,13.41,-0.32511999999999996,0.1207,-0.32378,0.058084000000000004,-1.9674,-2.3733
1342,13.42,-0.33297,0.12115999999999999,-0.31435,-0.03963,-1.9156,-2.1654
1343,13.43,-0.30818,0.1258,-0.27113000000000004,0.004658,-1.8693,-1.9839
1344,13.44,-0.26171,0.11267,-0.20106,0.18100000000000002,-1.8794,-1.8459
1345,13.45,-0.2015,0.084387,-0.13283,0.43125,-2.0095,-1.746
1346,13.46,-0.13105,0.050363,-0.073933,0.66777,-2.2758,-1.6757
1347,13.47,-0.062186,0.020162,-0.028513999999999998,0.81729,-2.6202,-1.614
1348,13.48,-0.0029219999999999997,-0.012911,0.0017350000000000002,0.8514799999999999,-2.9775,-1.5525
1349,13.49,0.035315,-0.044160000000000005,0.027901,0.75508,-3.2464,-1.4817
1350,13.5,0.060364999999999995,-0.05506799999999999,0.044541000000000004,0.55867,-3.3535,-1.42
1351,13.51,0.080348,-0.043342,0.064314,0.29916,-3.2235,-1.3801
1352,13.52,0.090849,-0.020424,0.094039,0.020234000000000002,-2.8749,-1.3716
1353,13.53,0.10799,0.004946,0.12022000000000001,-0.25435,-2.4027,-1.3932
1354,13.54,0.13425,0.033019,0.14381,-0.5158,-1.9039,-1.4415
1355,13.55,0.1672,0.05796799999999999,0.16627999999999998,-0.7541800000000001,-1.4682,-1.5088
1356,13.56,0.19984000000000002,0.079961,0.19127,-0.94653,-1.149,-1.5791
1357,13.57,0.22508000000000003,0.096627,0.21766999999999997,-1.0707,-0.96783,-1.6437
1358,13.58,0.24370999999999998,0.10124,0.24075,-1.1233,-0.91194,-1.6876
1359,13.59,0.24934,0.10443,0.26065,-1.1012,-0.96006,-1.7078
1360,13.6,0.24689,0.11023,0.27539,-1.0201,-1.0865,-1.7
1361,13.61,0.23021999999999998,0.1063,0.28486,-0.8925700000000001,-1.2538,-1.6557
1362,13.62,0.20077,0.093689,0.27853,-0.7604,-1.3647,-1.5923
1363,13.63,0.17536,0.094733,0.27073,-0.62817,-1.3467,-1.5483
1364,13.64,0.15116,0.097072,0.26832,-0.49257,-1.1826,-1.5185
1365,13.65,0.13172999999999999,0.08506,0.26093,-0.36688000000000004,-0.91945,-1.4846
1366,13.66,0.11893,0.072064,0.24683000000000002,-0.24522,-0.62,-1.439
1367,13.67,0.11639000000000001,0.050937,0.23794,-0.11853,-0.34299,-1.3667
1368,13.68,0.13018,0.017425,0.22951,0.023349,-0.16097,-1.2835
1369,13.69,0.16622,-0.017121,0.22025999999999998,0.19205,-0.10701,-1.2203
1370,13.7,0.20936999999999997,-0.065273,0.19787000000000002,0.37459000000000003,-0.20446,-1.1825
1371,13.71,0.25215,-0.14694000000000002,0.15647,0.54238,-0.41367,-1.1466
1372,13.72,0.27771,-0.23624,0.089638,0.6560600000000001,-0.7087600000000001,-1.0957
1373,13.73,0.25625,-0.28448,-0.019916,0.6455,-1.0497,-1.0225
1374,13.74,0.20412,-0.30221,-0.16035,0.47931999999999997,-1.3788,-0.96035
1375,13.75,0.14459,-0.30751,-0.28695,0.21191999999999997,-1.5865,-0.9455
1376,13.76,0.05905,-0.29236999999999996,-0.34281,-0.044923000000000005,-1.5758,-0.9865200000000001
1377,13.77,-0.02028,-0.2618,-0.34110999999999997,-0.21106,-1.3176,-1.0631
1378,13.78,-0.079066,-0.24322,-0.30735999999999997,-0.26793,-0.87054,-1.1376
1379,13.79,-0.12057999999999999,-0.24122,-0.27389,-0.26737,-0.41231999999999996,-1.1555
1380,13.8,-0.13214,-0.24306999999999998,-0.26232,-0.28108,-0.10109,-1.1155
1381,13.81,-0.11459000000000001,-0.24306,-0.25043000000000004,-0.33083,0.0036590000000000004,-1.0304
1382,13.82,-0.094466,-0.2564,-0.22783,-0.39499,-0.08117100000000001,-0.9235899999999999
1383,13.83,-0.059861000000000004,-0.28139000000000003,-0.19997,-0.46321,-0.28423000000000004,-0.8336899999999999
1384,13.84,-0.03197,-0.29718,-0.16147,-0.52304,-0.51931,-0.7672
1385,13.85,-0.033927,-0.29083000000000003,-0.11122,-0.56386,-0.665,-0.72965
1386,13.86,-0.044706,-0.26048000000000004,-0.053345000000000004,-0.5958100000000001,-0.6562100000000001,-0.7286600000000001
1387,13.87,-0.061038999999999996,-0.217,-0.000819,-0.62643,-0.50035,-0.75674
1388,13.88,-0.072291,-0.17744000000000001,0.046413,-0.66708,-0.26342,-0.78391
1389,13.89,-0.07019500000000001,-0.1479,0.083386,-0.7325,-0.036982999999999995,-0.78015
1390,13.9,-0.067383,-0.12907000000000002,0.11381,-0.80619,0.12553,-0.7186600000000001
1391,13.91,-0.063788,-0.11654,0.13727999999999999,-0.8724700000000001,0.18137,-0.60572
1392,13.92,-0.073159,-0.11632999999999999,0.15303,-0.8962399999999999,0.11001,-0.4466
1393,13.93,-0.099149,-0.12847999999999998,0.16946,-0.8430200000000001,-0.056864,-0.25728
1394,13.94,-0.12593,-0.13309,0.1865,-0.67924,-0.28642,-0.090077
1395,13.95,-0.16145,-0.11016,0.1935,-0.45426000000000005,-0.50683,0.012104
1396,13.96,-0.19644,-0.062628,0.1848,-0.21853000000000003,-0.65049,0.009564
1397,13.97,-0.22974,-0.003843,0.16394,-0.022046,-0.68824,-0.086096
1398,13.98,-0.25666,0.05686,0.13502,0.10822000000000001,-0.65396,-0.26419000000000004
1399,13.99,-0.26018,0.1118,0.1086,0.17729,-0.57968,-0.5182399999999999
1400,14.0,-0.24149,0.15913,0.085577,0.19192,-0.53793,-0.81716
1401,14.01,-0.21388000000000001,0.18832000000000002,0.05948099999999999,0.1697,-0.55769,-1.1022
1402,14.02,-0.18843,0.19655999999999998,0.038804000000000005,0.12330999999999999,-0.62315,-1.3199
1403,14.03,-0.16859000000000002,0.20415999999999998,0.022198,0.068838,-0.70463,-1.4372
1404,14.04,-0.15295,0.21008000000000002,-0.0021379999999999997,-0.004265,-0.78819,-1.4607
1405,14.05,-0.1424,0.20614000000000002,-0.011299,-0.073045,-0.8217700000000001,-1.4159
1406,14.06,-0.13455999999999999,0.19802999999999998,-0.001031,-0.11382,-0.79488,-1.3264
1407,14.07,-0.13087000000000001,0.19095,0.021088,-0.12228,-0.7128899999999999,-1.207
1408,14.08,-0.12197999999999999,0.16821,0.048368,-0.10497999999999999,-0.59916,-1.0695
1409,14.09,-0.12259,0.14112,0.081549,-0.06651,-0.49626000000000003,-0.92015
1410,14.1,-0.12420999999999999,0.11835,0.098879,-0.030324,-0.43701,-0.80705
1411,14.11,-0.1103,0.084997,0.092224,-0.020847,-0.43605,-0.77928
1412,14.12,-0.092326,0.032125,0.08142,-0.016756,-0.48612,-0.8240200000000001
1413,14.13,-0.08203400000000001,-0.046713,0.069803,0.005319,-0.56935,-0.8910799999999999
1414,14.14,-0.080429,-0.12667,0.056432,0.05681900000000001,-0.7007800000000001,-0.9452
1415,14.15,-0.080651,-0.18024,0.029833,0.11345,-0.85465,-0.9928600000000001
1416,14.16,-0.07926699999999999,-0.20474,0.0019219999999999999,0.1741,-1.0352,-1.0341
1417,14.17,-0.079313,-0.22102,-0.017851,0.21974000000000002,-1.2178,-1.0657
1418,14.18,-0.064677,-0.24106,-0.036399,0.22395,-1.3733,-1.09
1419,14.19,-0.051753,-0.25240999999999997,-0.051995000000000006,0.15814,-1.4559,-1.0759999999999998
1420,14.2,-0.049226,-0.26453000000000004,-0.060698,0.018286,-1.4229,-1.0059
1421,14.21,-0.039869999999999996,-0.28547,-0.065167,-0.17654,-1.2957,-0.8869100000000001
1422,14.22,-0.031217,-0.31021,-0.062596,-0.40089,-1.099,-0.72754
1423,14.23,-0.025535,-0.32558000000000004,-0.050532,-0.60911,-0.8704799999999999,-0.54364
1424,14.24,-0.013555000000000001,-0.32598,-0.019479,-0.75429,-0.63503,-0.36498
1425,14.25,0.013922,-0.30701999999999996,0.015792,-0.8183699999999999,-0.43005,-0.2363
1426,14.26,0.056226,-0.27342,0.059792,-0.8143199999999999,-0.29161,-0.18317
1427,14.27,0.10015,-0.2266,0.10156,-0.76153,-0.2398,-0.20558
1428,14.28,0.14488,-0.16415,0.13245,-0.6793399999999999,-0.28728000000000004,-0.28755
1429,14.29,0.18754,-0.12387999999999999,0.15787,-0.54672,-0.43108,-0.36818
1430,14.3,0.21293,-0.12642,0.18822,-0.3541,-0.63618,-0.38456999999999997
1431,14.31,0.23789000000000002,-0.13352999999999998,0.22426,-0.12013,-0.8427399999999999,-0.34964
1432,14.32,0.2545,-0.12995,0.24766,0.10668,-0.99172,-0.28386999999999996
1433,14.33,0.25324,-0.12021,0.26069000000000003,0.2871,-1.0636,-0.20551
1434,14.34,0.23961999999999997,-0.10582000000000001,0.26309,0.39661,-1.0699,-0.13913
1435,14.35,0.22646999999999998,-0.091923,0.24652,0.41286000000000006,-1.0243,-0.11357
1436,14.36,0.21377,-0.089375,0.22725,0.34865,-0.9193,-0.1224
1437,14.37,0.19429000000000002,-0.10292000000000001,0.21774000000000002,0.24450999999999998,-0.74685,-0.14637
1438,14.38,0.18041,-0.1174,0.2134,0.12693,-0.53059,-0.18432
1439,14.39,0.16713,-0.13333,0.2029,0.007343000000000001,-0.29834,-0.22016
1440,14.4,0.15135,-0.14603,0.19779000000000002,-0.075837,-0.05039,-0.25916
1441,14.41,0.13898,-0.14538,0.20501999999999998,-0.10674000000000002,0.19393,-0.30234
1442,14.42,0.13205,-0.13705,0.2052,-0.082528,0.38453000000000004,-0.35921
1443,14.43,0.12622,-0.12847999999999998,0.18725999999999998,-0.037801,0.47479,-0.4116
1444,14.44,0.11804,-0.10893,0.15997,0.021015,0.45838,-0.46484
1445,14.45,0.11241,-0.090644,0.1271,0.10267000000000001,0.36505,-0.51363
1446,14.46,0.098359,-0.086349,0.09584,0.21059,0.23419,-0.54097
1447,14.47,0.090183,-0.090449,0.061013,0.32691,0.090462,-0.56186
1448,14.48,0.082709,-0.099245,0.013737000000000001,0.4223,-0.004071,-0.58714
1449,14.49,0.07544,-0.10314000000000001,-0.034962,0.47235,-0.034287,-0.6168899999999999
1450,14.5,0.067829,-0.1075,-0.0842,0.46195,-0.011805,-0.6350899999999999
1451,14.51,0.060142999999999995,-0.1206,-0.12519,0.39838,0.052642999999999995,-0.62251
1452,14.52,0.059059,-0.13785999999999998,-0.15687,0.30155,0.12264000000000001,-0.56303
1453,14.53,0.053022,-0.14932,-0.1857,0.17975,0.16297,-0.46511
1454,14.54,0.050375,-0.15064,-0.20901999999999998,0.049048,0.15968,-0.36286
1455,14.55,0.049979,-0.14078,-0.21809,-0.075279,0.1425,-0.27765
1456,14.56,0.047136000000000004,-0.13584000000000002,-0.22046999999999997,-0.18034,0.12197999999999999,-0.21055
1457,14.57,0.037823,-0.13704000000000002,-0.22601999999999997,-0.27571999999999997,0.10457999999999999,-0.14877
1458,14.58,0.034275,-0.133,-0.23435999999999998,-0.35507,0.08175199999999999,-0.10724000000000002
1459,14.59,0.033343,-0.13182,-0.22765,-0.41595,0.086492,-0.084941
1460,14.6,0.032173,-0.13083,-0.21499000000000001,-0.45398,0.14114000000000002,-0.074429
1461,14.61,0.029604000000000002,-0.11990999999999999,-0.19674,-0.47236000000000006,0.24147,-0.081044
1462,14.62,0.031316000000000004,-0.10319,-0.16262000000000001,-0.44583999999999996,0.34463,-0.099326
1463,14.63,0.032658,-0.080675,-0.11984000000000002,-0.39704,0.43376000000000003,-0.11540999999999998
1464,14.64,0.035676,-0.049319999999999996,-0.079243,-0.32627,0.47368000000000005,-0.12176
1465,14.65,0.035205,-0.021506,-0.044123,-0.25309,0.43893999999999994,-0.090619
1466,14.66,0.032839,-0.012062999999999999,-0.01933,-0.19143,0.31689,-0.02732
1467,14.67,0.020608,-0.0048920000000000005,-0.003944,-0.14085999999999999,0.15122,0.052048000000000004
1468,14.68,-0.01487,0.017259,0.018987,-0.083705,0.00575,0.12605999999999998
1469,14.69,-0.054763,0.045644,0.050875,0.00617,-0.06855900000000001,0.16904
1470,14.7,-0.093735,0.06365599999999999,0.076511,0.12004000000000001,-0.092961,0.18955999999999998
1471,14.71,-0.12593,0.070684,0.08973400000000001,0.21104,-0.054289,0.19072
1472,14.72,-0.1573,0.077747,0.087617,0.25022,0.033848,0.17675
1473,14.73,-0.17523,0.093472,0.08429400000000001,0.22578,0.15345,0.13273
1474,14.74,-0.17893,0.099321,0.07343,0.15764,0.25745,0.05558
1475,14.75,-0.18472,0.10157999999999999,0.062383,0.057420000000000006,0.34574,-0.030142000000000002
1476,14.76,-0.20299,0.11009000000000001,0.056676,-0.036695,0.41052,-0.09552999999999999
1477,14.77,-0.22896,0.11499000000000001,0.058681,-0.092727,0.46003,-0.12025999999999999
1478,14.78,-0.25879,0.12142,0.064308,-0.096843,0.49094,-0.10111
1479,14.79,-0.28314,0.14074,0.06141799999999999,-0.055670000000000004,0.46923000000000004,-0.046566
1480,14.8,-0.30723,0.15694,0.053958000000000006,0.027824,0.41518999999999995,0.026257
1481,14.81,-0.31115,0.16492,0.067221,0.17976,0.36594,0.075708
1482,14.82,-0.31066,0.16510999999999998,0.080296,0.39158000000000004,0.30983,0.08684800000000001
1483,14.83,-0.31151999999999996,0.17394,0.085936,0.60043,0.25488,0.049947000000000005
1484,14.84,-0.29575,0.18525999999999998,0.077152,0.76157,0.1876,-0.063867
1485,14.85,-0.27081,0.17395,0.041355,0.81476,0.06372,-0.22899999999999998
1486,14.86,-0.23768000000000003,0.1461,0.005733,0.7599899999999999,-0.11037000000000001,-0.43693000000000004
1487,14.87,-0.20016,0.10255999999999998,-0.028921,0.61556,-0.30394,-0.67061
1488,14.88,-0.20065999999999998,0.068975,-0.053066999999999996,0.40745,-0.44054,-0.87887
1489,14.89,-0.21400999999999998,0.035782999999999995,-0.053779999999999994,0.16959000000000002,-0.5130399999999999,-1.0072
1490,14.9,-0.20503000000000002,-0.015416999999999998,-0.061078,-0.09504,-0.55342,-1.0653
1491,14.91,-0.18503,-0.06126,-0.077816,-0.38566999999999996,-0.59687,-1.0508
1492,14.92,-0.16993,-0.10184,-0.083834,-0.65761,-0.6544,-0.9561200000000001
1493,14.93,-0.15028,-0.15074,-0.0859,-0.8915799999999999,-0.72723,-0.79309
1494,14.94,-0.13862,-0.18249,-0.077676,-1.0456,-0.7816,-0.5808399999999999
1495,14.95,-0.13755,-0.18342999999999998,-0.060973,-1.1258,-0.78862,-0.36109
1496,14.96,-0.13249,-0.14849,-0.031066000000000003,-1.1209,-0.7345,-0.18505
1497,14.97,-0.11155999999999999,-0.10037,0.006587999999999999,-1.047,-0.64676,-0.089012
1498,14.98,-0.074173,-0.05934400000000001,0.04705,-0.90804,-0.60316,-0.07710700000000001
1499,14.99,-0.020479,-0.027783999999999996,0.091556,-0.7225,-0.6472600000000001,-0.12688
1500,15.0,0.034737,-0.000609,0.14135999999999999,-0.5044,-0.77259,-0.20206
1501,15.01,0.085493,0.017508000000000003,0.19025,-0.28255,-0.9565600000000001,-0.27074000000000004
1502,15.02,0.1285,0.015441,0.2143,-0.09336599999999999,-1.2009999999999998,-0.30093000000000003
1503,15.03,0.15907000000000002,-0.016447,0.21891,0.027291000000000003,-1.4386,-0.27148
1504,15.04,0.17856,-0.050781,0.22721,0.092882,-1.5874,-0.18358
1505,15.05,0.20047,-0.076675,0.24527,0.12003,-1.5984,-0.078907
1506,15.06,0.2142,-0.095436,0.26119000000000003,0.11517999999999999,-1.4780000000000002,0.014804
1507,15.07,0.22501999999999997,-0.10645,0.27135,0.07612200000000001,-1.2582,0.068786
1508,15.08,0.23819,-0.11079000000000001,0.28341,0.017493,-0.9828399999999999,0.07140099999999999
1509,15.09,0.25668,-0.11838,0.29512,-0.043054,-0.70524,0.034515
1510,15.1,0.27666999999999997,-0.13041,0.30503,-0.087783,-0.46612,-0.026826999999999997
1511,15.11,0.29415,-0.13959000000000002,0.31666,-0.096711,-0.28802,-0.093336
1512,15.12,0.30644,-0.15189,0.30946999999999997,-0.066932,-0.20508,-0.15534
1513,15.13,0.31456999999999996,-0.16012,0.28615999999999997,-0.013213999999999998,-0.20013,-0.22036999999999998
1514,15.14,0.32226,-0.15369000000000002,0.26186,0.059584000000000005,-0.21450999999999998,-0.2928
1515,15.15,0.31764000000000003,-0.14353,0.24413,0.16147,-0.18225999999999998,-0.34712
1516,15.16,0.30371,-0.13541,0.21481999999999998,0.26692,-0.082939,-0.36525
1517,15.17,0.28855,-0.12138,0.1656,0.3557,0.09001100000000001,-0.35046
1518,15.18,0.26836,-0.094705,0.11824000000000001,0.43622,0.31414000000000003,-0.30375
1519,15.19,0.25134,-0.071759,0.071096,0.51031,0.54469,-0.23999
1520,15.2,0.24664,-0.050673,0.019459999999999998,0.59658,0.6963,-0.18033
1521,15.21,0.25984,-0.04893,-0.051107,0.66879,0.68713,-0.12788
1522,15.22,0.26191,-0.072549,-0.14822000000000002,0.68561,0.55587,-0.073187
1523,15.23,0.24215,-0.09586599999999999,-0.24606999999999998,0.64413,0.35154,0.000752
1524,15.24,0.20189000000000001,-0.10584,-0.34336,0.52613,0.1713,0.05316799999999999
1525,15.25,0.15782000000000002,-0.09894800000000001,-0.42515,0.3558,0.091714,0.060484
1526,15.26,0.10693,-0.087522,-0.45528,0.19864,0.16763,0.032326
1527,15.27,0.062486,-0.07402,-0.44956,0.09374500000000001,0.37099,-0.000236
1528,15.28,0.026733,-0.051872,-0.42022,0.056198000000000005,0.6036100000000001,-0.014588
1529,15.29,0.026291000000000002,-0.048988,-0.39942,0.044456999999999997,0.7369100000000001,-0.012708
1530,15.3,0.047618,-0.057461,-0.40556,-0.016578,0.71077,-0.010633
1531,15.31,0.059896000000000005,-0.050834,-0.41631,-0.14599,0.5424,-0.007359
1532,15.32,0.055559000000000004,-0.05207899999999999,-0.43206999999999995,-0.34609,0.33626,-0.006275
1533,15.33,0.041510000000000005,-0.052238,-0.41102,-0.55384,0.23460999999999999,-0.016062
1534,15.34,0.021046000000000002,-0.027676,-0.34347,-0.7068,0.31048000000000003,-0.030337
1535,15.35,-0.004879,0.001943,-0.27226999999999996,-0.80762,0.5159,-0.022334
1536,15.36,-0.009253,0.022742,-0.203,-0.8572799999999999,0.73152,0.011356
1537,15.37,-0.001372,0.035121,-0.12604,-0.85744,0.8912899999999999,0.08472400000000001
1538,15.38,0.005037,0.032687,-0.064001,-0.81932,0.9302799999999999,0.20427
1539,15.39,0.008126000000000001,0.028261,-0.018813999999999997,-0.7663800000000001,0.83698,0.35076
1540,15.4,-0.003961,0.028387,0.017321,-0.7141,0.6573899999999999,0.491
1541,15.41,-0.031794,0.035407999999999995,0.06683,-0.6402899999999999,0.48722,0.61098
1542,15.42,-0.059245000000000006,0.041576999999999996,0.11775999999999999,-0.5574600000000001,0.36283000000000004,0.70313
1543,15.43,-0.10072,0.043093,0.15138,-0.50156,0.33564,0.78974
1544,15.44,-0.13512000000000002,0.043744,0.1846,-0.49062,0.4154,0.86434
1545,15.45,-0.16626,0.048435,0.21040999999999999,-0.54319,0.55429,0.92804
1546,15.46,-0.18575999999999998,0.052751,0.20873000000000003,-0.69696,0.68767,0.9542299999999999
1547,15.47,-0.18305,0.064088,0.18895,-0.93196,0.7631600000000001,0.91953
1548,15.48,-0.18193,0.082314,0.17103,-1.2055,0.79001,0.8378899999999999
1549,15.49,-0.19872,0.1016,0.1527,-1.4558,0.78791,0.74032
1550,15.5,-0.24783000000000002,0.11448,0.12880999999999998,-1.6354,0.82678,0.65028
1551,15.51,-0.32264,0.13637,0.10985,-1.6671,0.95605,0.5816899999999999
1552,15.52,-0.38533,0.15200999999999998,0.09112999999999999,-1.5227,1.2022,0.4865
1553,15.53,-0.44154,0.17105,0.070469,-1.1836,1.5075,0.36486999999999997
1554,15.54,-0.48671000000000003,0.19328,0.07784400000000001,-0.64946,1.7803,0.24149
1555,15.55,-0.49768999999999997,0.18642999999999998,0.052660000000000005,-0.034509,1.8883,0.12389000000000001
1556,15.56,-0.48028000000000004,0.17074,0.0004969999999999999,0.55813,1.746,0.013087999999999999
1557,15.57,-0.44988,0.14833,-0.035229,1.0755,1.4009,-0.10069
