,ts,ax,ay,az,wx,wy,wz
0,0.0,-0.18732650539942,0.044523513931910313,6.57590357935375,-0.00262473314228798,-0.003045155783246543,-0.003045155783246543
1,0.01,-0.03597742380022487,0.008410274345014651,1.3242669145438741,-0.003638080736127547,-0.003256940984209537,-0.003256940984209537
2,0.02,0.04089329203028974,0.02120968326401298,-1.8784493250259828,-0.0019215512460919386,-0.003153304791833403,-0.003153304791833403
3,0.03,0.09112815032667579,0.005541771372952579,-3.4909027222372284,-0.0007916429743338144,-0.0012914329997622165,-0.0012914329997622165
4,0.04,0.12761838583640678,-0.04813813369926507,-3.921991724721418,-0.0009879610902759866,-0.002391411751560343,-0.002391411751560343
5,0.05,0.12365784862290959,-0.07832649603855334,-3.5767666816507786,-0.000521946290978041,-0.002830770119363505,-0.002830770119363505
6,0.06,0.08826358228856704,-0.05267313527919522,-2.856875448115445,-0.0005824362210234419,-0.002999445825311877,-0.002999445825311877
7,0.07,0.04296847468439201,0.0009608968475428928,-1.9634695164051448,-0.002544661983729289,-0.0022374298955063878,-0.0022374298955063878
8,0.08,0.017561079243923666,0.022471663980173487,-0.9608908794520477,-0.002946335909571973,-0.0024884351170454764,-0.0024884351170454764
9,0.09,0.0024452845579986046,-0.005577942396915782,0.08527302122018621,-0.001870028135582969,-0.0030237384871164663,-0.0030237384871164663
10,0.1,-0.02349448694695595,-0.03442118863643546,1.045573155172717,-0.002456266897012784,-0.0004506881874730166,-0.0004506881874730166
11,0.11,-0.055606552111484873,-0.008868600748179136,1.7714126409625384,-0.0048401165796906455,0.0005788244822574499,0.0005788244822574499
12,0.12,-0.07675855742384831,0.03203971277693361,2.2367112938185394,-0.005064572610651678,-0.0003892039336254941,-0.0003892039336254941
13,0.13,-0.08437272826241496,0.048694103616268,2.5227573711259907,-0.0022716701734620264,-0.0005011319632703835,-0.0005011319632703835
14,0.14,-0.0806791233126706,0.02341149003294912,2.712740475944309,-0.0002744414219743101,-0.0004927998204856481,-0.0004927998204856481
15,0.15,-0.068384103418595,-0.013141838699607073,2.763804051525314,-0.0006664943912617736,-0.0010465974708719805,-0.0010465974708719805
16,0.16,-0.07550543914750006,0.0022635369983821946,2.5995594466132426,-0.001931385580788366,-0.0013721558587015052,-0.0013721558587015052
17,0.17,-0.07827642587845272,0.05758046072403096,2.2325080616827417,-0.003182551917132577,-0.0007534911871269443,-0.0007534911871269443
18,0.18,-0.060254826848358006,0.07808002562850072,1.7969969770189216,-0.0016507080593371145,-0.0010896007400738902,-0.0010896007400738902
19,0.19,-0.030490396348163293,0.021550254488268798,1.3827042307537367,-0.0008787684076256469,-0.0026628007730273824,-0.0026628007730273824
20,0.2,-0.004315591036567815,-0.0265956426427223,0.9596352361310136,-0.002362117701107257,-0.0016038271389710735,-0.0016038271389710735
21,0.21,-0.004015928941899838,-0.008053192137236188,0.4686308773509753,-0.0045248240520308226,-0.0009451693397614988,-0.0009451693397614988
22,0.22,-0.008106640247810694,0.040577619858106595,-0.0974049441933893,-0.004966489176615076,-0.0025317461514344827,-0.0025317461514344827
23,0.23,0.01118300336655299,0.042854561474229606,-0.6039862781397278,-0.004323466341570192,-0.0028333071651992178,-0.0028333071651992178
24,0.24,0.04595783373754747,-0.005087159112737261,-0.9886266744419593,-0.0037071897843962134,-0.002036596474311729,-0.002036596474311729
25,0.25,0.06322710734314861,-0.04494432688461398,-1.2773842454771285,-0.0033109981503122504,-0.002492325375473033,-0.002492325375473033
26,0.26,0.05141810549741732,-0.03351622148687901,-1.5648874202301506,-0.004760798109959715,-0.0024299700616075754,-0.0024299700616075754
27,0.27,0.04000354538242468,0.01272668539039138,-1.8589206929516644,-0.00358230916880071,-0.0013604872443157198,-0.0013604872443157198
28,0.28,0.050631357380661504,0.018512918322952827,-2.055217086512743,-0.002409241406352825,-0.0005234954069796357,-0.0005234954069796357
29,0.29,0.06909822023404955,-0.02378671300849431,-2.1058524597523687,-0.0019333458134180922,-0.0018710216857582762,-0.0018710216857582762
30,0.3,0.0691740116526718,-0.067232492644307,-2.0365444206135943,-0.0010013152142641618,-0.001521063974962425,-0.001521063974962425
31,0.31,0.04883383449887725,-0.058411089604317026,-1.973577372591512,-0.003354764059977639,-0.0011627673829865774,-0.0011627673829865774
32,0.32,0.041114006499379324,-0.004017933148568343,-1.9290758663873846,-0.005196387752038572,-0.0028845513868493424,-0.0028845513868493424
33,0.33,0.04479079695623955,0.013954351260997932,-1.795216626310331,-0.0033845137887293718,-0.0016647937519215046,-0.0016647937519215046
34,0.34,0.036353908799520676,-0.024959822357515038,-1.5318188327878401,-0.0009477458203189998,-0.0013816209490732085,-0.0013816209490732085
35,0.35,0.031115528731417263,-0.06397757178793331,-1.2093847669904245,-0.0016972410378025833,-0.0006823320022933473,-0.0006823320022933473
36,0.36,0.02588198884680043,-0.036648988862742454,-0.9304129827443338,-0.00380353130624645,-6.373946250906029e-05,-6.373946250906029e-05
37,0.37,0.005587363310119423,0.01850983779515586,-0.7065859888610937,-0.0036548817258434266,-0.00178094990113511,-0.00178094990113511
38,0.38,-0.008533063767401731,0.03176277935101355,-0.437010080799628,-0.002363200105726073,-0.001299513427702439,-0.001299513427702439
39,0.39,0.00470273141867629,-0.013927753621439765,-0.09321577437267381,-0.000937259271234713,-0.0024685790249519713,-0.0024685790249519713
40,0.4,0.005101513388329742,-0.050838991000859354,0.2650017876440308,-0.002999473333698075,-0.002575694560958031,-0.002575694560958031
41,0.41,-0.01420645999038976,-0.022396623533768506,0.5434453576624727,-0.0036796916873266345,-0.0010918152222178148,-0.0010918152222178148
42,0.42,-0.033892649320942825,0.02639974287322018,0.7208226902509929,-0.00204054667617276,-0.0015437556968345837,-0.0015437556968345837
43,0.43,-0.042289892898459316,0.04027604267464775,0.9101309841094138,-0.0032708408660839772,-0.0025146431087219234,-0.0025146431087219234
44,0.44,-0.029671603826593056,0.004622287238273098,1.155768717053788,-0.002972078982389101,-0.003737055290884571,-0.003737055290884571
45,0.45,-0.03126272822396691,-0.028156128030806343,1.3759772573381632,-0.00037714264890871,-0.0033548732183749123,-0.0033548732183749123
46,0.46,-0.04252421280207179,-0.014696350667351431,1.512273270880991,0.00011380077290121055,-0.001705637660739456,-0.001705637660739456
47,0.47,-0.0475817704434676,0.0396329514628027,1.5339525092516042,-0.002961100431308733,-0.0014735475416109492,-0.0014735475416109492
48,0.48,-0.04491225562948829,0.05178605095242174,1.5274255276859332,-0.0016111656672478485,-0.001975043140233649,-0.001975043140233649
49,0.49,-0.03180419751452046,0.013135519921701784,1.577965848233032,0.0005809978112418813,-0.0014539252636140095,-0.0014539252636140095
50,0.5,-0.019275984538875166,-0.02918338311996202,1.6192019739839971,-0.0019649238028900387,-0.000414381088704721,-0.000414381088704721
51,0.51,-0.028270831821437366,-0.005459738933518438,1.5556022883169152,-0.0038148783287907523,-0.0006516276943310508,-0.0006516276943310508
52,0.52,-0.05006755586030712,0.05366950798528018,1.3949346571191967,-0.004184614870576122,-0.001550085969962082,-0.001550085969962082
53,0.53,-0.03858151061470741,0.06167627794587395,1.2277183355138304,-0.001955779987960643,-0.00047741196717258585,-0.00047741196717258585
54,0.54,-0.006092473067617376,0.032393948287977065,1.1309179513629584,-0.0008116111527382511,-0.0014877870167828238,-0.0014877870167828238
55,0.55,-0.004902411610091504,-8.320122471131355e-05,1.0295150485742244,-0.0023591882168276803,-0.004530466353178443,-0.004530466353178443
56,0.56,-0.019389704343954657,0.00467753922928239,0.8344624708070636,-0.003627360067613219,-0.0020564774229795014,-0.0020564774229795014
57,0.57,-0.02381956243273587,0.037933949415952385,0.5846374422341339,-0.003714073042426811,-8.551973855740647e-05,-8.551973855740647e-05
58,0.58,-0.018113822466822693,0.06026787904178331,0.34331078100980267,-0.0037933856029044016,-0.0013308529274421257,-0.0013308529274421257
59,0.59,0.014001002139602163,0.024733461599992932,0.17852092921189316,-0.0035771640932579173,-0.001461536688353098,-0.001461536688353098
60,0.6,0.017380140433253442,-0.023689422259350102,0.055166088705820404,-0.002200179429674032,-0.00334469782139364,-0.00334469782139364
61,0.61,-0.0037069129594252143,-0.014609577222980417,-0.12945756599839292,-0.003263918980130281,-0.003047942801479173,-0.003047942801479173
62,0.62,-0.0006551181062246138,0.04178792366369856,-0.38845170805061796,-0.0022819168072087713,0.0006822058749965322,0.0006822058749965322
63,0.63,0.0047323202128510804,0.04992879796265799,-0.5998669856283928,-0.0004239530084274049,0.0009846396685816356,0.0009846396685816356
64,0.64,0.014337249020057856,-0.009347047296324941,-0.7199919089962556,-0.002158476743453389,-0.0024028907614189864,-0.0024028907614189864
65,0.65,0.021719349214293464,-0.05431177795585719,-0.7846144295839109,-0.003486283318079364,-0.0025140390730205315,-0.0025140390730205315
66,0.66,0.020210957020693348,-0.04438926976399178,-0.8920278382310265,-0.0038782141701806908,-0.0011808862429023529,-0.0011808862429023529
67,0.67,0.013057004974983891,0.004585741154431545,-1.0581328270617816,-0.003525622975115165,-0.002032127143306907,-0.002032127143306907
68,0.68,0.006040843393743174,0.009460630621083117,-1.1738240776011242,-0.0019649667085214245,-0.003158713684568047,-0.003158713684568047
69,0.69,0.013425960348612376,-0.03271316450005303,-1.1857619379124016,-0.0018906841527250398,-0.001964253328305788,-0.001964253328305788
70,0.7,0.022569189699243403,-0.06531239699799815,-1.130860909417899,-0.002401610176467272,-0.00015918669618009303,-0.00015918669618009303
71,0.71,0.022780124678864335,-0.05095369412618969,-1.1412829036411933,-0.0019233714425896961,-0.00027005373792690944,-0.00027005373792690944
72,0.72,0.012148733185162765,-0.002617300216194326,-1.1805241868451892,-0.003292988683228448,-0.0007736857583350102,-0.0007736857583350102
73,0.73,0.007268532407281675,0.010131670907027532,-1.1751348349946593,-0.003863868267934576,1.2113091670994808e-05,1.2113091670994808e-05
74,0.74,0.024100430915049202,-0.02785178093093008,-1.0866369383017058,-0.0018559277681151414,-0.0006844123088419388,-0.0006844123088419388
75,0.75,0.034780041418666564,-0.06805348775028724,-0.9306264858501097,-0.002551249484569215,-0.001589046619471547,-0.001589046619471547
76,0.76,0.026284404285778842,-0.05006440499115988,-0.8413486059194539,-0.0053680270941143466,-0.0011413150300178467,-0.0011413150300178467
77,0.77,0.023890191453944155,-0.0015129043819469036,-0.802300479905727,-0.005530188543279056,0.00025419489512196387,0.00025419489512196387
78,0.78,0.027292894126156944,0.00872731215622306,-0.7175629093353493,-0.0032735426145338482,0.001121422009683781,0.001121422009683781
79,0.79,0.030065074906613413,-0.021439108037858534,-0.5544799404363336,-0.00243697860344243,4.971860068598226e-05,4.971860068598226e-05
80,0.8,0.03220250454648592,-0.04395582805474087,-0.35227851965282575,-0.0018721188488126765,-0.0015150413187156966,-0.0015150413187156966
81,0.81,0.023144418023432808,-0.017995561569796308,-0.203860326039487,-0.0014023177088166026,-0.0014859058104443534,-0.0014859058104443534
82,0.82,0.010767558403992808,0.024996459046501624,-0.13318629367900167,-0.002663517025994427,-0.0003498517414250766,-0.0003498517414250766
83,0.83,0.01099702237725908,0.034700670973834,-0.049748803477837,-0.0026907568907199204,-0.001654500477166726,-0.001654500477166726
84,0.84,0.02935081572509151,0.0017221374561453996,0.11172317933307524,-0.0034073237845781198,-0.0012554005153159868,-0.0012554005153159868
85,0.85,0.0334637129921727,-0.03288598005932552,0.3058399824960055,-0.003584672664029668,-0.0014997459309557758,-0.0014997459309557758
86,0.86,0.01021991677350129,-0.017145813763018467,0.421726494459125,-0.0029443623103139857,-0.0017378679355012075,-0.0017378679355012075
87,0.87,-0.01102942541744006,0.042517578549898835,0.4499536172984071,-0.004029858923446286,-0.0007062104833776352,-0.0007062104833776352
88,0.88,-0.011459805601844009,0.06830286224786902,0.5061916695165047,-0.0026201808649469315,-0.0014933952603166296,-0.0014933952603166296
89,0.89,-0.004777889487248974,0.02918757703792072,0.6220170658050524,-0.00030065794022595695,-0.0021280736455735346,-0.0021280736455735346
90,0.9,-0.010220543949774622,-0.02432081125198278,0.7630895391198395,-0.0005365521034073311,-0.0020001628163119935,-0.0020001628163119935
91,0.91,-0.026966304965402997,-0.006533227290453775,0.818801820932591,-0.002978585296781173,-0.002061012063346787,-0.002061012063346787
92,0.92,-0.04462010194246954,0.05472098233990427,0.78001717714085,-0.0029602705617509987,-0.0032411227451111762,-0.0032411227451111762
93,0.93,-0.03385356616430846,0.0591143234793606,0.7598940503460527,-0.00249013009688278,-0.002106777513909838,-0.002106777513909838
94,0.94,-0.018041559193400364,0.018979224556170966,0.8079973598816037,-0.0022315051460575267,-0.002888172695929629,-0.002888172695929629
95,0.95,-0.024368299329087746,-0.02594549490101551,0.8799522921362937,-0.000980627384087494,-0.0036513729628387054,-0.0036513729628387054
96,0.96,-0.04429421769803192,-0.006364506415301643,0.851409468198557,-0.002683514580220125,-0.0015556125534794214,-0.0015556125534794214
97,0.97,-0.040453267780984875,0.04792156215839133,0.7369211487705332,-0.0040874820551671095,-0.0016093455188903654,-0.0016093455188903654
98,0.98,-0.03332195585623531,0.05016559575849888,0.6487277305049816,-0.002567968262688621,-0.0022159295529602468,-0.0022159295529602468
99,0.99,-0.029675677995478413,0.003750168917858645,0.6413876529240792,-0.001495084672418828,-0.002269956733538545,-0.002269956733538545
100,1.0,-0.019787365571348973,-0.03410195703947932,0.6488564520652766,-0.0020876000055639085,-0.002856182666935617,-0.002856182666935617
101,1.01,-0.03428614076408107,-0.012602010997625819,0.5781120949174174,-0.0038992120230587923,-0.0014720952418344785,-0.0014720952418344785
102,1.02,-0.044525247876648084,0.029684875770408705,0.43476888999280583,-0.005690658040450062,-6.914965685055736e-05,-6.914965685055736e-05
103,1.03,-0.03627372537040899,0.038366959165021995,0.31182206250178857,-0.004209370615156434,0.0005437657330396868,0.0005437657330396868
104,1.04,-0.019891596318012003,-0.006244078057895975,0.2667787114727744,-0.001593903300089193,0.00010922174570575492,0.00010922174570575492
105,1.05,-0.014849843172954433,-0.036102184419361756,0.24105678844650502,-0.0004674513123418613,-0.0007477214663026018,-0.0007477214663026018
106,1.06,-0.022169386876721,-0.011784956444381146,0.15790871825391556,-0.0029200584762692364,-0.001230014361955141,-0.001230014361955141
107,1.07,-0.018048587639890208,0.025809424968974412,0.012865251808309972,-0.0038351032955571437,-0.0025888780014703345,-0.0025888780014703345
108,1.08,-0.007290209570191494,0.028475098465587354,-0.10857743372920449,-0.0027197125235770628,-0.002724188031199041,-0.002724188031199041
109,1.09,0.005163648616443028,-0.001161061986498688,-0.154316450977686,-0.0019190720940023183,-0.002554635323880576,-0.002554635323880576
110,1.1,0.016096911282479868,-0.02925173364663297,-0.15457323200331988,-0.0025266868752906297,-0.004024975717312066,-0.004024975717312066
111,1.11,0.02235174624249321,-0.029187915912564682,-0.22527577050135023,-0.003056360571068757,-0.0034301686872988853,-0.0034301686872988853
112,1.12,0.015651399835950215,0.01517827120618188,-0.3603691512674692,-0.002710613292748396,-0.001152449343026844,-0.001152449343026844
113,1.13,0.025354774323185718,0.01638417321199063,-0.45388839784347335,-0.0029109549541914397,-0.0018186357503791129,-0.0018186357503791129
114,1.14,0.039440721539712384,-0.010692998032255617,-0.46684768204212707,-0.0021617855165998127,-0.002511977218941409,-0.002511977218941409
115,1.15,0.05149190248526516,-0.045898821233536724,-0.4261181133119569,-0.0024136204606873763,-0.0009061612123230859,-0.0009061612123230859
116,1.16,0.05064016211385952,-0.05166284831552877,-0.45787169558217744,-0.0037093935838788967,-0.0002537324033059518,-0.0002537324033059518
117,1.17,0.029698204891829793,0.0011583476037847137,-0.5516619300265766,-0.0048717920837799905,-0.000467195101648409,-0.000467195101648409
118,1.18,0.029037136965383334,0.017685601816488292,-0.6014418089061571,-0.0032746498919999038,-0.002330918355003491,-0.002330918355003491
119,1.19,0.051331749768916704,-0.024366176181818702,-0.5599564880037967,-0.0015741927545736632,-0.001996072525140999,-0.001996072525140999
120,1.2,0.058709563927650386,-0.06561724280768788,-0.48301247355464944,-0.0011737651335686453,-0.0006960572758415304,-0.0006960572758415304
121,1.21,0.02301449828909069,-0.0321294910991324,-0.4675392938273937,-0.0018848417358330433,-0.0017452904223360188,-0.0017452904223360188
122,1.22,0.003782001767014804,0.016094148480905686,-0.5115756669478864,-0.004021351222340411,-0.001560802171292241,-0.001560802171292241
123,1.23,0.016333711752924515,0.027267210065778,-0.5306856963049236,-0.0035362265967737584,-0.001676726085450153,-0.001676726085450153
124,1.24,0.021496958183942375,-0.0046351120178776805,-0.45545687026514725,-0.0020490988509151496,-0.004331246276595836,-0.004331246276595836
125,1.25,0.01382504437934615,-0.04554132041010524,-0.348240314401922,-0.00281173592712394,-0.004763143668321065,-0.004763143668321065
126,1.26,-0.006945210100111329,-0.03104550149980114,-0.29812610826310604,-0.003470401283239973,-0.001962470042634584,-0.001962470042634584
127,1.27,-0.018987330868245764,0.027613697657695394,-0.31047697217588155,-0.0048180468450864326,-0.0014224816898734409,-0.0014224816898734409
128,1.28,-0.015340631672342259,0.04575398671086653,-0.3095105360371124,-0.0025273259482718018,-0.00269843692425364,-0.00269843692425364
129,1.29,-0.005470504387179501,-0.001727133597170822,-0.21782226353811135,0.0015631505297313455,-0.0032149858937075572,-0.0032149858937075572
130,1.3,-0.015815595245886577,-0.03242191914151582,-0.09646852418993584,-0.0006497086435781072,-0.0021657683997469536,-0.0021657683997469536
131,1.31,-0.025218168880096405,-0.009690656877789075,-0.040707959429038806,-0.005467294624746535,-0.0012662619879436766,-0.0012662619879436766
132,1.32,-0.028689007995875655,0.047090443719525275,-0.05149443067011879,-0.005708525720020307,-0.001725969562954783,-0.001725969562954783
133,1.33,-0.03581700197802133,0.054945594014956155,-0.03848238076682796,-0.0036965362597302844,-0.002621289449511384,-0.002621289449511384
134,1.34,-0.01731166801523762,0.009955190416723117,0.046525569382018364,-0.0017933062905789734,-0.0030559530270382234,-0.0030559530270382234
135,1.35,-0.009551539370344963,-0.036476329041427315,0.17082759106581283,-0.0013682832320466676,-0.002890721942665425,-0.002890721942665425
136,1.36,-0.018406087614792153,-0.01412822535899482,0.2167432470628755,-0.003025489606844691,-0.0018856938019700255,-0.0018856938019700255
137,1.37,-0.018838598610995565,0.04154986817652179,0.18350939860246426,-0.004273729172015418,-0.0013479047172418224,-0.0013479047172418224
138,1.38,-0.007827076034740199,0.03496264187611207,0.19114776708084155,-0.0022199358690485754,-0.0014830268149081632,-0.0014830268149081632
139,1.39,-0.004104710211290537,0.0010606866777508675,0.2665970815816444,-0.00045782920227956873,-0.002247931156502374,-0.002247931156502374
140,1.4,0.004262482288783378,-0.029229604819210615,0.3577992915992157,-0.002469090293754448,-0.00146342117866314,-0.00146342117866314
141,1.41,0.00034529428107646365,-0.0063597971379222955,0.38539991312183514,-0.0035904808755943462,0.00033080014820242664,0.00033080014820242664
142,1.42,-0.015090724154831963,0.03551423949769639,0.340414896179046,-0.003402759507063305,0.0001546757628901896,0.0001546757628901896
143,1.43,-0.00900912784635497,0.03517530505921218,0.2977331391021877,-0.0029844946430092173,-0.0011015739503048873,-0.0011015739503048873
144,1.44,0.008807356060078778,-0.0031131253973427364,0.3395252182534331,-0.0003267552897214514,-0.003503410056553155,-0.003503410056553155
145,1.45,0.02063154487000656,-0.03932616519388936,0.40395274099253115,-0.0014216206491381028,-0.002107672882322309,-0.002107672882322309
146,1.46,0.006629284648993001,-0.018459236073324784,0.3950467836195437,-0.004244489337454455,0.0001292980523070822,0.0001292980523070822
147,1.47,-0.009295525914831432,0.0211320086065152,0.31236266025550957,-0.003624231329950585,-0.0014015907085768707,-0.0014015907085768707
148,1.48,-0.003051589515784702,0.025789110270742176,0.24735054148437782,-0.0028468683743809943,-0.0026872047379925762,-0.0026872047379925762
149,1.49,0.019049818568897137,-0.008696709852867923,0.2699917725721308,-0.0002990795852301096,-0.002197341824893137,-0.002197341824893137
150,1.5,0.019265045599864708,-0.03280723821360892,0.3057438065556826,-0.0010328553051357347,-0.001893218991706852,-0.001893218991706852
151,1.51,0.007707033265371338,-0.02155247770677563,0.2876804363413673,-0.0033744661806187908,-0.0017980636015805086,-0.0017980636015805086
152,1.52,-0.0019616957605812085,0.025626059945809555,0.18870748608215265,-0.0034918178793948576,-0.00034383156112776346,-0.00034383156112776346
153,1.53,-0.006567921946509641,0.043702880258924874,0.10756294727313093,-0.003145821445245118,-0.0011457524247607195,-0.0011457524247607195
154,1.54,0.009549624413600985,0.005375286545398006,0.10798694133291017,-0.0021335702695327715,-0.0014209911681569846,-0.0014209911681569846
155,1.55,0.011471156726166548,-0.03773080273418708,0.13658807300747108,-0.0027266672174898732,-0.0025712715741961012,-0.0025712715741961012
156,1.56,-0.008335474945804519,-0.027071286871117067,0.10620193205307268,-0.0029209988409671025,-0.0025648839193662732,-0.0025648839193662732
157,1.57,-0.017933456659062628,0.03243072671016349,0.0020853046024541695,-0.003359032770849016,-0.0008878662345334566,-0.0008878662345334566
158,1.58,-0.011516263117961669,0.048063852123079266,-0.07841607348426274,-0.0027194031612450607,-0.0013960204301255773,-0.0013960204301255773
159,1.59,-0.005923354403661084,0.00929219114835994,-0.07933510215716426,-0.001287543177002351,-0.002941076435879184,-0.002941076435879184
160,1.6,-0.004262478881805199,-0.042056883690124475,-0.029963290392533197,-0.0017961680517778595,-0.0044667524801244715,-0.0044667524801244715
161,1.61,-0.013249994211390538,-0.02934939834043011,-0.057939914129364015,-0.0029758578057780933,-0.0027802213182234943,-0.0027802213182234943
162,1.62,-0.017942290011442513,0.022385868952198344,-0.15604287436148245,-0.004144873431142235,-0.001818762721680418,-0.001818762721680418
163,1.63,-0.002534814255527414,0.03016503654500819,-0.222164327819235,-0.004033579187663323,-0.002737674013763577,-0.002737674013763577
164,1.64,0.0019588344646919173,-0.00367019331206336,-0.19556030860661555,-0.0019508971788072566,-0.003072966621302334,-0.003072966621302334
165,1.65,-0.004835348440282296,-0.045957769609868,-0.13369853714456695,-0.002730209792625729,-0.003807156360168456,-0.003807156360168456
166,1.66,-0.006315645589576702,-0.030849936602622873,-0.14740495742931217,-0.004184902849746534,-0.001980923774777116,-0.001980923774777116
167,1.67,-0.005444952845455608,0.024742564077951137,-0.22337627600809207,-0.002540787293409424,-0.0012165122414840618,-0.0012165122414840618
168,1.68,-0.002459910876609652,0.03444571781034693,-0.27963733154191106,-0.0007733677805357518,-0.004349036921284742,-0.004349036921284742
169,1.69,0.004630645510165595,-0.01996266945458863,-0.244558159150485,0.00016909062965846146,-0.004340774299255193,-0.004340774299255193
170,1.7,0.01903884297707665,-0.059678045310719255,-0.16860477480395786,-0.0008448113969864762,-0.0028949903427295275,-0.0028949903427295275
171,1.71,0.009165677881458925,-0.023855888254302536,-0.15266801810982264,-0.0028654441992164398,-0.0020284255017701007,-0.0020284255017701007
172,1.72,-0.009657724954878585,0.028238555152927433,-0.2247320197349725,-0.003387986737537184,-0.0022837744207060283,-0.0022837744207060283
173,1.73,0.001761303712221102,0.029734741663392746,-0.26161804468860594,-0.002960379198077173,-0.00230786086300664,-0.00230786086300664
174,1.74,0.020752667798843893,-0.006746311674227554,-0.20603174085889672,-0.004054132608730439,-0.0025586700302193824,-0.0025586700302193824
175,1.75,0.018330038379750002,-0.03524088930198789,-0.12034576142440725,-0.002553523058985796,-0.0035308182237670494,-0.0035308182237670494
176,1.76,0.010020009546875975,-0.02133461285125938,-0.09662306875309037,-0.002239599539500183,-0.001875933440357768,-0.001875933440357768
177,1.77,-0.0014389126317181783,0.025619118414110752,-0.14699508946442488,-0.003710484440875271,-0.002272711729117977,-0.002272711729117977
178,1.78,0.0037019223424753674,0.024296280254509327,-0.17087010608050343,-0.00293318735248606,-0.0023595745833506947,-0.0023595745833506947
179,1.79,0.024868264372242592,-0.013595833225833156,-0.10788930127907458,-0.002164382938386329,-0.0008312808528900041,-0.0008312808528900041
180,1.8,0.031868019761599566,-0.03521910856221029,-0.009621286337279239,-0.0018820484694279593,-0.0006947454657069693,-0.0006947454657069693
181,1.81,0.012772538886761293,-0.015174552295750788,0.014759024685277483,-0.002713124785772223,-0.00041110463717315866,-0.00041110463717315866
182,1.82,-0.005511300813313523,0.02640654657228764,-0.021196889155208152,-0.0040713281459144116,3.292945483202562e-05,3.292945483202562e-05
183,1.83,0.0022384130301386614,0.03188521993718545,-0.05512346743730822,-0.0024018089380061624,-0.0016340836117375098,-0.0016340836117375098
184,1.84,0.014761871849848045,0.004713553607460454,-0.003038715608255728,-0.0015062751216413466,-0.0030005316518643484,-0.0030005316518643484
185,1.85,0.012944695774613104,-0.032895353097732706,0.10402945200916551,-0.0015857991115569845,-0.0020124925491296192,-0.0020124925491296192
186,1.86,-0.001986816162042186,-0.01882346818829208,0.11840695331843032,-0.002944029646104385,-0.001020713479553519,-0.001020713479553519
187,1.87,-0.020148187794605477,0.031019124698820667,0.05908462518918471,-0.003360564345925559,-0.001979042396814012,-0.001979042396814012
188,1.88,-0.016751581138670056,0.04123906123365541,0.03489014114705248,-0.0013034328497825765,-0.004301339574007359,-0.004301339574007359
189,1.89,-0.004630242232009107,0.008827655814113445,0.09256632575432025,-0.001498955517384926,-0.0045880808954986895,-0.0045880808954986895
190,1.9,-0.008517033470842164,-0.015940306805619493,0.17193894538526341,-0.002352654149330025,-0.002201693609434759,-0.002201693609434759
191,1.91,-0.018776137593491622,-0.01214039466301344,0.17374677720132753,-0.0034689068263091104,-0.0009839600684500842,-0.0009839600684500842
192,1.92,-0.023548754713364307,0.027824749682062753,0.10375867762195137,-0.004471546063735626,-0.00014608717846287386,-0.00014608717846287386
193,1.93,-0.01607022388281654,0.044250435712356324,0.0623727532075507,-0.003543567063620807,-0.000649165781847078,-0.000649165781847078
194,1.94,-0.0018286135472872422,-0.007691098573104927,0.10673940491734536,-0.0029080455517551864,-0.002313760219297465,-0.002313760219297465
195,1.95,0.0032879624500820534,-0.042576302155605324,0.1707130759737523,-0.0028548254416814306,-0.001644139652329446,-0.001644139652329446
196,1.96,-0.008276922448469174,-0.025193772218886357,0.17211008435450184,-0.003304657738299643,-0.000503730668872362,-0.000503730668872362
197,1.97,-0.01681774484491244,0.024943370031456042,0.097333884496895,-0.0038981526278201047,-0.0006270987811842902,-0.0006270987811842902
198,1.98,-0.010835004230991062,0.0325121148236486,0.048768127720038024,-0.0011401397202798367,-0.0016088912365848187,-0.0016088912365848187
199,1.99,-0.004003731391769997,-0.004712132759389304,0.08319559360532813,-0.00029866816001995365,-0.002448795903209088,-0.002448795903209088
200,2.0,-0.0010434166442724645,-0.03381715219908657,0.1432997076953488,-0.002655332887448416,-0.0009454697499179939,-0.0009454697499179939
201,2.01,-0.002141393555082268,-0.019460178667921966,0.13505235353727557,-0.0025844869476123076,-0.0008879509528124926,-0.0008879509528124926
202,2.02,-0.012081340938743945,0.03248664507057758,0.0561875391986539,-0.0027983204459145266,-0.0013760351711887336,-0.0013760351711887336
203,2.03,-0.010175069306161204,0.04576383408711836,-0.001617327674488217,-0.003127227403433706,-0.0009351985197546992,-0.0009351985197546992
204,2.04,0.005336847409221983,0.010246479119822693,0.025783020543175453,-0.0015829987158642595,-0.002709047689184797,-0.002709047689184797
205,2.05,0.015184183528939195,-0.028005492892357375,0.09595953312758962,-0.0005511428724755936,-0.002427865195298579,-0.002427865195298579
206,2.06,0.011960675246183976,-0.009331765227888204,0.08697843456340726,-0.002244704110007328,-0.00011813542442125391,-0.00011813542442125391
207,2.07,0.0031412812560262194,0.025161895894652276,0.008705216702391546,-0.0040224965027025935,-0.00031322175625572084,-0.00031322175625572084
208,2.08,0.005033727518444065,0.02280771525112971,-0.049438064189178434,-0.003061823902777979,-0.0016405257601881437,-0.0016405257601881437
209,2.09,0.01848655456048033,-0.015736421377194686,-0.018812982964547156,-0.0010909224008588776,-0.002778302426179539,-0.002778302426179539
210,2.1,0.023592095680864237,-0.04196600776615801,0.045553938243090425,-0.0012510583372146798,-0.004104074962136135,-0.004104074962136135
211,2.11,0.0167848515954966,-0.021387268488189712,0.032012846832238546,-0.0024275921488784613,-0.0021023097044943146,-0.0021023097044943146
212,2.12,0.00021555516689606476,0.0122718995341346,-0.048384059587128075,-0.0027129503169960874,-0.0001683657192337886,-0.0001683657192337886
213,2.13,-0.0070048946448698635,0.01903256332044899,-0.11162325869906467,-0.003523284636935472,-0.002276913749869484,-0.002276913749869484
214,2.14,0.010978413917543211,-0.01436782376310543,-0.07637468332484376,-0.003368284980330032,-0.0035888215250531046,-0.0035888215250531046
215,2.15,0.016242564652810054,-0.03236747546344894,-0.008806626738627678,-0.0022196415398957887,-0.0019495848152193687,-0.0019495848152193687
216,2.16,0.0007401947822859578,-0.025272231846920245,-0.016270879524530053,-0.0023658100049322307,-0.0005601699478481631,-0.0005601699478481631
217,2.17,-0.007242260932020736,0.00702824185576947,-0.09915353591018627,-0.0023934095319379954,-0.0008086470557030137,-0.0008086470557030137
218,2.18,-0.0029990394287735802,0.029500994604286908,-0.1554426946458556,-0.002226302697791437,-0.001723396573027141,-0.001723396573027141
219,2.19,-0.0003880199418563263,0.012075548205692654,-0.10855002368468825,-0.0008431704221123887,-0.0018304033861129172,-0.0018304033861129172
220,2.2,0.002054937679335879,-0.027625834623021695,-0.029075465837339817,-0.0007240798395781015,-0.002024376744437357,-0.002024376744437357
221,2.21,-0.00787376980753016,-0.027581982134339798,-0.021377487747613444,-0.0026116889662166,-0.001533871204536259,-0.001533871204536259
222,2.22,-0.025131398132028637,0.02275758747906132,-0.08468507257601422,-0.002760931080379145,-0.0009602201509249263,-0.0009602201509249263
223,2.23,-0.01773237573003768,0.034091933995763116,-0.1337345041918429,-0.0010892696089731349,-0.0001921033083451512,-0.0001921033083451512
224,2.24,-0.002537751071446024,-0.001456842007702533,-0.09858589155454105,-0.0006745927142280673,-0.0012310095519918794,-0.0012310095519918794
225,2.25,0.001948136884806414,-0.046937999861478535,-0.01675189043920349,-0.0011431771569530324,-0.0026634346571576626,-0.0026634346571576626
226,2.26,-0.0036826903726149907,-0.040071875145768245,-0.019046714379890965,-0.0018078794602092814,-0.0017367402033102994,-0.0017367402033102994
227,2.27,-0.0056478897058302125,0.009267381582713695,-0.08643001868015687,-0.0028499863094300164,-0.0006361475359373348,-0.0006361475359373348
228,2.28,-0.002687161186892967,0.03180503689720294,-0.12192929928463753,-0.0023032873203158327,-0.0008404222598725094,-0.0008404222598725094
229,2.29,-0.0003840032365961454,0.00042842094172213874,-0.07275394283884123,-0.001872612497655077,-0.002125278629437714,-0.002125278629437714
230,2.3,0.0019360353565801842,-0.03620224945121788,0.018540144690541986,-0.003123147277444028,-0.0023259433974879345,-0.0023259433974879345
231,2.31,-0.0008355653142193527,-0.017569555540572497,0.03001992333107286,-0.0031283583458283485,-0.0009709083825508241,-0.0009709083825508241
232,2.32,-0.0032278773423636683,0.029402174556595762,-0.030940761726483513,-0.0026391742702990308,0.0003038259172111364,0.0003038259172111364
233,2.33,-0.00808298840631772,0.04940063607062638,-0.07000961840672643,-0.002683486847294195,-0.0005657550706203643,-0.0005657550706203643
234,2.34,0.00537829318799812,0.008927830334022415,-0.01560993622905156,-0.0012158490396054387,-0.0011835752688421164,-0.0011835752688421164
235,2.35,0.013725413139008505,-0.021682669438922803,0.06813883163154695,-0.0014093203687260802,-0.0020330596145171037,-0.0020330596145171037
236,2.36,-0.0004478291948701147,0.0028081491326585684,0.07001570418734211,-0.004161128859871992,-0.001915846877632362,-0.001915846877632362
237,2.37,-0.013373906308780176,0.050365253864646534,0.006713459188329673,-0.004981962542281703,-0.00016164294589216042,-0.00016164294589216042
238,2.38,-0.007793539918371218,0.05003251516764495,-0.027390152872793894,-0.002708010502525423,-0.0012578291913044356,-0.0012578291913044356
239,2.39,0.015343597662612608,0.000594012286964974,0.02307076393799946,8.678742853450298e-05,-0.0020231842544081594,-0.0020231842544081594
240,2.4,0.022128118830276353,-0.028818355070183977,0.10009598957898765,-0.0017562619790260669,-0.0008538390395561307,-0.0008538390395561307
241,2.41,0.006009285673536547,-0.018543892841364575,0.0975548849020493,-0.0037700269540937156,-0.0008718458018016354,-0.0008718458018016354
242,2.42,-0.0037120859975449992,0.02027961291908905,0.033595913656139814,-0.0024395499354081967,-0.0016317071259013519,-0.0016317071259013519
243,2.43,0.0009690770850175221,0.023395899793468247,0.00012490899620107299,-0.0013556560686225536,-0.002127417352973321,-0.002127417352973321
244,2.44,0.012859913846708223,-0.0045208754857487925,0.02992586776115349,-0.0005309372663083428,-0.0016366292139968572,-0.0016366292139968572
245,2.45,0.019681196388889797,-0.043328388937146425,0.10072173136579689,-0.002132280000098944,-0.0013939684507873402,-0.0013939684507873402
246,2.46,0.014967323008151588,-0.032931395593773796,0.09933809687338452,-0.0041962609390185455,-0.0028707505306530263,-0.0028707505306530263
247,2.47,5.9533629008604386e-05,0.01727250203562051,0.021017246041805326,-0.004016566270534483,-0.002601185072188925,-0.002601185072188925
248,2.48,-0.004707633025606497,0.03407687022780516,-0.00696263573931831,-0.0037519401799807725,-0.0017012364494136615,-0.0017012364494136615
249,2.49,0.010582457979573107,0.00029762990591582564,0.04197035588341385,-0.0016832705852007895,-0.00254608345329317,-0.00254608345329317
250,2.5,0.01766816043913058,-0.04784494037855038,0.08990753146194513,-0.0009234306373720213,-0.002489589075226754,-0.002489589075226754
251,2.51,0.0031123251801888872,-0.026563658389701532,0.06627120453593324,-0.0035823102705163493,-0.00301581772752786,-0.00301581772752786
252,2.52,-0.012372406456708979,0.009549171428042354,5.4711452208706934e-05,-0.005143315777324846,-0.0020063214677033107,-0.0020063214677033107
253,2.53,-0.015022977835162866,0.026194135699652506,-0.046374969849118056,-0.0039094923513996105,-0.0012383977869939698,-0.0012383977869939698
254,2.54,-0.005380218190182059,0.005660096144529957,-0.010945101635266921,-0.001798468714198012,-0.0021379730797788364,-0.0021379730797788364
255,2.55,0.0045960106949359,-0.03396785691087123,0.06885511039255694,-0.0010052752615152814,-0.0021956093294168166,-0.0021956093294168166
256,2.56,-0.009026664560751688,-0.027557896309785862,0.06252048047433399,-0.0021946555264718256,-0.0011145354941795589,-0.0011145354941795589
257,2.57,-0.028795096586943104,0.0166617325898385,-0.02226774817733286,-0.004646327211356181,-0.00012283911748296,-0.00012283911748296
258,2.58,-0.023301671874268258,0.042454628086770155,-0.07008367022858827,-0.00448816160776946,-0.002393404793152847,-0.002393404793152847
259,2.59,-0.007501681934829702,-0.0026749774880676994,-0.034207695139404706,-0.002428108049812759,-0.004359327605740647,-0.004359327605740647
260,2.6,-0.008034599189996564,-0.043825783930749346,0.04342039544284428,-0.002822243755312073,-0.0025206849637887485,-0.0025206849637887485
261,2.61,-0.014284346482358327,-0.03183177411138598,0.05043975214487838,-0.005385800183526445,-0.0012870294215668627,-0.0012870294215668627
262,2.62,-0.02221691489950523,0.0226680438852226,-0.0362157137875592,-0.005195368213346006,-0.001784773137106477,-0.001784773137106477
263,2.63,-0.019263765488155123,0.04691514240058306,-0.08169026045577449,-0.002376153786229003,-0.0002660817283346099,-0.0002660817283346099
264,2.64,-0.0018746003752356764,0.00510083630952051,-0.03284882468934528,-0.0015525089007519598,-0.002256906720358031,-0.002256906720358031
265,2.65,0.011733494650917747,-0.046617917112274435,0.04644259573872754,-0.003437647536061717,-0.003188055832437452,-0.003188055832437452
266,2.66,0.008459769314278854,-0.03418309911604578,0.04571473985347355,-0.004764908926065264,-0.0011803082295733494,-0.0011803082295733494
267,2.67,0.006797801593231315,0.02898439001384552,-0.034345889601879814,-0.004122044281344892,-0.001499578674525224,-0.001499578674525224
268,2.68,0.016496670060526186,0.045453062162300904,-0.07686500969416016,-0.002474927452430813,-0.0021058739950068107,-0.0021058739950068107
269,2.69,0.007085020640400072,0.021234326057837788,-0.02964099644343704,-0.0012637060597988547,-0.0023035358652344767,-0.0023035358652344767
270,2.7,-0.0007303992295892327,-0.018553477194336348,0.03572303128077942,-0.001131816337712937,-0.0011604944014645838,-0.0011604944014645838
271,2.71,-0.0017767359344519045,-0.006479837895440035,0.025260796622445177,-0.0025829061285325525,-0.002803126861270557,-0.002803126861270557
272,2.72,-0.0054246323174234855,0.034255242909245504,-0.04532129798060274,-0.0031125696457310137,-0.004673811608311415,-0.004673811608311415
273,2.73,-0.0039600725226069285,0.04754637547707412,-0.09295059455562746,-0.0015647339323937852,-0.004235464063985864,-0.004235464063985864
274,2.74,0.0027160513577031828,0.015394366717877438,-0.04491579043990776,-0.0020236512217723965,-0.0028655186210607146,-0.0028655186210607146
275,2.75,0.01854820507478202,-0.03823295922032305,0.028788003211922743,-0.0016694817217619332,-0.0010566108085553565,-0.0010566108085553565
276,2.76,0.01318689122460865,-0.035704161962672586,0.016323918267091782,-0.002370550054737152,-0.0007296991075523541,-0.0007296991075523541
277,2.77,-0.011669141452902291,0.002800188242836319,-0.04343889802825715,-0.004885429320567222,-0.0016479922861851446,-0.0016479922861851446
278,2.78,-0.008630698758738592,0.01559876822488972,-0.07340803242770264,-0.00407751528735389,-0.002493082423954585,-0.002493082423954585
279,2.79,0.02069095861785646,-0.01864606554079856,-0.04167286301611699,-0.0016127602038788847,-0.001522570753518742,-0.001522570753518742
280,2.8,0.03495960099575586,-0.036625888154772995,0.030135773169616624,-0.0014166119177611836,-0.0016807746422262686,-0.0016807746422262686
281,2.81,0.020557990340270484,-0.02093566469565944,0.034621171128938866,-0.002033417053311462,-0.0027366262677364084,-0.0027366262677364084
282,2.82,0.00669149154806856,0.025523308378115832,-0.04007164993617247,-0.0035627941379410845,-0.0012693378409160427,-0.0012693378409160427
283,2.83,0.016989080252407723,0.0403278555024732,-0.08373159521290771,-0.0028842893763834114,-0.0014368633952054786,-0.0014368633952054786
284,2.84,0.03481122833438788,0.004617891107033556,-0.043023472016806626,-0.0010356647315525988,-0.0029138505949874885,-0.0029138505949874885
285,2.85,0.026602016524598586,-0.028964297372519106,0.03756502922647087,-0.0019146244123241067,-0.0030799041268688857,-0.0030799041268688857
286,2.86,0.0023129612745476213,-0.025320717289107137,0.04070215561767983,-0.002584635317587593,-0.001620648682323536,-0.001620648682323536
287,2.87,-0.010623300138871713,0.037811913080563433,-0.024848459367792543,-0.0013811196683385244,-0.0009336464094259664,-0.0009336464094259664
288,2.88,-0.004982845222017041,0.05180086266488973,-0.05248994544482434,-0.0008394951496272748,-0.002234562432499842,-0.002234562432499842
289,2.89,-0.003980095589581106,0.005488089913646722,-0.0024857407625514735,-0.0013783099338973526,-0.002648816581208521,-0.002648816581208521
290,2.9,-0.007950268133734995,-0.06020277064208901,0.07247288666715959,-0.002196646020883218,-0.0030845721541275352,-0.0030845721541275352
291,2.91,-0.019112096385006022,-0.06633268936060199,0.0713239657171461,-0.0040985554081053,-0.003793270500884672,-0.003793270500884672
292,2.92,-0.03514826635609085,-0.016871600910299597,0.004050846046238416,-0.004953350049094142,-0.003126782603920833,-0.003126782603920833
293,2.93,-0.032996025616140734,0.004005324702285776,-0.03281506017318655,-0.0039396060452657426,-0.0029682140283918525,-0.0029682140283918525
294,2.94,-0.025336412019865508,-0.014081469389893901,0.018024752589776597,-0.0015393158117217765,-0.0029406227773751048,-0.0029406227773751048
295,2.95,-0.016191831267921494,-0.049846267832709824,0.0734106487118256,-0.001492141693286371,-0.0016510963165882204,-0.0016510963165882204
296,2.96,-0.022822731032700876,-0.022353713379820592,0.05805820128110224,-0.002677728587349047,-0.0017407386293779102,-0.0017407386293779102
297,2.97,-0.03218288296249599,0.03773504204360081,-0.00752717492147735,-0.003294062460290934,-0.0018547850460887106,-0.0018547850460887106
298,2.98,-0.03268239058655084,0.05686806330085417,-0.0468949890574391,-0.0033487946541203217,-0.0009826368108180573,-0.0009826368108180573
299,2.99,-0.016874866318200364,0.008727172994619803,-0.0020807366400085667,-0.0012224053341067713,-0.0014610197140216452,-0.0014610197140216452
300,3.0,0.006216137955699202,-0.022099366969806147,0.06790810938104481,-0.001496943179834956,-0.003337108561532201,-0.003337108561532201
301,3.01,-0.0006610008947560975,0.006035566825169975,0.06869803634526529,-0.003707216814396883,-0.0013416812434164024,-0.0013416812434164024
302,3.02,-0.006373090040682265,0.05355631913067759,-0.004329968243957233,-0.004695669018383589,-0.0001779398900628471,-0.0001779398900628471
303,3.03,0.004610936326078743,0.056267228528742316,-0.041701520641127435,-0.004504590132662726,-0.0010174286293391222,-0.0010174286293391222
304,3.04,0.020526222276539257,-0.004101722831008337,-0.0003541494870752081,-0.0029717483501134,-0.002289410255261455,-0.002289410255261455
305,3.05,0.031790409708442796,-0.025784843921092284,0.06595735441330139,-0.0024256834888265514,-0.002438312482676267,-0.002438312482676267
306,3.06,0.024369271579768426,0.008703954937268256,0.06577937242936208,-0.002892137011231886,-0.0016179956713795345,-0.0016179956713795345
307,3.07,0.01409199700696124,0.05806545281083995,-0.014611646668883777,-0.004656039917231077,-0.0013382575351433448,-0.0013382575351433448
308,3.08,0.015363405458075623,0.0462306309826918,-0.055769942511488375,-0.004281330240510329,-0.00046707428471629724,-0.00046707428471629724
309,3.09,0.020362182044820036,0.0012699429933302926,-0.008729809883839606,-0.0032535034025188638,-0.0019649812550181075,-0.0019649812550181075
310,3.1,0.02692785039100442,-0.03407983676940259,0.06054392918306612,-0.002809686821674857,-0.0018649411344208839,-0.0018649411344208839
311,3.11,0.023611977479214986,-0.018116070149395737,0.047941591339882114,-0.0014106415120657462,6.464812215649764e-05,6.464812215649764e-05
312,3.12,0.005824182442090611,0.03098027086159282,-0.026055769314273912,-0.0021740598600905334,-0.0012385584827527927,-0.0012385584827527927
313,3.13,0.003045378927484804,0.028145473086412943,-0.0600051449200583,-0.002514298247282738,-0.0031050111462391874,-0.0031050111462391874
314,3.14,0.013491362502106833,-0.00167906408232504,-0.026056986022737854,-0.0011375903558795333,-0.0042434955871659095,-0.0042434955871659095
315,3.15,0.018168129252523563,-0.0464089095695831,0.03858116161245725,-0.002229924877665593,-0.0036165364313545936,-0.0036165364313545936
316,3.16,0.0009653895896592681,-0.039357314779332915,0.03568035804431527,-0.003861823839668422,-0.001710652667153923,-0.001710652667153923
317,3.17,-0.01278575566320168,-0.004403375766916403,-0.034257993871856476,-0.0014447070858662238,-0.0032700066207033145,-0.0032700066207033145
318,3.18,-0.006785632898870312,0.01411181373767717,-0.07825700364460039,-0.0010550115994668442,-0.004067940855185782,-0.004067940855185782
319,3.19,0.004547754022161428,-0.014144104733769643,-0.040381472704637114,-0.001024590194832265,-0.003465082430999899,-0.003465082430999899
320,3.2,-0.0026011510174198385,-0.04798076402305054,0.02367841371536898,-0.0011564631141003075,-0.0023400141516616377,-0.0023400141516616377
321,3.21,-0.014989764478607517,-0.03812541186536021,0.032381326694222286,-0.004506868660608713,-0.001750677295076435,-0.001750677295076435
322,3.22,-0.02107278148360182,-0.005361891602536624,-0.04389265539253395,-0.005042507977260482,-0.0025604048792312677,-0.0025604048792312677
323,3.23,-0.02558976397937237,0.022593087271950373,-0.08625076446430295,-0.0035157603272913105,-0.0022780091197741204,-0.0022780091197741204
324,3.24,-0.007606727089763529,-0.017819279595662006,-0.03369467580754105,-0.0012812045887467115,-0.003279980508197039,-0.003279980508197039
325,3.25,-0.005127738934993131,-0.04502275365181657,0.028795454642785767,-0.001022563193551204,-0.003375858661607259,-0.003375858661607259
326,3.26,-0.0085545320393751,-0.03443543511781564,0.041040305347371436,-0.003857986640678785,-0.0009769817043921638,-0.0009769817043921638
327,3.27,-0.015976444355843878,0.01565720222715966,-0.023335623393874422,-0.0031224956710142393,-0.00037694672227912596,-0.00037694672227912596
328,3.28,-0.0196874676578951,0.03318041467121862,-0.07120244727525721,-0.00325271494794014,-0.0006855504560279574,-0.0006855504560279574
329,3.29,-0.007190495240836755,-0.01236036666999215,-0.026670961079208137,-0.0035324334495336327,-0.0024683318532373604,-0.0024683318532373604
330,3.3,-0.005546683461382685,-0.033154061860922325,0.042318564091384354,-0.0009565665590073193,-0.0028866808732280693,-0.0028866808732280693
331,3.31,0.00021341545919119267,-0.014746763265047189,0.042046722055661415,-0.0020193388748834078,-0.00141336819321586,-0.00141336819321586
332,3.32,-0.006506428869607807,0.04497991941708959,-0.01765598914302564,-0.0026255622603556547,-0.0015745629081266414,-0.0015745629081266414
333,3.33,-0.00030630083520766585,0.043201141427046584,-0.055921925002594644,-0.0024337678955661194,-0.002594914468270539,-0.002594914468270539
334,3.34,0.009068013412784728,0.0023691318019394003,-0.00931340993124447,-0.0032870576379768392,-0.002626039613490645,-0.002626039613490645
335,3.35,0.00016725310870294424,-0.03203072167618518,0.062913682847092,-0.0021198985007381283,-0.0039541673161802215,-0.0039541673161802215
336,3.36,-0.0016489785711149042,-0.012900930813157258,0.05265631584285781,-0.0022229480479220103,-0.004455561289052558,-0.004455561289052558
337,3.37,-0.0015739855424885228,0.039075113056269914,-0.012000143074840146,-0.002303559461699232,-0.003194551530416355,-0.003194551530416355
338,3.38,-0.0021814897002056305,0.05354187884174656,-0.04559004719788226,-0.002729473545856307,-0.003635629784034579,-0.003635629784034579
339,3.39,0.009685847736752653,0.01724717636682028,-0.002422776536722949,-0.0032099928287788048,-0.004460669575175192,-0.004460669575175192
340,3.4,0.030961871604759425,-0.03494335457766655,0.06357627292427617,-0.0032116327473457624,-0.004209343173525183,-0.004209343173525183
341,3.41,0.026968092716504372,-0.010234036605800856,0.057334902313618874,-0.0039341009954924405,-0.002927866880844497,-0.002927866880844497
342,3.42,0.009599826118053791,0.03190853844341145,-0.011328842972049606,-0.004268090843911465,-0.002607757255526671,-0.002607757255526671
343,3.43,0.004962621539962561,0.041322445307325165,-0.0506984191949294,-0.004668824083077572,-0.0026868139864694622,-0.0026868139864694622
344,3.44,0.018057912894303578,-0.005671622786429138,-0.014316398687016983,-0.0026450215566215514,-0.002364391699011161,-0.002364391699011161
345,3.45,0.02673748865190388,-0.027976844448390846,0.05611432623201604,-0.002288091836794901,-0.0010729126795263227,-0.0010729126795263227
346,3.46,0.013657606861371829,-0.0014907187532254874,0.06310574604369432,-0.0039783017400939575,-0.0009556572296700131,-0.0009556572296700131
347,3.47,-0.009134585513302798,0.039885790197959146,-0.010572910966522124,-0.0032017558279818737,-0.0018381903852458489,-0.0018381903852458489
348,3.48,-0.013921042209696187,0.05218319481435718,-0.05522154653454399,-0.0021111234850592527,-0.0024196019774408327,-0.0024196019774408327
349,3.49,0.005762956725995064,0.004922548561316653,-0.01899308746556045,-0.0013366845702045,-0.0010605627340918894,-0.0010605627340918894
350,3.5,0.011806342485083696,-0.022863527716317833,0.052819373028833515,-0.0019409631207948095,-0.001804337588989616,-0.001804337588989616
351,3.51,-0.01019632371852515,-0.022258825181974678,0.053912667257000606,-0.003555944059460187,-0.003093287403126841,-0.003093287403126841
352,3.52,-0.02405264218586475,0.02505012466069928,-0.009793840838425893,-0.004959064344191104,-0.002748430237012378,-0.002748430237012378
353,3.53,-0.012267701551498117,0.031068267197662206,-0.06524050118642509,-0.003998114284799355,-0.0033043179088163423,-0.0033043179088163423
354,3.54,-0.0007494654282464066,-0.0024690539532039035,-0.0352944537728971,-0.0019766049944878435,-0.002694958943137883,-0.002694958943137883
355,3.55,0.002716825368086989,-0.049122072811080414,0.04333204321605704,-0.0014946738251356993,-0.003170058982315157,-0.003170058982315157
356,3.56,-0.012315269752597068,-0.052642835902154426,0.04066270157145475,-0.003019874474114789,-0.002630137601202973,-0.002630137601202973
357,3.57,-0.02499029817847498,0.010530396225248664,-0.020269779724069018,-0.002569176281737305,-0.0021081482995485954,-0.0021081482995485954
358,3.58,-0.01852991759368182,0.032958420175270085,-0.06861857879610629,-0.001576904744135344,-0.0016599566075661755,-0.0016599566075661755
359,3.59,-0.018864739271489038,0.001960153442910813,-0.03643671022340095,-0.003307299957358243,-0.001426197135646816,-0.001426197135646816
360,3.6,-0.006515323300583866,-0.054414652474619206,0.05184025720248728,-0.0029521031878195327,-0.0019727874888232147,-0.0019727874888232147
361,3.61,-0.0061048387070459864,-0.0419161224731035,0.054238207868555335,-0.002558780474629624,-0.0012663024844725749,-0.0012663024844725749
362,3.62,-0.01666491640883668,0.014896731758210113,-0.023436125496869565,-0.002201152688313176,-0.0007193139329129403,-0.0007193139329129403
363,3.63,-0.007913662670609542,0.038535914047523455,-0.06679700592947055,-0.003074567191718961,-0.002153288657563058,-0.002153288657563058
364,3.64,0.005031657321964813,-0.007598147699760067,-0.02481539941419332,-0.003014590598657143,-0.004368753482531198,-0.004368753482531198
365,3.65,0.014842331311758723,-0.05043487033207241,0.05434522914396305,-0.002727297916134537,-0.002735230622007725,-0.002735230622007725
366,3.66,0.0057402558088321485,-0.027979305706973108,0.06068463801474203,-0.005366716291530266,7.015789830595225e-05,7.015789830595225e-05
367,3.67,-0.0028030331540032554,0.014392251389966627,-0.011653705581586304,-0.003540897450364452,-0.001804357830612031,-0.001804357830612031
368,3.68,-0.001572990043394105,0.02800311896090572,-0.05558346641293943,-0.0016314322421871305,-0.003355068660471117,-0.003355068660471117
369,3.69,0.016339142752522618,-0.0194019488875841,-0.018394796547626505,-0.0018749577990588477,-0.0012495306832056908,-0.0012495306832056908
370,3.7,0.029672301363529066,-0.04370474664497134,0.05472449540425867,-0.002118957679871853,-0.001089127373460198,-0.001089127373460198
371,3.71,0.014486293053502138,-0.030057679405506132,0.06098782264623864,-0.004719570559471907,-0.0016627252317442385,-0.0016627252317442385
372,3.72,-0.007886760943999066,0.024472617307927394,-0.012405030372915411,-0.004643362284849202,-0.001257891363920848,-0.001257891363920848
373,3.73,0.005342894378556022,0.02865171258715227,-0.056005612362310886,-0.0025872538931046287,-0.0005159556769650095,-0.0005159556769650095
374,3.74,0.03198527462556039,-0.013296482361739491,-0.02216927438592602,-0.0014360376309676085,-0.0016302112739137913,-0.0016302112739137913
375,3.75,0.023512100120101687,-0.02783564825022409,0.044281942190368254,-0.0012214813769619891,-0.0030688116099639663,-0.0030688116099639663
376,3.76,0.009772884702066158,-0.01437132566889661,0.04585877471412457,-0.0029695757191933107,-0.002384728988956498,-0.002384728988956498
377,3.77,-0.002739703693180457,0.029602056338622885,-0.015628321866697284,-0.003244394620724891,-0.0016705565501175788,-0.0016705565501175788
378,3.78,0.00045749326156577317,0.03548932379850462,-0.06567907194223402,-0.002889363855577814,-0.002201703943965425,-0.002201703943965425
379,3.79,0.004159656675076688,0.019695947384807466,-0.035423401490185275,-0.0027287105476306666,-0.002660430853640032,-0.002660430853640032
380,3.8,0.00709645323906457,-0.023761863747816737,0.03776422376808422,-0.002030018809445132,-0.0023617806469915124,-0.0023617806469915124
381,3.81,-0.00023329034642792512,-0.010430895139897565,0.03696728512578604,-0.0027679126380777213,-0.003689243668514685,-0.003689243668514685
382,3.82,-0.02781113122865525,0.04373008465100873,-0.018211361260658986,-0.0037228127572982266,-0.0027010396341550533,-0.0027010396341550533
383,3.83,-0.030826564184066027,0.05622726419791334,-0.06458847217730226,-0.001886928686898932,-0.0017010978040285982,-0.0017010978040285982
384,3.84,-0.009622394052457971,0.023158980586714013,-0.03207328896235091,-9.273225949934865e-05,-0.0035929421094873398,-0.0035929421094873398
385,3.85,0.010385712477994287,-0.03182252036945758,0.04042851635920702,-0.0009776706178346744,-0.0037895059455963186,-0.0037895059455963186
386,3.86,-0.0103289436957523,-0.016242183290488085,0.03529930269172604,-0.0022061988111066765,-0.001688011051909215,-0.001688011051909215
387,3.87,-0.029457169601915644,0.034809640224843445,-0.03366044502080052,-0.0031519306611367433,-0.0004425374156774885,-0.0004425374156774885
388,3.88,-0.014383254064330508,0.05869785256167113,-0.0746024700934711,-0.0023960436382603253,-0.00211064488471759,-0.00211064488471759
389,3.89,0.003957954846398463,0.014905166923663025,-0.022807857764644522,3.993510213810581e-05,-0.0025231939260091816,-0.0025231939260091816
390,3.9,0.00815063130728071,-0.02648038248795232,0.05734433918042086,0.00028959421747473246,-0.0029729488961748075,-0.0029729488961748075
391,3.91,-0.002816224738594134,-0.026558278321725935,0.05713854176775681,-0.0030992221042760943,-0.0034059592722744587,-0.0034059592722744587
392,3.92,-0.011352956885182106,0.011388400513083267,-0.002353634583665845,-0.00522284836905256,-0.0010014701007164234,-0.0010014701007164234
393,3.93,-0.003408105287677487,0.025604772802788747,-0.043074129080268864,-0.003032284966648885,-0.0008816263839530814,-0.0008816263839530814
394,3.94,0.008243252782262272,-0.010952427606649967,-0.012899858854213865,-0.0020820549480039486,-0.0019587198454050127,-0.0019587198454050127
395,3.95,0.014967798323878796,-0.044057903547237064,0.06725227606191665,-0.002766861500561272,-0.0007721685718870577,-0.0007721685718870577
396,3.96,0.015648977262350414,-0.0424533257612152,0.06373439250951604,-0.0035328915765666814,-0.0008968649061897502,-0.0008968649061897502
397,3.97,-0.007934229508312988,0.02970322699933773,-0.01718066678998547,-0.003473941483856368,-0.0019699588438942873,-0.0019699588438942873
398,3.98,-0.00984880979023842,0.03806158761589295,-0.05542763013798664,-0.0036082546917599366,-0.002496761459985194,-0.002496761459985194
399,3.99,0.012974383955014865,-0.014147146507357763,-0.01895622840377786,-0.003195468174682918,-0.0037022861815010103,-0.0037022861815010103
400,4.0,0.021203380903913688,-0.04983685917757037,0.05931221879837148,-0.0026541530835151863,-0.0017836012459048574,-0.0017836012459048574
401,4.01,0.013591324772289672,-0.030681921581939442,0.06268447640795813,-0.004755543943296369,-0.0007447090096644398,-0.0007447090096644398
402,4.02,-0.0068588013687071025,0.020363706741061385,-0.02319124859909254,-0.0057969641533426935,-0.001386581773988286,-0.001386581773988286
403,4.03,-0.010141646533889827,0.029954536632800625,-0.06801550130373168,-0.003946555319972789,-0.0019989730652467943,-0.0019989730652467943
404,4.04,0.010644797423309791,-0.009139393587751826,-0.014636212607629349,-0.0019348917799958398,-0.003765053674004011,-0.003765053674004011
405,4.05,0.02064204730797442,-0.05273610509623219,0.04482922022978411,-0.00158731017007512,-0.003320334174918301,-0.003320334174918301
406,4.06,-0.0015283444217489032,-0.014092012392542538,0.04706043590055135,-0.002360882397684701,-0.0007387025701974303,-0.0007387025701974303
407,4.07,-0.022714702563037013,0.02264400950775375,-0.01316489030034763,-0.002724227557383949,-0.001395096894883689,-0.001395096894883689
408,4.08,-0.017628230599907303,0.027904898595082092,-0.063058063978029,-0.002613632790102609,-0.001904881591290839,-0.001904881591290839
409,4.09,0.0025043599309759034,-0.01148762528871548,-0.01809761619089434,-0.0015532247632366052,-0.0017319914488750814,-0.0017319914488750814
410,4.1,0.015144252881290926,-0.043181161760067144,0.04273015791604875,-0.0011559226668975144,-0.002751953696141751,-0.002751953696141751
411,4.11,0.004121031436155981,-0.017957121110762055,0.04315038701119586,-0.0036122135318121095,-0.0007285461531475754,-0.0007285461531475754
412,4.12,-0.015471020121542903,0.01714153765588816,-0.013547097884008378,-0.004268277424947914,-0.0005198486058863697,-0.0005198486058863697
413,4.13,-0.013688142790831456,0.032064093828275374,-0.05883980565234915,-0.0015623599725144931,-0.0008750701055272827,-0.0008750701055272827
414,4.14,0.0016024411897359652,0.0038922090879309323,-0.026880536803835807,-0.0009190348824147953,-0.0019993176806416867,-0.0019993176806416867
415,4.15,0.003988169895325511,-0.02369632546398794,0.05428609759189726,-0.0020788036942968762,-0.0037202224430661814,-0.0037202224430661814
416,4.16,0.0023455489371163253,-0.034596813220529724,0.056197603136244244,-0.0038404019951843865,-0.001185357491648465,-0.001185357491648465
417,4.17,-0.0053053278643769245,0.013160740721700825,-0.024696726404889537,-0.004672598840707395,-0.0001590457006501049,-0.0001590457006501049
418,4.18,-0.0045611003013231784,0.0369942624861775,-0.06803930409675729,-0.0035363653561833242,-0.001023540735147815,-0.001023540735147815
419,4.19,0.011054806884901694,0.003245518494715106,-0.03534500366170635,-0.0009532199049482636,-0.0030347987427776324,-0.0030347987427776324
420,4.2,0.013001407317080022,-0.024095911960591233,0.04543195073347039,-0.000744173171985805,-0.0024545649273284586,-0.0024545649273284586
421,4.21,0.002549099038501557,-0.014662123536287281,0.05629905117784723,-0.003635817880009939,-0.0022040637783469048,-0.0022040637783469048
422,4.22,-0.00763540845688516,0.029672665067714078,-0.02019109092279469,-0.0035048129422012983,-0.004773065278398424,-0.004773065278398424
423,4.23,-0.004040613044542408,0.040786746579451555,-0.060825950262546134,-0.0016076607217904956,-0.0031403616988787825,-0.0031403616988787825
424,4.24,-0.002563619426275309,0.011583664619475714,-0.020688081552392074,-0.001955578427182741,-0.0016086039577164193,-0.0016086039577164193
425,4.25,-0.002321751548571238,-0.030431662817499167,0.044928618408156186,-0.0024542872642521,-0.0008610414175090554,-0.0008610414175090554
426,4.26,-0.001308997301396218,-0.01544793194194572,0.05367341755844148,-0.002712839099827452,-0.001101536161757384,-0.001101536161757384
427,4.27,-0.015435392318247957,0.030162624464953883,-0.014403689553545634,-0.004049923408985798,-0.0035049478768720745,-0.0035049478768720745
428,4.28,-0.011945555585145321,0.047941219774039485,-0.07541365788722695,-0.003659294040289089,-0.0033087562407917714,-0.0033087562407917714
429,4.29,0.0034841832102966196,0.008899344201943084,-0.03244670750861109,-0.0025429042854342872,-0.003187731963925626,-0.003187731963925626
430,4.3,0.004710203907735092,-0.03833769729781183,0.05259107074959378,-0.0035112451166704386,-0.004232596704720122,-0.004232596704720122
431,4.31,0.0022847094593422164,-0.018578180615488722,0.05225158596609357,-0.005177269965029205,-0.0032799211578642762,-0.0032799211578642762
432,4.32,-0.0037684503384803336,0.028351136584424525,-0.01815758992933552,-0.0039853644882871285,-0.002286199696265952,-0.002286199696265952
433,4.33,-0.006883645681811143,0.04285149365585978,-0.06480863186573307,-0.0014996335422140874,-0.0015726564786345142,-0.0015726564786345142
434,4.34,0.0043489440263529975,-0.0037528157015358082,-0.028154228135661496,-0.0013570173368173052,-0.002801804828165627,-0.002801804828165627
435,4.35,0.01639384136607895,-0.03467320492543144,0.05151113913491249,-0.0033980642956249665,-0.0020919323969393203,-0.0020919323969393203
436,4.36,0.014690002340131443,-0.026650420995802376,0.05038712973828074,-0.005521985751149169,-0.0016499857697341355,-0.0016499857697341355
437,4.37,-0.006198393679501568,0.020558713208681037,-0.013692377022225446,-0.005627407939992789,-0.0016395266789646953,-0.0016395266789646953
438,4.38,-0.006777984060067547,0.023943486689434426,-0.05513795634601047,-0.0031929919457181354,-0.0012981164558674618,-0.0012981164558674618
439,4.39,0.00770962442402969,-0.020309611932100173,-0.021555791183153115,-0.002284365036546223,-0.0022049052430186326,-0.0022049052430186326
440,4.4,0.02169946999679715,-0.03326835965915642,0.06052125459855772,-0.00356144812490844,-0.002758541966796842,-0.002758541966796842
441,4.41,0.01993694394179839,-0.022283316825795853,0.05761481235847487,-0.004692397961353287,-0.0015160421733724544,-0.0015160421733724544
442,4.42,-0.010068998947779084,0.016914238602954094,-0.007267541193104396,-0.005331298439948407,0.001284381931872766,0.001284381931872766
443,4.43,-0.011089407047503701,0.022395219869959893,-0.05846889137661476,-0.0024569899385902647,-0.00017121635389365404,-0.00017121635389365404
444,4.44,0.00039856903094909017,-0.00046795312422893975,-0.031039791018486494,-0.0005235559073358474,-0.002121190836759564,-0.002121190836759564
445,4.45,0.013972924915661622,-0.03466079629900158,0.05293440331049535,-0.0011464924913168267,-0.002590187302905525,-0.002590187302905525
446,4.46,0.01368483927763104,-0.021336505887984566,0.05822189663512245,-0.0031799443543673016,-0.0010432168068280935,-0.0010432168068280935
447,4.47,-0.015050522299053851,0.02450339898492761,-0.010209788404277359,-0.003572256713255074,0.0004143101950837175,0.0004143101950837175
448,4.48,-0.01685388583074473,0.03497701320122788,-0.06793255012180868,-0.0035650687894551313,-0.001423458993256686,-0.001423458993256686
449,4.49,0.004233641076361459,0.011130514445236621,-0.022443235792001928,-0.004197141546099792,-0.004510481195461478,-0.004510481195461478
450,4.5,0.00882298905802016,-0.034486514188309836,0.06386565206973358,-0.003858360537910612,-0.004260760385033714,-0.004260760385033714
451,4.51,-0.0059954759486703,-0.018857295602360373,0.05405975344272028,-0.0037791139793916678,-0.00334285594839387,-0.00334285594839387
452,4.52,-0.009669388607704981,0.02384411564942504,-0.0144097557253288,-0.003502203560630625,-0.003759262879030575,-0.003759262879030575
453,4.53,-0.008906310527841098,0.0366403649513773,-0.057198122077416105,-0.004073678337728782,-0.003464231068879602,-0.003464231068879602
454,4.54,-0.004822849805192672,-0.00046013484193203717,-0.027664860915106698,-0.002044891255320664,-0.0027839193461402976,-0.0027839193461402976
455,4.55,0.000864413710408986,-0.03663600902887538,0.044124594190587285,-0.00048475061716781993,-0.0022731591532410274,-0.0022731591532410274
456,4.56,-0.0032726398199706777,-0.026155062643887693,0.042792524684832564,-0.0034637228404075003,-0.0018721080362012227,-0.0018721080362012227
457,4.57,-0.007896988138931138,0.015091064771445135,-0.03117509133529705,-0.00472596290227154,-0.0013694934973651342,-0.0013694934973651342
458,4.58,-0.006686406818825211,0.03564185099720965,-0.06300379926278367,-0.0021602075919839045,-0.0030648773031882385,-0.0030648773031882385
459,4.59,0.0033572443063591374,-0.012604459794660837,-0.010696238001550059,-0.0008970828976466693,-0.004400416564170391,-0.004400416564170391
460,4.6,0.010070118763096991,-0.048513800423872135,0.06706634155560169,-0.001778127784402846,-0.002048442951285346,-0.002048442951285346
461,4.61,0.009235403895376944,-0.03360095002851614,0.05740821520038469,-0.003273945537794873,-0.0011427064441579286,-0.0011427064441579286
462,4.62,-0.008645926400630376,0.018941238677237376,-0.024642284720745936,-0.004018753914023678,-0.0016714173395417885,-0.0016714173395417885
463,4.63,-0.008174589972689602,0.031137169879038206,-0.07194882693726376,-0.0033899275057915033,-0.0017471927678617534,-0.0017471927678617534
464,4.64,0.009903388340113799,-0.011233479153573875,-0.023210295350161343,-0.002464496368840657,-0.003864844681348529,-0.003864844681348529
465,4.65,0.011931279665095954,-0.04875462978460269,0.053222406362670956,-0.0021833758203136304,-0.0030509554366491337,-0.0030509554366491337
466,4.66,0.00020506054701447535,-0.023764732708824482,0.04190814611411224,-0.003304049695265509,-0.0013810718205838975,-0.0013810718205838975
467,4.67,-0.019448232530622625,0.028347118321662642,-0.0307851213208174,-0.0033848916433833346,-0.00234056531635601,-0.00234056531635601
468,4.68,-0.013448141749965638,0.024143710124903742,-0.08125061209967963,-0.001680920261981065,-0.0030961341656500136,-0.0030961341656500136
469,4.69,-0.00043294005334985723,-0.00038807259944782097,-0.034568976039373096,-0.0001974450530145657,-0.003364563491235757,-0.003364563491235757
470,4.7,0.0029069108231906224,-0.021380305502506167,0.04659927825217857,-0.0005548520897859117,-0.0031018600007546642,-0.0031018600007546642
471,4.71,-0.0008094227588137319,-0.001242998210770948,0.04554923065760531,-0.00290985299044519,-0.002677588301709858,-0.002677588301709858
472,4.72,-0.01976523154381764,0.03375392515277249,-0.02619564539914013,-0.0037360207905417116,-0.002519371889787005,-0.002519371889787005
473,4.73,-0.019350501666768744,0.04661640784429069,-0.07110312550417858,-0.0018983013731358887,-0.0004587897716860695,-0.0004587897716860695
474,4.74,0.0015267107195265986,0.01503358220101489,-0.019571817168900833,-0.0019811672195008305,-0.0020720229405028377,-0.0020720229405028377
475,4.75,0.012119334514153257,-0.01696922395439658,0.05132690074252348,-0.004223674056098144,-0.0028351146062137213,-0.0028351146062137213
476,4.76,0.00529776905865326,0.0017097147792262141,0.05170834332427621,-0.00512048333855649,-0.0009473848969898703,-0.0009473848969898703
477,4.77,-0.007341358830471841,0.03469374836533754,-0.014553279198342445,-0.005126632786916026,-0.0012987819473748324,-0.0012987819473748324
478,4.78,-0.008212203207159359,0.05117306993460181,-0.058605408824233346,-0.002145455179159844,-0.0020969461511766664,-0.0020969461511766664
479,4.79,0.010568333322934692,0.011771931293285257,-0.010675869542732551,-0.0004410480746877296,-0.0029078935017624024,-0.0029078935017624024
480,4.8,0.029598190765225952,-0.022312489609744576,0.0648429164239481,-0.0020235128773500592,-0.0019275485005654546,-0.0019275485005654546
481,4.81,0.026348499507255103,-0.019477477005048024,0.062022323524404226,-0.0032323219396542023,-0.001947188860849229,-0.001947188860849229
482,4.82,0.006698700665567634,0.020993152844265513,-0.007812888550094262,-0.0037844995411303204,-0.0027040773674058354,-0.0027040773674058354
483,4.83,0.004822469910722625,0.03418709664504682,-0.0580398897888275,-0.0018858231004737066,-0.002724825206842022,-0.002724825206842022
484,4.84,0.015732905979071215,-0.0015055373157598605,-0.011537809355676693,-0.00014154614595703955,-0.002844380728768249,-0.002844380728768249
485,4.85,0.012262353806090977,-0.03275108337231769,0.07672746132534798,-0.0017734631762744786,-0.003497986804321809,-0.003497986804321809
486,4.86,0.005834993648000597,-0.03166466663007819,0.06202684512785687,-0.004265575288732488,-0.002059231390318898,-0.002059231390318898
487,4.87,-0.0034287400510431025,0.01000590542543743,-0.012691099157659348,-0.00409292361271776,-0.0009136289153232307,-0.0009136289153232307
488,4.88,-0.0008283353350229802,0.013735503480297482,-0.05502907004045244,-0.002168513991013894,-0.0007040749071662015,-0.0007040749071662015
489,4.89,0.011113001198801018,-0.013660893096929708,-0.01902131217678597,-0.0015371087827804994,-0.0006016809594925961,-0.0006016809594925961
490,4.9,0.01252656587414856,-0.05040997016147953,0.05756555146559402,-0.003643595171628072,-0.002625968744641113,-0.002625968744641113
491,4.91,0.0012564742423610675,-0.03361533784403263,0.05204722833410588,-0.00445366088616058,-0.0016030553831716727,-0.0016030553831716727
492,4.92,-0.010142510895155794,0.014337377594721274,-0.019999415475528377,-0.0038823412852994742,-0.00019251899360396845,-0.00019251899360396845
493,4.93,-0.00853744898544106,0.018802729354343413,-0.06574354200397277,-0.0041816127925269975,-0.0016556392837360967,-0.0016556392837360967
494,4.94,0.004271693954828579,-0.023176725590590225,-0.02449608245896515,-0.0015476750876350287,-0.0018742159896723586,-0.0018742159896723586
495,4.95,0.00551567789182607,-0.05548428741551416,0.04636880795288649,-0.0017015834027457998,-0.0016312671700104654,-0.0016312671700104654
496,4.96,-0.010464366490694228,-0.017546880358430807,0.04398463933393585,-0.004712565015882322,-0.001401414454970244,-0.001401414454970244
497,4.97,-0.015381220052260388,0.018507779164260094,-0.02924790498610636,-0.004589982476666965,-0.002158667264933971,-0.002158667264933971
498,4.98,-0.011601321503126935,0.026139393291783497,-0.07257327614458388,-0.0026189630852572025,-0.002841153554676212,-0.002841153554676212
499,4.99,-0.003945310755139976,-0.009485177315073024,-0.02374433501317236,-0.0017105095336915185,-0.0019581900249360947,-0.0019581900249360947
500,5.0,-0.00377759376472682,-0.038891601438784194,0.04579190380812979,-0.0013599032571318176,-0.001168380571866034,-0.001168380571866034
501,5.01,-0.008139611966105336,-0.021773007289183445,0.03749585457091888,-0.00264757155362917,-0.0019676604991124475,-0.0019676604991124475
502,5.02,-0.022964282803511968,0.024281983225222698,-0.037731229754739526,-0.003714347433959765,-0.002162168241263698,-0.002162168241263698
503,5.03,-0.033652810991736185,0.029831816536178214,-0.07490216704571914,-0.0017910563961620024,-0.00191972359434552,-0.00191972359434552
504,5.04,-0.01943511740434297,-0.006405259973549078,-0.030273198494797454,-0.0010063300782539029,-0.003868409210520512,-0.003868409210520512
505,5.05,-0.00609244045092423,-0.02357262527979715,0.043830872195401605,-0.002332906493140017,-0.00457465116403831,-0.00457465116403831
506,5.06,-0.004900642814736854,-0.018994455381008343,0.040134617290137974,-0.003424515585760945,-0.002669087143192979,-0.002669087143192979
507,5.07,-0.023223918166172856,0.02830083806334918,-0.030735144521065592,-0.0020640815563981673,-0.0006097281618319083,-0.0006097281618319083
508,5.08,-0.015745513642946782,0.03436517061077977,-0.07607462378400331,-0.0014576197155767852,-0.00034910713515220326,-0.00034910713515220326
509,5.09,0.011577294498433898,0.00440363810302615,-0.029005956981958472,-0.001475875625852436,-0.0028655885162317905,-0.0028655885162317905
510,5.1,0.0236104650670761,-0.02779922734140842,0.053028589867808514,-0.0019460265304583708,-0.003337515606291673,-0.003337515606291673
511,5.11,0.007229590013067624,-0.012288567872269346,0.0464042061757354,-0.0033242549984364078,-0.00046025068524331033,-0.00046025068524331033
512,5.12,-0.014348790790652993,0.040968890470038793,-0.022523537444926717,-0.0034877705005821893,-0.00013599717351528383,-0.00013599717351528383
513,5.13,-0.0039036963133196323,0.04132804126668607,-0.062265744118274256,-0.0031344227750417287,-0.002491305129334632,-0.002491305129334632
514,5.14,0.010441169256918863,0.01796799164999786,-0.011541370420931625,-0.002218483792821875,-0.0034142749561907465,-0.0034142749561907465
515,5.15,0.015103657591881856,-0.018114346878224972,0.06293232399347928,-0.002344899176188452,-0.0015243287138395785,-0.0015243287138395785
516,5.16,0.009650777449995644,-0.011093554169498174,0.06351085729237463,-0.002545959178264941,-0.00102653704315519,-0.00102653704315519
517,5.17,0.009238554650146296,0.028877347086158963,-0.00829447134252282,-0.002334232426282876,-0.0008052089749369263,-0.0008052089749369263
518,5.18,0.01644969261961809,0.046437016720659446,-0.0560789280976215,-0.002818341832560296,-0.00023032090718858145,-0.00023032090718858145
519,5.19,0.02817091480195246,0.020946585986963896,-0.006992866097050849,-0.0019384531478743407,-0.001162042293797868,-0.001162042293797868
520,5.2,0.029777906597321182,-0.021862911868894202,0.07485301067526094,-0.002252898874715325,-0.001241524389638476,-0.001241524389638476
521,5.21,0.016111291160569554,-0.015774701904716464,0.08207075073558918,-0.004767496721164878,-0.00032169888599606003,-0.00032169888599606003
522,5.22,0.016503336690666635,0.03180437666402659,0.003831518021105946,-0.004983057112808896,-0.001998344768298947,-0.001998344768298947
523,5.23,0.02274740213185006,0.05096326446975382,-0.04457311293044781,-0.0032090511510671628,-0.004414823619293597,-0.004414823619293597
524,5.24,0.01586238195631113,0.00886142033955133,-0.0015264134692336414,-0.0012288641048734134,-0.0030161151674079445,-0.0030161151674079445
525,5.25,0.012650246699902855,-0.03082467326041015,0.07191865847848139,-0.0016176135962457008,-0.0022722743726511963,-0.0022722743726511963
526,5.26,0.009968216096251425,-0.027882327150906775,0.06090781543671792,-0.002951008798160966,-0.0029035966792298595,-0.0029035966792298595
527,5.27,-0.01204679758409647,0.027861644261351275,-0.018513721671897555,-0.004030810303831326,-0.0023876872260193754,-0.0023876872260193754
528,5.28,-0.008272082222348914,0.03129640395339907,-0.059160557841068225,-0.004077882386182851,-0.0003272563568587838,-0.0003272563568587838
529,5.29,0.001817994137672696,-0.01837280742784428,-0.01946545499984615,-0.0024357487081770354,-0.0016017973868942554,-0.0016017973868942554
530,5.3,-0.00523410600765028,-0.051397291316219895,0.05001234317113648,-0.002700454249345741,-0.0029066119955713228,-0.0029066119955713228
531,5.31,-0.009560333720590652,-0.045197194311745736,0.03833959585638241,-0.00426698364088294,-0.002515487681875608,-0.002515487681875608
532,5.32,-0.024746667758021056,0.006742824112914724,-0.03875000004063757,-0.005647549814032957,-0.0025857102548262003,-0.0025857102548262003
533,5.33,-0.024705852100021942,0.017878213327914654,-0.08155308856396468,-0.004741616282138658,-0.002276379885874322,-0.002276379885874322
534,5.34,-0.015331309019586166,-0.02056418932739965,-0.03255164558559484,-0.0017784035458434809,-0.0018668934684398426,-0.0018668934684398426
535,5.35,-0.015073092129104394,-0.06053707456386521,0.03656861064592433,-0.0011487565155543088,-0.0017304069115650145,-0.0017304069115650145
536,5.36,-0.026684427506636063,-0.0351754138032741,0.02417226992950204,-0.0025687889541928053,-0.0024893303668133268,-0.0024893303668133268
537,5.37,-0.035671746035303376,0.011319984972745247,-0.043153122495543504,-0.0036555217732359368,-0.0015042937588556006,-0.0015042937588556006
538,5.38,-0.02872073728672042,0.027728961610710322,-0.08235408516848458,-0.002654249859690398,-0.0022495861029583173,-0.0022495861029583173
539,5.39,-0.012426198943230791,-0.009202254971033837,-0.03969362796460223,-0.0004092660207869125,-0.003721722055069451,-0.003721722055069451
540,5.4,0.007384862523462356,-0.05462593683269107,0.02381123459674249,-0.000742433963529657,-0.0031866697446706962,-0.0031866697446706962
541,5.41,0.0018810077278348138,-0.03386481856706831,0.03047614701765232,-0.003256640351175555,-0.0014005307050640962,-0.0014005307050640962
542,5.42,-0.012496811691196284,0.010521092640818842,-0.025501831708494585,-0.004070672183300569,0.00022632512322935165,0.00022632512322935165
543,5.43,-0.00831548295537489,0.023105504619737385,-0.0681325849343972,-0.002784006591400151,-0.0007713111284339375,-0.0007713111284339375
544,5.44,0.01286795427203425,-0.020841249415775996,-0.03375948548086735,-0.001352821390724744,-0.001987528581007089,-0.001987528581007089
545,5.45,0.02411163448303251,-0.03673554221943962,0.05215608108394006,-0.0005531272056775151,-0.0005121313874769703,-0.0005121313874769703
546,5.46,0.010397561916859907,-0.015475089548829424,0.06289897377164702,-0.0020851907006293334,-0.0004035417098165674,-0.0004035417098165674
547,5.47,-0.004688889570526029,0.02795075334760555,-0.011824329011439937,-0.004574838105592296,-0.0007619977444704204,-0.0007619977444704204
548,5.48,0.004329957131749123,0.04521050176641,-0.053326371181103546,-0.004180809336410385,-0.0008453592277137569,-0.0008453592277137569
549,5.49,0.023791374691623256,0.01673234451261868,-0.014337368583000304,-0.0025845533957516162,-0.0013476267437585946,-0.0013476267437585946
550,5.5,0.0226084301146891,-0.013629176805295826,0.07363157707476242,-0.0010617218734927224,-0.0010217934753710307,-0.0010217934753710307
551,5.51,0.012398611138972414,-0.019127029671967548,0.06806473044233005,-0.0020346316416324684,-0.0002413559702482068,-0.0002413559702482068
552,5.52,0.003326056170257134,0.027350026524344456,-0.0073776978757667845,-0.004902211461375166,-0.00018311628590203521,-0.00018311628590203521
553,5.53,0.014560165189684143,0.05141557803645965,-0.04730571263165623,-0.004979066410778161,-0.002365001184120002,-0.002365001184120002
554,5.54,0.027959555634339325,0.02890044618265935,-0.0035939505591903696,-0.0017240339417823325,-0.00362754071721109,-0.00362754071721109
555,5.55,0.02458829880154805,-0.031203447247129402,0.07697853750835731,-0.0002892708216851689,-0.003216741142173081,-0.003216741142173081
556,5.56,0.004936147217981659,-0.029850444007011798,0.07240650657161189,-0.002629169564690351,-0.0015451984630149881,-0.0015451984630149881
557,5.57,-0.01001796813918849,0.04497560747448168,-0.011591117782000893,-0.004747952941377531,-0.00035844502159574113,-0.00035844502159574113
558,5.58,0.0007900985130391384,0.0777941184494387,-0.06254992587771381,-0.0021994269777480587,-0.002652736387013059,-0.002652736387013059
559,5.59,0.005971451124871352,0.02543265139590571,-0.01140979759681027,0.0015997358687471481,-0.0034385147411600944,-0.0034385147411600944
560,5.6,0.009731708908482612,-0.05238999569005569,0.06240664062504086,-0.0005760155136575584,-0.0028778330605591248,-0.0028778330605591248
561,5.61,-0.003274720348336744,-0.018235023810649162,0.057640464648878086,-0.0048858408780467644,-0.0037252683252316076,-0.0037252683252316076
562,5.62,-0.01611182923385612,0.05494804336575635,-0.0244858967916902,-0.005385198858833868,-0.0035784939636298416,-0.0035784939636298416
563,5.63,-0.017402562497368372,0.06521462849200736,-0.06913063551679063,-0.002331786105677891,-0.0034419369443185947,-0.0034419369443185947
564,5.64,-0.020366082675947625,0.011672564182218613,-0.024124940417776217,-0.001330816035215348,-0.002114449068750316,-0.002114449068750316
565,5.65,-0.011162617635579807,-0.03644554820100865,0.049800606150931695,-0.0027530299887872805,-0.0007210779414843613,-0.0007210779414843613
566,5.66,-0.004218660240523045,-0.02248886946673391,0.05003786678581253,-0.004644409902020871,-0.00015561430788781482,-0.00015561430788781482
567,5.67,-0.015600737476419133,0.03166732847934082,-0.03524641801513695,-0.004625435526539754,-0.0003028739036673664,-0.0003028739036673664
568,5.68,-0.03028816085710867,0.040573114187992934,-0.07827021290775506,-0.0017033267859006185,-0.0008174591626985237,-0.0008174591626985237
569,5.69,-0.011540931715923606,-0.016549805526213317,-0.032516374015470445,-0.0006021343084812306,-0.001266030063742461,-0.001266030063742461
570,5.7,0.0002836372822575149,-0.04608423900003393,0.042239925075559695,-0.0015564035688504744,-0.0025436165629132714,-0.0025436165629132714
571,5.71,-0.0067763951818790875,-0.03480847193821185,0.041462770209903334,-0.0019097101865665359,-0.002525047522798304,-0.002525047522798304
572,5.72,-0.015600961478199232,0.014926451209006927,-0.03159996259209519,-0.0027177529358338864,-0.001993217382886056,-0.001993217382886056
573,5.73,-0.012754573861669552,0.015141819849399149,-0.0676545341044957,-0.0028325747141119857,-0.002555681257751899,-0.002555681257751899
574,5.74,0.006359003993685018,-0.0319693399572956,-0.02816954932451525,-0.0006318469748871808,-0.0029342129026414736,-0.0029342129026414736
575,5.75,0.020934259807326425,-0.058896970712229435,0.045230321376387765,-0.0009947281471788182,-0.0023642361440404623,-0.0023642361440404623
576,5.76,0.010424053890935356,-0.036980487869100825,0.04323618104514662,-0.0029634287746501896,0.00033649297622565834,0.00033649297622565834
577,5.77,-0.006808955092716425,0.010004416788593151,-0.019780756072122364,-0.0025902772029595717,0.0008061180169675122,0.0008061180169675122
578,5.78,-0.00010756144313490024,0.0033480993523487164,-0.0637849298085563,-0.002211295117095897,-0.0012408157849798773,-0.0012408157849798773
579,5.79,0.01617910621524616,-0.02604119634613505,-0.025197977637074286,-0.001149441012242812,-0.002225671824034563,-0.002225671824034563
580,5.8,0.02998899927048267,-0.05094382875251245,0.05170187787950853,-0.000298375709946753,-0.002816121477827182,-0.002816121477827182
581,5.81,0.015424661074664404,-0.02395471095527559,0.05137548461231059,-0.003751976731854582,-0.002578895933343281,-0.002578895933343281
582,5.82,-0.008626523971101344,0.015917673883033237,-0.0055440250956490696,-0.005703204569986243,-0.0012233355835494445,-0.0012233355835494445
583,5.83,0.0012259224776527255,0.02090826610095183,-0.04139477785530883,-0.004249173491515021,-0.0021207841130996526,-0.0021207841130996526
584,5.84,0.021287913565077032,-0.005788942836465827,-0.005813268177956886,-0.002517233464205189,-0.004035126315522784,-0.004035126315522784
585,5.85,0.016507652243265045,-0.02995176481376692,0.05490320920353084,-0.0009956930191824644,-0.0016378180934688475,-0.0016378180934688475
586,5.86,0.0023163079782546163,-0.016313701364802084,0.05984811120236538,-0.002766831492997337,9.757916783313312e-05,9.757916783313312e-05
587,5.87,-0.005373684509205815,0.01798131351565284,-0.015955401480865508,-0.0037672427293396617,-0.0007753779285768296,-0.0007753779285768296
588,5.88,-0.0014810539637614083,0.04588668720669578,-0.06304014211496176,-0.003008825791722189,-0.0019494225184034024,-0.0019494225184034024
589,5.89,0.009711491173938592,0.012458256586839939,-0.02856731274859641,-0.003083982788439936,-0.004798690458588054,-0.004798690458588054
590,5.9,0.007009662148618956,-0.029769281100297744,0.04133973873821059,-0.0025321189750602425,-0.004399105843988046,-0.004399105843988046
591,5.91,-0.008626397082911423,-0.021256898972476096,0.04806204259970605,-0.0033846856901757344,-0.001025292371385655,-0.001025292371385655
592,5.92,-0.016047734603883583,0.03703115454844953,-0.02746972314407355,-0.0035098287425447345,-0.0006021534005050215,-0.0006021534005050215
593,5.93,-0.004424610866108713,0.04952614084142286,-0.0641353853430297,-0.002063161007029545,-0.0014419757189998931,-0.0014419757189998931
594,5.94,0.004399416164590093,0.005936101368446857,-0.013182505108712224,-0.0014851548770159345,-2.372499093601156e-05,-2.372499093601156e-05
595,5.95,-0.004273932072261363,-0.02059230063304763,0.05818540144841823,-0.0019183401704816238,0.0006401280337818238,0.0006401280337818238
596,5.96,-0.010269216985417351,-0.008976847481598316,0.04168343419290853,-0.0020159178793098136,-0.0015936318234435606,-0.0015936318234435606
597,5.97,-0.016114207763696084,0.04392112262990876,-0.0281654597038085,-0.0018975584244369367,-0.003271743717679717,-0.003271743717679717
598,5.98,-0.017659541174265672,0.05409947828552632,-0.07267036922552941,-0.002928248213114318,-0.0020731385050074096,-0.0020731385050074096
599,5.99,-0.008414746976799595,0.015751327567831756,-0.02320688335622405,-0.0020763095627318075,-0.002019407748523909,-0.002019407748523909
600,6.0,0.010199235036615196,-0.03189906558249114,0.056260888599479725,-0.0018490679585609973,-0.0015930133771315386,-0.0015930133771315386
601,6.01,0.00617828342639382,-0.013079234919238748,0.04842399456219361,-0.002887528224997612,-0.00015914773942405383,-0.00015914773942405383
602,6.02,-0.016138410360565576,0.04093930785042021,-0.006604029218078931,-0.0035462293548484407,-0.001394800989066893,-0.001394800989066893
603,6.03,-0.006570303660338898,0.041148048969384524,-0.04787471039475277,-0.0032821584731508725,-0.0016925681867643071,-0.0016925681867643071
604,6.04,0.018432015431250275,-0.008189426604400717,-0.011601478038219613,-0.002122788695523385,-0.0027252696964797825,-0.0027252696964797825
605,6.05,0.01905039412404803,-0.04852931306047778,0.050265738323335946,-0.0014946201989919287,-0.0033683240747691533,-0.0033683240747691533
606,6.06,0.0036420428950892543,-0.020908317356223904,0.04682477170951056,-0.0028759268131121705,-0.002388993549848409,-0.002388993549848409
607,6.07,-0.004454998647438096,0.024985088646152148,-0.01711167400476981,-0.004514117702232837,-0.0013901522754112279,-0.0013901522754112279
608,6.08,-0.0003930181091312949,0.03684838636169945,-0.05847964717355971,-0.0035640108790827353,-0.002178388843267848,-0.002178388843267848
609,6.09,0.011991120261702617,-0.015065716419921583,-0.014519968217478241,-0.0017048904405648525,-0.003225422974145173,-0.003225422974145173
610,6.1,0.010528698096485465,-0.042555310745499474,0.06021804851497706,-0.0021738696885553587,-0.002106350679144569,-0.002106350679144569
611,6.11,0.005171661407013976,-0.018577696723160432,0.047265551026305225,-0.0034412872227430817,-0.0011202527491565072,-0.0011202527491565072
612,6.12,-0.012733612695261496,0.020180965555078176,-0.0382347168744431,-0.00385832376005405,-0.00152188988106119,-0.00152188988106119
613,6.13,-0.019325579928095707,0.03125287964150886,-0.07034799471479294,-0.004045739990376297,-0.001468821429532807,-0.001468821429532807
614,6.14,0.0038331813284777005,-0.015386601835619757,-0.020291003914546937,-0.0025285205412181365,-0.001324301480863081,-0.001324301480863081
615,6.15,0.005037710357712091,-0.040008414765401984,0.05415563444484244,-0.0030413954315993324,-0.0019655643850958965,-0.0019655643850958965
616,6.16,-0.008172001219268985,-0.029418117847401566,0.047434308222801654,-0.004570275043577946,-0.001785977823030232,-0.001785977823030232
617,6.17,-0.023203494379575397,0.019606228394191343,-0.020642110583594393,-0.0040497115507608095,-0.0009362089817566316,-0.0009362089817566316
618,6.18,-0.01867222641033045,0.029667543864650685,-0.05761460848480325,-0.002532887251566313,-0.00034591404592898534,-0.00034591404592898534
619,6.19,0.00022651158254678207,-0.004075138081230688,-0.024459108252379867,-0.0004411553485936047,-0.002480145424572205,-0.002480145424572205
620,6.2,0.007559288996019322,-0.03998911840467063,0.05436621323717429,-0.0010833710998601914,-0.0023662455429553733,-0.0023662455429553733
621,6.21,0.0008081051970071823,-0.03892966396158169,0.0526183849871687,-0.0042871547184118175,-0.0004222800888525689,-0.0004222800888525689
622,6.22,-0.01398046086252368,0.017355975648029764,-0.008738708523848681,-0.004990755515019911,-0.000980308467043013,-0.000980308467043013
623,6.23,2.5552867280047558e-05,0.02960753330461452,-0.05879603329363807,-0.0023186624109875703,-0.0015793082730971243,-0.0015793082730971243
624,6.24,0.012472382959730032,0.0010228333624775487,-0.020526444225238902,-0.001158817493063701,-0.001646242147334705,-0.001646242147334705
625,6.25,0.017207817329112658,-0.04303495236733154,0.058731002886736494,-0.002219898783108944,-0.0018095883604556163,-0.0018095883604556163
626,6.26,0.00972101807735352,-0.03090675183846698,0.049796273930678314,-0.0026601774136545504,-0.0015813606576163053,-0.0015813606576163053
627,6.27,0.0005669025504461255,0.017347994697277856,-0.013652120707319838,-0.002453917934331376,8.8211353700886e-05,8.8211353700886e-05
628,6.28,0.006010919912994156,0.03866800603687619,-0.06083913081604948,-0.0019468006491232715,-0.0012194848041385336,-0.0012194848041385336
629,6.29,0.014451906419499453,-0.0015400900768575195,-0.026631186179103615,-0.0024208178372646405,-0.003353551399553368,-0.003353551399553368
630,6.3,0.017691310674565083,-0.05166420138559927,0.04026566565814109,-0.0041415377325982276,-0.0015199642761167134,-0.0015199642761167134
631,6.31,0.006655961113534426,-0.025696384306225197,0.04699665793896671,-0.0037522415919351046,-0.0003777444438437264,-0.0003777444438437264
632,6.32,-0.0023332195913389015,0.030628270941997483,-0.024981010609857822,-0.0036577977441943008,-0.00024329017569352335,-0.00024329017569352335
633,6.33,-0.005049037348452974,0.047860924036582056,-0.06643732174990086,-0.004105284003677165,-0.0008027763489117153,-0.0008027763489117153
634,6.34,0.0067089151551409576,-0.005490552323098955,-0.027268048093338236,-0.002464726756229413,-0.002925692140016067,-0.002925692140016067
635,6.35,0.008856824540705587,-0.03943207885431412,0.03795690298661017,-0.0025700218029358363,-0.002415379075646572,-0.002415379075646572
636,6.36,0.0008384603263298729,-0.022828256101925633,0.03759453743414022,-0.0049384434460516685,-0.0005493744507205661,-0.0005493744507205661
637,6.37,-0.020753363230284018,0.04258483060796253,-0.029165578917832384,-0.006356772807555988,-0.0012073701055814205,-0.0012073701055814205
638,6.38,-0.014664015414222588,0.05453141729922527,-0.0689910543433998,-0.004653032336336203,-0.0009588386029734704,-0.0009588386029734704
639,6.39,0.0062985635565588095,0.0002562195771505151,-0.027830516817283327,-0.0018718202731626856,-0.0008824660175000355,-0.0008824660175000355
640,6.4,0.015534204019883254,-0.03402880944759844,0.050599363552498326,-0.000881180506329973,-0.0016824013190047437,-0.0016824013190047437
641,6.41,0.004373478237989583,-0.012825505836404464,0.054749850087000715,-0.0020335327736294593,-0.002495882443296049,-0.002495882443296049
642,6.42,-0.022540862594218575,0.05323784943098233,0.0002742357976167585,-0.003535387883495302,-0.00182940856167726,-0.00182940856167726
643,6.43,-0.013625562275274564,0.047809226287236856,-0.046674964378646974,-0.003642847710180514,-0.002466302805312908,-0.002466302805312908
644,6.44,-0.008963884821216673,0.011756383276686336,-0.008765386766537027,-0.0014164098649960036,-0.0034228729603089413,-0.0034228729603089413
645,6.45,0.0013373732883155375,-0.015793588424049192,0.06673353417332724,-0.0016031565682306812,-0.0018615165804732566,-0.0018615165804732566
646,6.46,0.0033188386215811227,-0.010312849749656848,0.062238317726434234,-0.003613789935949601,-0.0013239715971244802,-0.0013239715971244802
647,6.47,-0.0179488195171993,0.018416941378410445,-0.005521501239193486,-0.004449928928515276,-0.0001620860026940778,-0.0001620860026940778
648,6.48,-0.012232192964121282,0.03460397047379242,-0.05281818730291596,-0.004141446599731302,-0.0008020095302668107,-0.0008020095302668107
649,6.49,0.008245316316466135,0.013951032809114302,-0.009849707642386478,-0.001203445317157049,-0.0017538621563315895,-0.0017538621563315895
650,6.5,0.02113439179322869,-0.037353440455275014,0.049390766397960945,-0.001325102219491046,-0.0019304010092263746,-0.0019304010092263746
651,6.51,-0.0005665655670406963,-0.027190118397241635,0.045405989379758226,-0.004387309081306792,-0.003035747046696143,-0.003035747046696143
652,6.52,-0.01615769604950356,0.011273145763593641,-0.023910556177682073,-0.003091417844219787,-0.002319098621230705,-0.002319098621230705
653,6.53,-0.0023118164643046155,0.027451570604149864,-0.07174700116351063,-0.0018949774578108066,-0.0005885148451364534,-0.0005885148451364534
654,6.54,0.01094966716811915,-0.018863013525194386,-0.02591456029796337,-0.0007974647610525389,-0.0025324421919974372,-0.0025324421919974372
655,6.55,0.0072458684863483894,-0.055333873253510565,0.04356337205980381,-0.0005869738079885124,-0.0039814634761691095,-0.0039814634761691095
656,6.56,-0.0038963255315846643,-0.03260185494604419,0.049951778525338775,-0.004295207299455582,0.0005441526915019525,0.0005441526915019525
657,6.57,-0.004110442611181815,0.012182637736033498,-0.024145504016542342,-0.004220274987959886,0.002669706179564164,0.002669706179564164
658,6.58,0.005241305146193759,0.024934142600528092,-0.07084633769532497,-0.002582456405002518,-0.0003682738772052803,-0.0003682738772052803
659,6.59,0.013287625686663068,-0.017472985969935736,-0.03136680074050048,-0.001875234746027468,-0.00247490531382522,-0.00247490531382522
660,6.6,0.008757782657161579,-0.038838337181561246,0.03759538311786251,-0.0027117718980863,-0.003094290078246414,-0.003094290078246414
661,6.61,0.008207866667929376,-0.037323686180891526,0.03907122039331602,-0.0038525464759337678,-0.0018820772999825503,-0.0018820772999825503
662,6.62,-0.006215636312321514,0.015093968388747697,-0.01752527164364118,-0.0045079078716864784,-0.0009918210512761404,-0.0009918210512761404
663,6.63,-0.008375654495427466,0.038757319225497175,-0.06137435912218252,-0.0042179214673884,-0.0031746514809255547,-0.0031746514809255547
664,6.64,0.0052348469895925915,-0.0005740706106768514,-0.02783950628496928,-0.002950412062353564,-0.002906593839885885,-0.002906593839885885
665,6.65,0.008758059542376998,-0.04542081907750456,0.05443874184540883,-0.003974368029549704,-0.001951633486136495,-0.001951633486136495
666,6.66,-0.002982546519508425,-0.029756528483805663,0.05431581192253242,-0.0049454124136090955,-0.0013521235769751918,-0.0013521235769751918
667,6.67,-0.01685880175106868,0.04099538407845917,-0.014729234184910189,-0.004560041793700203,0.00010201447836481341,0.00010201447836481341
668,6.68,-0.012327948856553179,0.046923954388297884,-0.05743247256950058,-0.003937936021453465,-0.0009423188252605275,-0.0009423188252605275
669,6.69,0.0005404679377980903,-0.00501242683596749,-0.008749650353057558,-0.0022219600041807844,-0.002212517936905052,-0.002212517936905052
670,6.7,0.011674105042426657,-0.03790659622493059,0.06365041901994542,0.0002369764734214878,-0.0001958879970307137,-0.0001958879970307137
671,6.71,0.001714188125575083,0.003731406314524696,0.05771697899718639,-0.0006062456693579734,0.0014224616877299946,0.0014224616877299946
672,6.72,-0.006715729606197296,0.03651964559842579,-0.0162038563284906,-0.0012874014369832006,0.001389127401056073,0.001389127401056073
673,6.73,-0.011802547004685351,0.034499521328861825,-0.061093324052482,-0.0008521959747248434,-0.001550426363619792,-0.001550426363619792
674,6.74,-0.003091537774829742,0.002374878701696982,-0.012918019893154293,-0.0013376268926627865,-0.0032132048020007123,-0.0032132048020007123
675,6.75,0.014975127691098506,-0.03076558422038364,0.05175972437647623,-0.0028449550138757705,-0.0018554451807454746,-0.0018554451807454746
676,6.76,0.0056615980962879,-0.0190100456618708,0.052054433388330844,-0.004719136473496532,-0.0013393308980926605,-0.0013393308980926605
677,6.77,-0.01425481084151919,0.02030933793197098,-0.019881254532210756,-0.006046319104482788,-0.0016466159237748374,-0.0016466159237748374
678,6.78,-0.01561199046361534,0.04293547932816261,-0.0623833072454644,-0.005430653136204033,-0.0024120251127621854,-0.0024120251127621854
679,6.79,0.00592026596025674,-0.005436183208944149,-0.020175672357062094,-0.0016332226066264454,-0.0017131708773999708,-0.0017131708773999708
680,6.8,0.015776059159012992,-0.03722844088185964,0.04605946815041768,-0.00023109189548463867,-0.0026839294077848326,-0.0026839294077848326
681,6.81,0.005288043571956514,-0.024572157982353092,0.03852486892939897,-0.002304682357814876,-0.003292903184318697,-0.003292903184318697
682,6.82,-0.014101868719032941,0.027123042423980205,-0.0277098580212266,-0.003457093576893361,-0.002752338496008339,-0.002752338496008339
683,6.83,-0.0014422837235547573,0.039759948903078976,-0.06256098822088077,-0.002452535594135019,-0.0021239693190373094,-0.0021239693190373094
684,6.84,0.023460728076495914,-0.010522404921159457,-0.024144090727750683,-0.0011831460156130726,-0.0021489330162351365,-0.0021489330162351365
685,6.85,0.016585403208635184,-0.03782279460688195,0.054669139868532,-0.0014690689560343125,-0.0017795033109938886,-0.0017795033109938886
686,6.86,0.0021354064412701726,-0.02425364033978539,0.05190387951394885,-0.002317212464255169,-0.0016990266739273206,-0.0016990266739273206
687,6.87,-0.017947334363144603,0.027892037683353774,-0.01888666570855776,-0.003271747309018657,-0.0004277339502869074,-0.0004277339502869074
688,6.88,-0.011399333635894574,0.03280999739570066,-0.05596657885774748,-0.0039007683063313273,-0.0004245134954219195,-0.0004245134954219195
689,6.89,0.014027822749312038,0.001749046007354425,-0.012243230567850477,-0.0035628483776960485,-0.002825715845059825,-0.002825715845059825
690,6.9,0.019496787253304247,-0.030937757107289174,0.05827475710536491,-0.004023731295701782,-0.0012991450833938036,-0.0012991450833938036
691,6.91,0.003757786556170019,-0.021119183027058404,0.0556976565532495,-0.003529217701397415,-0.00018735202938394832,-0.00018735202938394832
692,6.92,-0.011428621644722626,0.025395146733245857,-0.023294772394960687,-0.002262992305350932,-0.00020583258287816184,-0.00020583258287816184
693,6.93,-0.007494425313532285,0.04029223560354936,-0.06958089147638322,-0.002878047563415236,0.00020047913664296625,0.00020047913664296625
694,6.94,0.004102263125743435,0.006982995815058218,-0.023526639373128457,-0.002806310591648439,-0.0006051471022397963,-0.0006051471022397963
695,6.95,0.00978988449593547,-0.0451239761262727,0.03690325009164723,-0.002198173230030091,-0.002276276865231601,-0.002276276865231601
696,6.96,-0.005786198208286405,-0.028789026929605232,0.04028313169298108,-0.0025522885150755705,-0.003978140178936154,-0.003978140178936154
697,6.97,-0.020371149425915662,0.02149088158127437,-0.022644832705550864,-0.003984899732087393,-0.002955444296792269,-0.002955444296792269
698,6.98,-0.008271198702861308,0.042116632601509,-0.06959302646520348,-0.002879344851494161,-0.0008525083547853892,-0.0008525083547853892
699,6.99,0.00927861957677896,-0.012461971349953018,-0.023244226793048297,0.0005444242493558481,-0.0009260122760292519,-0.0009260122760292519
700,7.0,0.003178935518635591,-0.05448990160217274,0.05194442848534966,-7.417458114935475e-05,-0.0026059167645262147,-0.0026059167645262147
701,7.01,-0.006818724046773458,-0.024319091496922237,0.053080253815734606,-0.0028667478681949363,-0.002976109009476656,-0.002976109009476656
702,7.02,-0.007180379889388214,0.0224337676172155,-0.015940165790485735,-0.0049491325433292,-0.0020159624729736924,-0.0020159624729736924
703,7.03,-0.010158685595648856,0.039517115995801294,-0.058641854638530354,-0.005087244894501165,-0.003644157512978677,-0.003644157512978677
704,7.04,0.0019076102470282122,-0.007280430535684548,-0.02011140840512282,-0.0019689035768583945,-0.0045763767725086465,-0.0045763767725086465
705,7.05,0.007706608421987405,-0.037547658932105765,0.05666637079989088,-0.0008582151687472518,-0.002703040876457376,-0.002703040876457376
706,7.06,-0.0025425512924375287,-0.007396291914364228,0.05323092701369915,-0.00331512980579247,-0.002001619363617322,-0.002001619363617322
707,7.07,-0.012422722984708458,0.04087036429425124,-0.0109817459756913,-0.005057737523284311,-0.002060893273407052,-0.002060893273407052
708,7.08,-0.009554734107245947,0.037651312582049526,-0.057798453851653206,-0.0048519126076666886,-0.001736766241668894,-0.001736766241668894
709,7.09,0.0027207018957773003,0.002925671648329617,-0.024538766781485446,-0.004688915557433885,-0.003785782084487407,-0.003785782084487407
710,7.1,0.013157400278035485,-0.035518103140816215,0.049986367828054296,-0.004397802610934215,-0.004725302061334613,-0.004725302061334613
711,7.11,0.005103357895604703,-0.020982599909365098,0.0494962237273642,-0.004549717456782514,-0.0020914742152599846,-0.0020914742152599846
712,7.12,-0.011950112559087261,0.03222774732274726,-0.015128512388958307,-0.004280019811350791,-0.001140314628787243,-0.001140314628787243
713,7.13,-0.003384583945675003,0.03786083374965579,-0.06466692273717273,-0.0017704799723804504,-0.0015230600939583575,-0.0015230600939583575
714,7.14,0.019132928285648717,0.0015169901516340518,-0.017257597150054666,-0.0008396243056612053,-0.0031325454879959588,-0.0031325454879959588
715,7.15,0.02727130099987103,-0.036663004071070156,0.057363384603061646,-0.0018216873165277983,-0.0038249022877884257,-0.0038249022877884257
716,7.16,0.009829491051962638,-0.01581318405972123,0.05478334059943125,-0.003359053787403404,-0.002987681523450433,-0.002987681523450433
717,7.17,-0.013148858256052205,0.020612788123563448,-0.01277353259678455,-0.003310405591316259,-0.0035453614028528244,-0.0035453614028528244
718,7.18,-0.015106897591789166,0.033669450769590735,-0.05978521020720702,-0.001807604019198924,-0.0037922129993367,-0.0037922129993367
719,7.19,0.008502465299515921,-0.0017726952661690706,-0.01399018609054756,-0.0009926604120098644,-0.003110331948232973,-0.003110331948232973
720,7.2,0.014782192665359309,-0.04137271186748045,0.05660918828844284,-0.001067357512387699,-0.0004897666863741099,-0.0004897666863741099
721,7.21,-0.0001258687550319687,-0.03337081017321745,0.04656907599603053,-0.0031789763274306182,-0.0003297259904508913,-0.0003297259904508913
722,7.22,-0.012234384240107695,0.010677829180452361,-0.02018966656515972,-0.0039051572300709287,-0.0008658187764365607,-0.0008658187764365607
723,7.23,-0.011117337140078495,0.03227135130310897,-0.059501347215188356,-0.001676274785577264,-0.00098605492484646,-0.00098605492484646
724,7.24,0.0002938511947874244,-0.00269976200409071,-0.031821151989986377,-0.0007752047533143824,-0.0026330800537509537,-0.0026330800537509537
725,7.25,0.0038989128187176675,-0.03451384774877636,0.04612901512393423,-0.002309352065734631,-0.001933571195662315,-0.001933571195662315
726,7.26,0.00035837614299648015,-0.03343085773962476,0.05129828514987995,-0.0044331906518757895,-0.0019290411694213813,-0.0019290411694213813
727,7.27,-0.009340210242506971,0.019017629703737163,-0.02814006784368421,-0.0046582417504544135,-0.002636651281055379,-0.002636651281055379
728,7.28,0.0011907850485183347,0.03282827456871687,-0.0776379098523129,-0.0031755590642737514,-0.0027792735069808033,-0.0027792735069808033
729,7.29,0.017177889918256098,-0.007642782451692913,-0.036462956843698435,-0.001834359276731512,-0.004301506109916094,-0.004301506109916094
730,7.3,0.005630493179244149,-0.04199685686659355,0.05382866047159116,-0.0019227848288443238,-0.003157467161531792,-0.003157467161531792
731,7.31,-0.009391923077314391,-0.021981784510101708,0.05542756379948308,-0.00304217680399567,-0.0018772983972693655,-0.0018772983972693655
732,7.32,-0.013244628017021191,0.03715077422033758,-0.01741594009037835,-0.0035546723464194635,-0.0030282470387310825,-0.0030282470387310825
733,7.33,-0.009712703353237827,0.03648932030590671,-0.06152678358384385,-0.0026660950355255984,-0.0028591907889039155,-0.0028591907889039155
734,7.34,0.005628181907300472,-0.00743280095571194,-0.017408869984733615,-0.0010102002528423514,-0.004188437026866177,-0.004188437026866177
735,7.35,0.016523159170241816,-0.04923858027983166,0.058166782401833844,-0.001220681414700532,-0.0043551647885548715,-0.0043551647885548715
736,7.36,-0.0014184655546828867,-0.02269393485824872,0.05662985267933887,-0.003062166160159161,-0.0025512225125918038,-0.0025512225125918038
737,7.37,-0.013461407094406158,0.040672643958126434,-0.01040449251710441,-0.0032507047378705018,-0.0031059947797117075,-0.0031059947797117075
738,7.38,-0.0035723630244095745,0.047214494039485105,-0.06524196960388601,-0.0022052705653967594,-0.0023870686436908988,-0.0023870686436908988
739,7.39,-0.0012825607003902218,-0.001153682386245511,-0.02937654563163706,-0.000420098556157342,-0.002261111342795741,-0.002261111342795741
740,7.4,0.004338378297482336,-0.036228756486690515,0.04757257802857154,-0.00025657539530402605,-0.002834065022494804,-0.002834065022494804
741,7.41,0.0027718994698891298,-0.010897549963341618,0.05038904968577573,-0.002655700106161093,-0.002941935900469071,-0.002941935900469071
742,7.42,-0.014052402959764777,0.03332437017200533,-0.02050197267451358,-0.004886955142379934,-0.003146717506343081,-0.003146717506343081
743,7.43,-0.007482497219690602,0.037502160828440816,-0.05346924031097573,-0.0026974426943892197,-0.002255233586292812,-0.002255233586292812
744,7.44,0.007992043301902174,-0.00244828134356365,-0.01668956244314724,-8.144158652488446e-05,-0.0015332091719900574,-0.0015332091719900574
745,7.45,0.012430077653397622,-0.03302153881711288,0.04598153519419586,-0.002007390699385964,-0.0016907559299818445,-0.0016907559299818445
746,7.46,0.010243620418046436,-0.03274381354171228,0.052634623762345886,-0.0031028806496812733,-0.002638961854649003,-0.002638961854649003
747,7.47,-0.008121718859582072,0.011200827409421587,-0.013951556695250968,-0.0040813611080028995,-0.0023988377902104865,-0.0023988377902104865
748,7.48,-0.01302920382335512,0.03305281603853795,-0.060082746557660896,-0.0033712531545513178,-0.0022360737120333566,-0.0022360737120333566
749,7.49,0.004647424602116863,0.007280428889883591,-0.030335590140531766,-0.0002353058728364003,-0.0021402593618028197,-0.0021402593618028197
750,7.5,0.018276378615851227,-0.022179621493482383,0.051549769451500464,0.0012669751448387136,-0.0003351239095541268,-0.0003351239095541268
751,7.51,0.005919816763964023,-0.024596813616332733,0.05013727736718397,-0.0010701216944683878,-0.0005705812680236496,-0.0005705812680236496
752,7.52,-0.01645741080241258,0.02625557279428863,-0.01661147106095588,-0.005301801386823515,-0.0009253744820432805,-0.0009253744820432805
753,7.53,-0.004413972322856954,0.0390025363702958,-0.06576605372106645,-0.004899082529812304,-0.0014437459004985234,-0.0014437459004985234
754,7.54,0.007697912978909498,0.0051082085415428,-0.026778265925547398,-0.0019962157108667283,-0.0019981860574128352,-0.0019981860574128352
755,7.55,0.014654943886743798,-0.033190571208341735,0.05759747086299507,-0.002495496945843684,-0.0013966795302133214,-0.0013966795302133214
756,7.56,0.006588417740247025,-0.024483828370633755,0.04860322090315722,-0.002436004415182586,-0.0017311191198433275,-0.0017311191198433275
757,7.57,-0.009996172745818975,0.022274027763211184,-0.016656318164742227,-0.0012482757591148544,-0.0011782331648092198,-0.0011782331648092198
758,7.58,-0.007104241475424506,0.039794658247376026,-0.0574343681665323,-0.003517023897175929,-0.002609775007993198,-0.002609775007993198
759,7.59,0.0007851496027997127,0.014134553076322593,-0.014399931865655947,-0.003270735213421698,-0.0044248456916973645,-0.0044248456916973645
760,7.6,0.01640883109072563,-0.03318926454838893,0.05535827241396092,-0.001655105568862866,-0.0022412635396558142,-0.0022412635396558142
761,7.61,0.003038836857019982,-0.023349054380108904,0.05251407994989798,-0.00378713864283116,-0.0006365196513059957,-0.0006365196513059957
762,7.62,-0.013236113793285736,0.02560473669567102,-0.01781100204589992,-0.004279528782350085,-0.0009124050866809547,-0.0009124050866809547
763,7.63,-0.00785132459484542,0.0407436932242565,-0.06020934737789041,-0.002715479788160093,-0.0005199970845675295,-0.0005199970845675295
764,7.64,0.004164709013841946,-0.007131286891415831,-0.022084336460770095,-0.0018177998494030706,-0.0019449846394478864,-0.0019449846394478864
765,7.65,0.00343429067758254,-0.044953787510733076,0.05149730543366781,-0.002048031507907316,-0.0013371468651260932,-0.0013371468651260932
766,7.66,-0.011968833185730015,-0.026710200731012726,0.05433193401931116,-0.0028400020444791715,0.0003152881407934367,0.0003152881407934367
767,7.67,-0.015557157941425214,0.02171438555612435,-0.02944048302977348,-0.00238960875542172,-0.001134549485290832,-0.001134549485290832
768,7.68,-0.004544360510344055,0.032991028943852224,-0.06734693165764746,-0.001704785899932472,-0.0011134664689502114,-0.0011134664689502114
769,7.69,0.009106879589061803,-0.01889877256095957,-0.023641422061269974,-0.0015390363160662846,-0.0011072491432202456,-0.0011072491432202456
770,7.7,0.006494939859536605,-0.05151093307311672,0.05408661910787432,-0.0010804241714560054,-0.0011419278698429312,-0.0011419278698429312
771,7.71,0.0038614096050564933,-0.029330976863408,0.052871032180563056,-0.0026216435379494644,-0.0005687456440297051,-0.0005687456440297051
772,7.72,-0.00608559604520852,0.02094760288612438,-0.02886492974522248,-0.003968746721585174,-0.0010458986230960686,-0.0010458986230960686
773,7.73,-0.007031752814192122,0.021888981474674832,-0.07336931309843686,-0.00223136817726902,-0.002135076660098048,-0.002135076660098048
774,7.74,0.0047887114955074955,-0.012297207284713646,-0.02176937589186545,-0.001293417255784916,-0.0020969392883417827,-0.0020969392883417827
775,7.75,0.007992660424652824,-0.034514636138090624,0.05512359382909028,-0.0023413353816951533,-0.0028390836866134398,-0.0028390836866134398
776,7.76,-0.001516245472018912,-0.007639131266683684,0.04781077151957125,-0.003861831967763125,-0.003619697965699764,-0.003619697965699764
777,7.77,-0.00960070401808174,0.030667481132268363,-0.019897087022309842,-0.004286853667797332,-0.0001920929557952672,-0.0001920929557952672
778,7.78,-0.0023373192139561523,0.02156459321550478,-0.06927258863555266,-0.0019478500897814914,0.0008810884834616212,0.0008810884834616212
779,7.79,0.011976114473962279,-0.005600002526798851,-0.019271073419928602,-0.001583204213550335,-0.0029435148937945127,-0.0029435148937945127
780,7.8,0.02117676194098301,-0.03503328033999539,0.058682612633247054,-0.0016329785691708224,-0.003913305018971049,-0.003913305018971049
781,7.81,-0.0017755877715595787,-0.008613181956954256,0.04673599280130498,-0.0025668098690571663,-0.0018006943739761008,-0.0018006943739761008
782,7.82,-0.016268084123401992,0.03606090054003184,-0.02193840446546879,-0.004552271304817457,-0.0010530392717441332,-0.0010530392717441332
783,7.83,-0.007287856283011195,0.04433375092679667,-0.058735590547349344,-0.0030327015281736694,-0.0023638516043861762,-0.0023638516043861762
784,7.84,0.0052470918836067925,0.004585267792884278,-0.0097284170476927,-0.002591937475262787,-0.0043352501433752706,-0.0043352501433752706
785,7.85,0.010449408993778917,-0.03147292152013591,0.06577191967201727,-0.002324946372431691,-0.0052015095327108,-0.0052015095327108
786,7.86,0.002188841549177024,-0.017611890312238962,0.07059077458268867,-0.00281983119954251,-0.00439000451488991,-0.00439000451488991
787,7.87,-0.0035796427460953913,0.02089558787877152,-0.011088623314461366,-0.003798904842349362,-0.002264654167985397,-0.002264654167985397
788,7.88,-0.00453376196655937,0.0397093132511392,-0.06634160356469324,-0.0026212763892937705,-0.0026721202724320136,-0.0026721202724320136
789,7.89,0.0027390936556952934,0.003739242779702511,-0.03043075272015109,-0.00106777531936869,-0.0029754522009985264,-0.0029754522009985264
790,7.9,0.0061676088245030715,-0.036291997830373436,0.04730174907769535,-0.0014471900735794456,-0.0012209779176821569,-0.0012209779176821569
791,7.91,0.0010275752441156528,-0.026538257296147984,0.05384939927738572,-0.003323805110046583,-0.0008045196479472978,-0.0008045196479472978
792,7.92,-0.01105148011515498,0.022511027306877297,-0.026785957809810437,-0.00416612491415492,-0.0014816603597113097,-0.0014816603597113097
793,7.93,-0.011229890283464836,0.030999909115257584,-0.07392339682954154,-0.0017410904361117845,-0.0032370460700814115,-0.0032370460700814115
794,7.94,0.004259686722269246,-0.0065954481971662315,-0.028716672974236808,0.0003609827255257142,-0.003108859129602389,-0.003108859129602389
795,7.95,0.009655921482293592,-0.046497369973807934,0.05195049452242399,-0.0008978607237648627,-0.0016541931308743198,-0.0016541931308743198
796,7.96,-0.001678804812889882,-0.025984898904829832,0.05120518619255621,-0.0035950452846403727,-0.0013928252345749516,-0.0013928252345749516
797,7.97,-0.014053312508385244,0.03427836931828543,-0.02555870226658208,-0.004980842939809163,5.303802559926602e-05,5.303802559926602e-05
798,7.98,-0.0053233726053597925,0.040508675325477576,-0.07561435032021613,-0.0026717721279568216,-0.00016454404605573692,-0.00016454404605573692
799,7.99,0.002894271335859306,0.0023901129167797075,-0.02234790548233074,-0.0011874203449055713,-0.002226764082915534,-0.002226764082915534
800,8.0,0.008024166882758667,-0.03950225073682514,0.057432971471045056,-0.0010511371604233863,-0.0018800120972306711,-0.0018800120972306711
801,8.01,0.0047014170407638995,-0.01875529463099767,0.05610223570178387,-0.001546499553769024,-0.0025046318941058824,-0.0025046318941058824
802,8.02,-0.006908392802240201,0.028965727158667173,-0.013350002767294013,-0.003387665031139497,-0.0030488699211400727,-0.0030488699211400727
803,8.03,-0.0007571831282544047,0.03599610551056562,-0.06109501283149535,-0.0022044628321692293,-0.002454052918716519,-0.002454052918716519
804,8.04,0.009421094304522485,0.003031743410260069,-0.014945954196003261,-0.00019298835465987607,-0.003038106773775648,-0.003038106773775648
805,8.05,0.002572750823680162,-0.03175104682807563,0.056257177937283756,-0.0016474172220835403,-0.0024407121278515703,-0.0024407121278515703
806,8.06,-0.003411828409360564,-0.017022864516284715,0.050962420181899754,-0.003494629946248428,-0.003002316523488055,-0.003002316523488055
807,8.07,-0.005812305548827008,0.03151504895205602,-0.028502315443057407,-0.003380785815869419,-0.002493754909090642,-0.002493754909090642
808,8.08,-0.010425678645316152,0.04631466771079683,-0.0567752049646007,-0.0027557739160505358,-0.0008543843854375735,-0.0008543843854375735
809,8.09,0.009927592355151265,-0.004166108999806427,-0.005556884760023861,-0.0024521997060785714,-0.0031869383635627297,-0.0031869383635627297
810,8.1,0.016808200131490682,-0.042654758442717246,0.05671431752417425,-0.0013666992160366413,-0.0035988404835263256,-0.0035988404835263256
811,8.11,0.0024662171040382088,-0.03273671915951944,0.058335449165464896,-0.0026051098625991423,3.795553912952195e-06,3.795553912952195e-06
812,8.12,-0.008071378118731966,0.01754774340315371,-0.022603274889476863,-0.00485436905333696,0.0008439400358133639,0.0008439400358133639
813,8.13,-0.008118716632610896,0.03588410205156344,-0.06083462731851216,-0.004474380395407635,-0.0007585279487433253,-0.0007585279487433253
814,8.14,0.001747585564220543,-0.010321354173276938,-0.020214345398116555,-0.002645137544875269,-0.0025433227566916236,-0.0025433227566916236
815,8.15,0.00699166420181605,-0.04767190846138508,0.04920956058073078,-0.0011845261969766173,-0.0029540613699250585,-0.0029540613699250585
816,8.16,0.008204824451728996,-0.02561755743590355,0.042079657667199025,-0.0022623511741925555,-0.0013348327544006452,-0.0013348327544006452
817,8.17,-0.010546920375783224,0.026600627106638762,-0.027870102602643568,-0.0032596073975219076,-0.00010011746169799114,-0.00010011746169799114
818,8.18,-0.0060388439614722286,0.03179395034750043,-0.06589468740737348,-0.0026940317278065303,-0.00245677407322655,-0.00245677407322655
819,8.19,0.015772308013115403,-0.0026240196796882553,-0.028825419881625517,-0.0007853424075425822,-0.003966557857054324,-0.003966557857054324
820,8.2,0.01586196298344375,-0.03625172853458274,0.052843059898914316,1.2694755865070022e-05,-0.0019598987156491878,-0.0019598987156491878
821,8.21,0.0030903068035878457,-0.02181085309682777,0.05480127401101098,-0.001399513637214246,-0.0025463615379459755,-0.0025463615379459755
822,8.22,-0.008419028559901271,0.013735957903133578,-0.018522028145023565,-0.003545005258206145,-0.0019589596202190737,-0.0019589596202190737
823,8.23,-0.008624715044948078,0.027029417626558864,-0.059431750375462,-0.0035192736206971905,-0.00125730742072568,-0.00125730742072568
824,8.24,0.003885513121603963,0.0004642547200530457,-0.011909473927689913,-0.0035562107793992437,-0.0017717535552140493,-0.0017717535552140493
825,8.25,0.00966089244821447,-0.0350163640148322,0.04968948467978264,-0.0044303755290150655,-0.001564289172808093,-0.001564289172808093
826,8.26,-0.0065746626685982395,-0.016187345984918326,0.04386833135524207,-0.004267616908150687,-0.0005990068159181592,-0.0005990068159181592
827,8.27,-0.01843786458849479,0.031191150063670983,-0.02985955537059659,-0.0035288002021087797,0.0003304943015260185,0.0003304943015260185
828,8.28,-0.016673741201711615,0.04721022991746147,-0.06701322662488257,-0.001595215636535011,-0.0006197636026548483,-0.0006197636026548483
829,8.29,0.0026532800181165387,-0.002441679036021254,-0.01931090104447217,-0.0007181639952871863,-0.0014006108160844704,-0.0014006108160844704
830,8.3,0.003119487352276076,-0.04042088044114713,0.04689013743303509,-0.00040284356833164456,-0.0017649093424145351,-0.0017649093424145351
831,8.31,-0.004252905445435462,-0.02380182057523522,0.04767530048279711,-0.003438899589981436,-0.002018936053241721,-0.002018936053241721
832,8.32,-0.010349225963148837,0.0289398945158661,-0.025064937244442795,-0.004747727716742542,-0.0013539340131776974,-0.0013539340131776974
833,8.33,-0.013986953515984281,0.04768969697303167,-0.06417078069390472,-0.002202522346355181,-0.0007719037123063207,-0.0007719037123063207
834,8.34,0.0018854580953588133,-0.000143708098562869,-0.01961614009406961,-0.001115365653714536,-0.0025318060413484548,-0.0025318060413484548
835,8.35,0.007206273260448962,-0.04862557765446931,0.057423186617163946,-0.002073021850337259,-0.00186857165115802,-0.00186857165115802
836,8.36,0.0012002437218811013,-0.03260785278905036,0.05124028440637539,-0.0043060650265533025,0.00032908792724693536,0.00032908792724693536
837,8.37,-0.005570101648951834,0.037509486651211024,-0.02027771545794369,-0.004524204305052815,-0.00010450600849617472,-0.00010450600849617472
838,8.38,0.0028528038760350814,0.04999983764406818,-0.06368818890818143,-0.003110045629001455,-0.0014661891578178039,-0.0014661891578178039
839,8.39,0.014407582608018795,-0.0019117559395247612,-0.018623209940825204,-0.0015837213906691571,-0.002985346689582525,-0.002985346689582525
840,8.4,0.00958871569624457,-0.04140945034093912,0.06396043144827716,-0.0022608768372437845,-0.0021151381274041947,-0.0021151381274041947
841,8.41,-0.003998486380097007,-0.013196447302117857,0.04983014453779676,-0.0032489462383992586,-0.00015304037520554243,-0.00015304037520554243
842,8.42,-0.007723711852468723,0.03298635548482805,-0.018538518848149256,-0.0037337805002606345,-0.0019376354338311726,-0.0019376354338311726
843,8.43,0.0013988347157564735,0.03229366768476046,-0.055807348661576064,-0.0019382508076029067,-0.004324693691285388,-0.004324693691285388
844,8.44,0.005893693352624533,-0.005609582720247301,-0.015725807104123263,0.0002163846746087784,-0.003389207787469025,-0.003389207787469025
845,8.45,0.014470871899156697,-0.04490952111298959,0.05681524420246409,-0.0015202564315847462,-0.002583294506123573,-0.002583294506123573
846,8.46,0.007487813245888984,-0.01909341432654501,0.05531850698097959,-0.002830874467760565,-0.001481600429002468,-0.001481600429002468
847,8.47,-0.008852634754220375,0.025330659014619526,-0.020095736221878352,-0.0039648313882059355,-0.00038265551257370237,-0.00038265551257370237
848,8.48,-0.00618452709688752,0.030626149000170598,-0.06388959834297844,-0.003295354126251821,-0.0006887376601657762,-0.0006887376601657762
849,8.49,0.018726206811975184,-0.012533280905645731,-0.017580403635402548,-0.001633756860739749,-0.0026808475411560896,-0.0026808475411560896
850,8.5,0.019109059927703086,-0.03541447465326671,0.052191837877780645,-0.0023001809107791988,-0.002821049594399925,-0.002821049594399925
851,8.51,0.00017510479299457857,-0.0058805641601803625,0.052011476449540794,-0.002186366843658934,-0.0015176353645263065,-0.0015176353645263065
852,8.52,-0.004266660479225547,0.027962312197159625,-0.022785993519426197,-0.002943968850145625,-0.0015131916464346902,-0.0015131916464346902
853,8.53,-0.0053913305461566995,0.027574120102897556,-0.056118410003406956,-0.004114681265412812,-0.0006743624918403961,-0.0006743624918403961
854,8.54,0.010084778539537858,-0.011596188105685797,-0.011872307889911187,-0.004133594765245061,-0.0008379715014486423,-0.0008379715014486423
855,8.55,0.018548762600147716,-0.04043902832920457,0.052366644576356675,-0.0036753877594317115,-0.0019296021009572262,-0.0019296021009572262
856,8.56,-0.002041844794216748,-0.025555423909108414,0.0482585991678854,-0.003613644507449378,-0.0008026023526943728,-0.0008026023526943728
857,8.57,-0.024750809651700324,0.027900681101095084,-0.027719529895656382,-0.004728125867191301,-0.0014821045793981765,-0.0014821045793981765
