,ts,ax,ay,az,wx,wy,wz
0,0.0,-0.015175999999999999,-0.0071509999999999985,-0.081876,0.020447,0.04158,0.00502
1,0.01,0.004085000000000003,-0.025608999999999996,-0.086662,0.023636,0.044785000000000005,0.003952000000000001
2,0.02,0.044907,-0.031014,-0.138515,0.023636,0.044785000000000005,0.001816
3,0.03,0.04848,-0.056667999999999996,-0.130632,0.022583000000000002,0.044785000000000005,0.001816
4,0.04,0.09249600000000001,-0.017449,-0.105858,0.020447,0.040512,-0.00030499999999999993
5,0.05,0.076798,-0.051211,-0.064032,0.015121,0.040512,-0.001373
6,0.06,0.051885,-0.024536000000000002,-0.067526,0.012985,0.034119,-0.00351
7,0.07,0.033374,-0.05196799999999999,-0.033392000000000005,0.004471,0.029861000000000002,-0.00351
8,0.08,-0.014550999999999996,-0.053046,-0.005671,-0.0008539999999999997,0.029861000000000002,-0.001373
9,0.09,0.002221,-0.054321,0.013819,-0.008316,0.026672,-0.0045780000000000005
10,0.1,0.002739,-0.050086,0.079808,-0.014709,0.022415,-0.00351
11,0.11,0.004991,-0.015295000000000003,0.08279700000000001,-0.015778,0.017075,-0.00351
12,0.12,0.028231,-0.036246,0.056576999999999995,-0.01152,0.012816999999999999,-0.00351
13,0.13,0.004631000000000001,-0.017178,-0.00036600000000000174,-0.01152,0.010695999999999999,-0.00351
14,0.14,0.006672,0.010968,0.02475,-0.008316,0.010695999999999999,-0.002441
15,0.15,0.021628,0.002581,-0.047935000000000005,-0.008316,0.010695999999999999,-0.002441
16,0.16,0.014672999999999999,0.033389999999999996,-0.004701999999999998,-0.007248,0.010695999999999999,-0.002441
17,0.17,0.018549,0.03767,-0.013741999999999999,-0.010452,0.011748999999999999,-0.006698999999999999
18,0.18,0.034609,0.021856,-0.044544,-0.010452,0.011748999999999999,-0.008834999999999999
19,0.19,-0.016215,0.002338,-0.043494,-0.008316,0.010695999999999999,-0.012024
20,0.2,0.0034920000000000003,0.032122000000000005,-0.035852999999999996,-0.012573,0.010695999999999999,-0.010971
21,0.21,-0.00842,-0.034207,-0.020009,-0.012573,0.009628,-0.012024
22,0.22,0.0027589999999999997,-0.03059,-0.078855,-0.012573,0.007492,-0.010971
23,0.23,-0.004605999999999999,-0.028055,-0.012436,-0.017899,0.007492,-0.009903
24,0.24,-0.011113,-0.022572,-0.028646999999999995,-0.020035,0.006423999999999999,-0.0077670000000000005
25,0.25,-0.021665000000000004,-0.021444,0.008239,-0.023224,0.004303,-0.00563
26,0.26,0.002854999999999998,0.009914,0.010616999999999998,-0.024291999999999998,0.002167,-0.0045780000000000005
27,0.27,0.014436000000000001,0.004765,0.00012400000000000082,-0.026427999999999997,0.003235,-0.00351
28,0.28,0.041111,0.002404999999999997,0.015513999999999998,-0.024291999999999998,0.006423999999999999,-0.001373
29,0.29,0.009727,0.005469,0.045994,-0.02536,0.004303,0.0007480000000000001
30,0.3,-0.004678,0.019992,0.046644,-0.023224,0.006423999999999999,0.0007480000000000001
31,0.31,0.051457,0.014637,0.014383000000000002,-0.022171,0.005371,0.001816
32,0.32,0.034206,0.015096000000000004,-0.029965,-0.018966999999999998,0.004303,0.001816
33,0.33,0.051332,0.005458000000000001,-0.030208999999999996,-0.017899,0.002167,-0.0003050000000000001
34,0.34,0.053385,-0.00213,-0.042045,-0.015778,0.002167,0.003952000000000001
35,0.35,0.016536999999999996,-0.012662,-0.023943,-0.015778,0.002167,0.002884
36,0.36,0.029619000000000006,-0.026031,-0.058241999999999995,-0.017899,-0.005295,0.003952000000000001
37,0.37,0.007242000000000002,-0.029349,-0.056183000000000004,-0.024291999999999998,-0.003159,0.00502
38,0.38,-0.002851,-0.022529,0.0046700000000000005,-0.028564,-0.007416000000000002,0.00502
39,0.39,0.007896,-0.05260499999999999,-3.300000000000004e-05,-0.029617,-0.005295,0.0060880000000000005
40,0.4,0.009473,0.044368000000000005,-0.020638999999999998,-0.029617,-0.005295,0.00502
41,0.41,0.012191,-0.002591,-0.011771,-0.027496,-0.0063479999999999995,0.007141
42,0.42,0.028908999999999997,0.03366,-0.032562,-0.026427999999999997,-0.0063479999999999995,0.008209000000000001
43,0.43,0.057998,0.024361,-0.034230000000000003,-0.026427999999999997,-0.009552,0.007141
44,0.44,0.041606,0.01649,-0.064912,-0.024291999999999998,-0.013809,0.007141
45,0.45,0.049635000000000006,0.005394,-0.08178300000000001,-0.018966999999999998,-0.017013999999999998,0.00502
46,0.46,0.056867999999999995,0.003114,-0.069017,-0.020035,-0.020203,0.0060880000000000005
47,0.47,0.047517000000000004,-0.028182,-0.057326999999999996,-0.017899,-0.021271,0.001816
48,0.48,0.05304299999999999,-0.001399000000000001,-0.033283999999999994,-0.016846,-0.025528,0.007141
49,0.49,-0.0013819999999999946,-0.034783,-0.029058999999999998,-0.017899,-0.02446,0.0060880000000000005
50,0.5,0.025800000000000003,-0.019348,0.00027800000000000047,-0.024291999999999998,-0.026595999999999998,0.003952000000000001
51,0.51,-0.0037519999999999984,-0.009474,0.00013900000000000023,-0.027496,-0.023392,0.00502
52,0.52,-0.033639999999999996,-0.00903,0.015453,-0.030685000000000004,-0.02446,0.002884
53,0.53,-0.006204,0.023313,0.062563,-0.029617,-0.020203,-0.00030499999999999993
54,0.54,0.010740999999999999,0.044445,0.060364999999999995,-0.029617,-0.018066,-0.00030499999999999993
55,0.55,0.002268,0.066829,0.073604,-0.02536,-0.018066,-0.002441
56,0.56,-0.0034180000000000013,0.06109,0.071086,-0.022171,-0.019135,-0.00351
57,0.57,0.0009070000000000016,0.031898,0.084484,-0.017899,-0.019135,-0.001373
58,0.58,-0.014565000000000003,0.081514,0.054826,-0.010452,-0.020203,-0.00351
59,0.59,0.008476000000000001,0.067285,0.073672,-0.00618,-0.021271,-0.00351
60,0.6,-0.025222,0.024823999999999995,0.016059,-0.001923,-0.018066,-0.001373
61,0.61,-0.042723000000000004,0.012752,0.018552000000000003,-0.0008539999999999999,-0.017013999999999998,-0.001373
62,0.62,0.008061000000000002,-0.04583799999999999,-0.064309,-0.00618,-0.013809,0.0028839999999999994
63,0.63,-0.025987000000000003,-0.030589000000000005,-0.035595999999999996,-0.013641,-0.014877000000000001,0.0007480000000000001
64,0.64,-0.014658000000000001,-0.055904999999999996,-0.060489,-0.023224,-0.015944999999999997,0.0007480000000000001
65,0.65,-0.025205,-0.03966,0.003001,-0.033889999999999997,-0.011687999999999999,-0.0035100000000000005
66,0.66,-0.014565000000000003,-0.028097000000000004,0.0517,-0.039215,-0.010620000000000001,-0.001373
67,0.67,-0.061238,-0.015566,0.113828,-0.045609,-0.0031590000000000003,-0.006698999999999999
68,0.68,-0.050802999999999994,0.003585000000000005,0.112829,-0.046661,-0.0010220000000000001,-0.001373
69,0.69,-0.033727,0.040777000000000015,0.113096,-0.045609,0.001099,-0.001373
70,0.7,-0.007616999999999999,0.053429,0.110856,-0.039215,0.004303,0.0007480000000000001
71,0.71,0.032080000000000004,0.060334000000000006,0.155566,-0.030685000000000004,0.011748999999999999,0.0007480000000000001
72,0.72,0.071274,0.06386499999999999,0.16047899999999998,-0.015778,0.019211000000000002,-0.00030499999999999993
73,0.73,0.048558,0.042792000000000004,0.080934,-0.002991000000000001,0.025604000000000002,-0.00030499999999999993
74,0.74,0.011896000000000006,-0.016986000000000005,0.0021709999999999998,0.003403,0.022415,-0.0003050000000000001
75,0.75,0.010699,-0.030763,-0.018675999999999998,0.004471,0.017075,0.001816
76,0.76,0.004173,-0.027407,-0.088876,0.0023350000000000003,0.009628,0.0060880000000000005
77,0.77,-0.001248,-0.051872,-0.073531,0.001266,0.003235,0.007141
78,0.78,0.011714,0.014066999999999996,-0.10245,-0.0008539999999999999,-0.004227000000000001,0.007141
79,0.79,0.015434,-0.02156,-0.08286900000000001,-0.0008539999999999999,-0.0063479999999999995,0.008209000000000001
80,0.8,0.003598000000000001,-0.029587,-0.026777999999999996,-0.002991,-0.007416,0.007141
81,0.81,0.020484,0.005213000000000001,-0.010179,-0.0051270000000000005,-0.003159,0.008209000000000001
82,0.82,0.013078999999999992,0.004520000000000001,0.025002000000000003,-0.004059,-0.0010220000000000001,0.007141
83,0.83,0.047363,0.004542,0.073357,-0.004059,0.006424000000000001,0.00502
84,0.84,0.032261,0.02578,0.05776,-0.001923,0.010695999999999999,0.002884
85,0.85,0.018047,0.070381,0.093081,-0.0008540000000000003,0.016022,-0.00351
86,0.86,0.011720999999999999,0.018192,0.10283199999999999,0.0012659999999999998,0.022415,-0.00351
87,0.87,-0.011752,0.056149,0.06471299999999999,0.0023350000000000003,0.026672,-0.0045780000000000005
88,0.88,-0.014978,0.025081,0.096303,0.004471,0.029861000000000002,-0.00563
89,0.89,-0.022389,0.038825,0.118797,0.0012660000000000002,0.028793,-0.00351
90,0.9,-0.04388,0.02387,0.090039,0.001266,0.028793,-0.00351
91,0.91,-0.074306,0.032264999999999995,0.06901399999999999,0.001266,0.026672,-0.00030499999999999993
92,0.92,-0.064045,0.021578,0.11186700000000001,0.0023350000000000003,0.025604000000000002,0.0007480000000000001
93,0.93,-0.053972000000000006,0.035979000000000004,0.069649,0.007659999999999999,0.023468,0.001816
94,0.94,-0.027567,0.034553,0.076012,0.012985,0.022415,0.002884
95,0.95,-0.030846,-0.035389,0.019163999999999997,0.017242,0.024536000000000002,0.001816
96,0.96,-0.011362,-0.056885000000000005,-0.063364,0.020447,0.031998,0.003952000000000001
97,0.97,0.014533,-0.09101000000000001,-0.075286,0.019379,0.038391,0.001816
98,0.98,0.039962,-0.077416,-0.119104,0.022583000000000002,0.039458999999999994,0.001816
99,0.99,0.020541000000000004,-0.06866699999999999,-0.152121,0.012985,0.037323,-0.0013729999999999994
100,1.0,0.02019,-0.05633,-0.122063,0.004471,0.037323,-0.00030499999999999993
101,1.01,0.01743,-0.03673,-0.140024,0.0023350000000000003,0.036255,-0.00351
102,1.02,-0.014386000000000001,-0.025044999999999998,-0.09063600000000001,-0.001923,0.035187,-0.00563
103,1.03,-0.017641999999999998,0.022156,-0.046272,-0.002991,0.034119,-0.0045780000000000005
104,1.04,-0.006474,0.034428,-0.015241,-0.002991,0.033066000000000005,-0.00563
105,1.05,-0.0037259999999999997,0.014997,0.014869999999999996,-0.001923,0.033066000000000005,-0.00563
106,1.06,0.012058,0.025368,0.050297,0.0023349999999999994,0.037323,-0.006698999999999999
107,1.07,-0.0018590000000000004,0.023171999999999998,0.069548,0.007659999999999999,0.038391,-0.006698999999999999
108,1.08,0.033408999999999994,-0.004001000000000001,0.071128,0.007659999999999999,0.040512,-0.00563
109,1.09,0.020128,-0.025321,0.024019,0.008728,0.044785000000000005,-0.00563
110,1.1,-0.020332999999999997,-0.007827000000000002,0.033951,0.008728,0.046906,-0.0045780000000000005
111,1.11,0.009551,-0.038278,0.018136000000000003,0.007659999999999999,0.044785000000000005,-0.00351
112,1.12,0.026102999999999998,-0.070326,0.018043,0.006592,0.039458999999999994,-0.0003050000000000001
113,1.13,0.008607,-0.045794999999999995,0.019213,0.004471,0.039458999999999994,-0.000305
114,1.14,-0.007903,-0.037861,0.013938,-0.0008539999999999999,0.038391,0.0007480000000000001
115,1.15,0.017317,-0.010733,0.030686,0.00019799999999999942,0.037323,0.001816
116,1.16,0.014391,0.027229000000000003,0.05903200000000001,-0.001923,0.035187,0.0007480000000000001
117,1.17,0.054553,-0.014769,0.078475,0.0023350000000000003,0.030930000000000003,0.0007480000000000001
118,1.18,0.026225,0.032785,0.074058,0.004471,0.030930000000000003,-0.00030499999999999993
119,1.19,0.045491000000000004,0.021521000000000002,0.071087,0.004471,0.029861000000000002,0.0007480000000000001
120,1.2,0.036186,0.005892999999999999,0.007564000000000001,0.007659999999999999,0.031998,-0.00030499999999999993
121,1.21,0.004747,0.0005590000000000005,-0.00019800000000000023,0.006592,0.031998,-0.0003050000000000001
122,1.22,0.033559,0.019285,-0.001589,0.003403,0.029861000000000002,-0.001373
123,1.23,0.005698,-0.002701999999999996,-0.020822999999999998,0.006592,0.027739999999999997,-0.0003050000000000001
124,1.24,0.008278,-0.016755000000000003,0.015688999999999998,0.006592,0.027739999999999997,-0.001373
125,1.25,0.024240000000000005,-0.033647,-0.010995999999999999,0.006592,0.028793,-0.001373
126,1.26,0.038561,-0.040866,-0.042628,0.010864,0.028793,-0.002441
127,1.27,0.027195,-0.056813999999999996,-0.0366,0.005539,0.022415,-0.002441
128,1.28,0.043099,-0.006251,-0.038812,0.004471,0.019211000000000002,-0.0003050000000000001
129,1.29,0.032326,-0.016967,-0.032167,0.00019799999999999983,0.013885,-0.00030499999999999993
130,1.3,0.047916,0.005056000000000001,0.019784000000000003,-0.0008539999999999999,0.011748999999999999,-0.000305
131,1.31,0.019688999999999998,0.029582999999999998,0.019728,-0.001923,0.007492,-0.0003049999999999997
132,1.32,0.011141000000000002,0.028678,0.06905599999999999,0.0012659999999999993,0.0032350000000000005,-0.001373
133,1.33,0.007941999999999998,0.035205,0.043825,0.004471,0.007492,-0.001373
134,1.34,0.0038619999999999995,0.029232,0.025666,0.003403,0.007492,-0.00351
135,1.35,0.031564,0.043862,0.013379,0.005539,0.006423999999999999,-0.00351
136,1.36,0.00027500000000000007,-0.007074999999999999,-0.057483000000000006,0.005539,0.002167,-0.002441
137,1.37,-0.008557000000000002,0.021417,-0.018955,0.006592,-0.005295,-0.002441
138,1.38,-0.014759,-0.023937000000000003,-0.037436000000000004,0.008728,-0.009552,-0.00351
139,1.39,0.034919999999999986,-0.012625000000000004,-0.007492,0.010864,-0.012740999999999999,-0.0045780000000000005
140,1.4,0.035056,-0.019684,0.008431000000000001,0.009796,-0.014877000000000001,-0.00351
141,1.41,0.033563,-0.040036,0.005342,0.009796,-0.017013999999999998,-0.00351
142,1.42,0.024881,-0.068188,-0.039684,0.007659999999999999,-0.020203,-0.002441
143,1.43,-0.020162,-0.026562,0.01817,-0.00618,-0.023392,-0.00351
144,1.44,-0.016127000000000002,0.02705,0.06410199999999999,-0.004059,-0.020203,-0.00563
145,1.45,0.018652000000000002,0.02597,0.081867,0.001266,-0.015944999999999997,-0.00563
146,1.46,-0.023341,0.043176,0.070127,0.004471,-0.014877000000000001,-0.0045780000000000005
147,1.47,-0.016913,0.054867,0.028444999999999998,0.005539,-0.015944999999999997,-0.00351
148,1.48,-0.039724,0.028372,-0.005130999999999997,0.006592,-0.017013999999999998,-0.00351
149,1.49,-0.043526,0.015253000000000001,-0.041802,0.005539,-0.018066,-0.002441
150,1.5,-0.03355,-0.018639,-0.004353000000000003,0.005539,-0.022338999999999998,-0.001373
151,1.51,0.0018210000000000032,0.002093,-0.007061000000000001,0.006592,-0.026595999999999998,-0.001373
152,1.52,-0.007776999999999997,-0.028713,-0.0036509999999999997,0.010864,-0.026595999999999998,-0.000305
153,1.53,0.012437999999999996,-0.026516,-0.032188999999999995,0.009796,-0.030853,-0.00351
154,1.54,-0.009043,0.040426,-0.010435,0.011917,-0.034058,-0.0045780000000000005
155,1.55,0.026087,0.007164,-0.006304,0.009796,-0.034058,-0.006698999999999999
156,1.56,0.005253000000000001,0.029994,0.054626999999999995,0.008728,-0.029785000000000002,-0.006698999999999999
157,1.57,-0.022924,0.056076,0.015602000000000001,0.007659999999999999,-0.028732,-0.0077670000000000005
158,1.58,-0.0008459999999999988,0.039695999999999995,0.026253,0.009796,-0.023392,-0.008834999999999999
159,1.59,-0.01737,0.050797,0.057104999999999996,0.012985,-0.023392,-0.0077670000000000005
160,1.6,-0.024987,0.028584,0.047035,0.012985,-0.022338999999999998,-0.008834999999999999
161,1.61,-0.040602,0.033069,0.050932,0.018311,-0.026595999999999998,-0.0077670000000000005
162,1.62,-0.033289,0.008848,0.034857,0.019379,-0.026595999999999998,-0.0045780000000000005
163,1.63,-0.031339,-0.019018,0.022509,0.019379,-0.025528,-0.00351
164,1.64,-0.081111,-0.022389,-0.035851,0.01619,-0.026595999999999998,-0.0003050000000000001
165,1.65,-0.070424,-0.025215,-0.048698000000000005,0.014053,-0.022338999999999998,-0.001373
166,1.66,-0.074059,0.026981,-0.060962,0.008728,-0.020203,-0.000305
167,1.67,-0.11960699999999999,0.036395,-0.007226000000000001,0.008728,-0.012740999999999999,-0.000305
168,1.68,-0.10447999999999999,0.022244999999999997,-0.010212999999999998,0.011917,-0.008484,0.001816
169,1.69,-0.12438699999999998,0.044745,0.04259000000000002,0.018311,-0.00209,0.002884
170,1.7,-0.130947,0.046853,0.019892,0.024704,0.003235,0.002884
171,1.71,-0.09504299999999999,0.019259000000000002,-0.031426,0.030029000000000004,0.009628,0.001816
172,1.72,-0.082162,-0.014009000000000002,-0.069849,0.033234,0.014953999999999999,0.00502
173,1.73,-0.057107000000000005,-0.082211,-0.09485,0.033234,0.017075,0.003952000000000001
174,1.74,-0.063436,-0.086375,-0.098938,0.032166,0.020279,0.003952000000000001
175,1.75,-0.030076,-0.07518999999999999,-0.12496900000000001,0.024704,0.020279,0.002884
176,1.76,-0.014978,-0.10656099999999999,-0.16234500000000002,0.019379,0.019211000000000002,0.00502
177,1.77,0.045165,-0.069786,-0.160842,0.011917,0.018143,0.001816
178,1.78,0.05800399999999999,-0.083476,-0.153378,0.003403,0.013885,0.001816
179,1.79,0.065264,-0.030581,-0.096103,-0.00618,0.010695999999999999,-0.00030499999999999993
180,1.8,0.087291,0.019784,-0.038227,-0.012573,0.009628,0.002884
181,1.81,0.078609,0.009581999999999999,0.020972,-0.016846,0.007492,0.0007480000000000001
182,1.82,0.072521,0.018116999999999998,0.077458,-0.016846,0.006423999999999999,-0.000305
183,1.83,0.049421,0.031609,0.114731,-0.013641,0.004303,0.0007480000000000001
184,1.84,0.016054,0.051094,0.11000599999999999,-0.008316,0.003235,-0.0003050000000000001
185,1.85,0.017669,0.052013,0.06702999999999999,-0.002991,-0.0020900000000000003,-0.00030499999999999993
186,1.86,-0.03766,0.027456,0.08794,0.0023349999999999994,-0.007416,-0.000305
187,1.87,-0.058825,0.017444,0.017204,0.003403,-0.008484,-0.00030499999999999993
188,1.88,-0.062936,0.003945000000000001,-0.015691,0.006592,-0.010620000000000001,0.0007480000000000001
189,1.89,-0.044141,-0.026552999999999997,-0.02866,0.009796,-0.008484,-0.00030499999999999993
190,1.9,-0.06862,-0.041656,-0.06094999999999999,0.005539,-0.005295,0.001816
191,1.91,-0.015125,-0.024598,-0.026677,0.007659999999999999,-0.00209,0.003952000000000001
192,1.92,-0.023408,-0.045506,-0.108654,0.0012659999999999998,0.001099,0.002884
193,1.93,-0.024243999999999998,-0.02162,-0.056415999999999994,-0.002991,0.005371,0.001816
194,1.94,-0.038706,-0.046673,-0.066164,-0.007247999999999998,0.006423999999999999,-0.0003050000000000001
195,1.95,-0.038474,-0.015011999999999998,-0.028835000000000003,-0.009384,0.009628,0.0007480000000000001
196,1.96,-0.049992,0.010781000000000002,-0.034229,-0.009384,0.011748999999999999,0.003952000000000001
197,1.97,-0.004462000000000001,0.026505,-0.023566,-0.010452,0.009628,0.003952000000000001
198,1.98,-0.034730000000000004,0.037231,-0.018841,-0.010452,0.00856,0.00502
199,1.99,-0.001308,0.044307,0.013333000000000001,-0.00618,0.007492,0.002884
200,2.0,-0.032494,0.046239999999999996,0.006723000000000001,-0.004059,0.00856,0.0007480000000000001
201,2.01,-0.013484000000000001,0.022059,0.028392,0.00019800000000000004,0.007492,0.00502
202,2.02,0.026613000000000005,0.011319,0.014674,0.005539,0.00856,0.002884
203,2.03,0.010454000000000001,-0.004291,-0.037701,0.009796,0.00856,0.00502
204,2.04,-0.015406,-0.0015179999999999985,-0.030595,0.009796,0.006423999999999999,0.002884
205,2.05,-0.001851,0.009708,-0.06078900000000001,0.007659999999999999,0.006423999999999999,0.001816
206,2.06,0.006811,4.9e-05,-0.042243,0.007659999999999999,0.005371,0.003952000000000001
207,2.07,-0.008366,0.011822,-0.014286000000000002,0.006592,0.003235,0.002884
208,2.08,0.018546,-0.027218,-0.031736,0.004471,0.003235,0.0007480000000000001
209,2.09,0.02862,-0.038291999999999986,-0.047587999999999984,0.003403,0.006423999999999999,0.001816
210,2.1,0.061276,-0.020533000000000003,-0.054888,0.00019799999999999983,0.003235,0.001816
211,2.11,0.032921,-0.001788999999999999,-0.078984,-0.002991,3.1e-05,0.001816
212,2.12,0.005451000000000001,-0.012383,-0.029886000000000003,-0.00618,-0.005295,0.001816
213,2.13,-0.012821,0.026648,0.020398,-0.008316,-0.008484,0.00502
214,2.14,-0.031986,0.010805000000000002,0.061535,-0.002991,-0.004227000000000001,0.003952000000000001
215,2.15,-0.056914,-0.021700999999999998,0.057754,0.0023350000000000003,-0.00209,0.007141
216,2.16,-0.066633,-0.038576,0.015969,0.005539,3.1000000000000205e-05,0.008209000000000001
217,2.17,-0.069311,-0.043927,-0.036641,0.0023350000000000003,-0.0010220000000000001,0.007141
218,2.18,-0.052756,-0.020666,0.005088000000000002,0.00019800000000000004,3.1e-05,0.009276999999999999
219,2.19,-0.056872000000000006,-0.0020219999999999995,0.036005,0.0023349999999999994,0.003235,0.009276999999999999
220,2.2,-0.020396,0.0033130000000000004,0.048014999999999995,0.003403,0.006423999999999999,0.012466
221,2.21,0.03035,-0.02295,0.066536,0.006592,0.009628,0.011414
222,2.22,0.010634999999999999,-0.024436000000000003,0.036441,0.006592,0.012816999999999999,0.010345
223,2.23,0.010895,-0.023242,0.029689,0.006592,0.014953999999999999,0.008209000000000001
224,2.24,-0.013125,-0.023367,-0.02445,0.00019799999999999983,0.014953999999999999,0.007141
225,2.25,0.00673900000000001,0.008931,-0.04075,-0.0008539999999999999,0.017075,0.009276999999999999
226,2.26,-0.013134,-0.018328999999999998,-0.048827999999999996,-0.00618,0.014953999999999999,0.010345
227,2.27,0.024965,0.002586,-0.041224000000000004,-0.009384,0.011748999999999999,0.011414
228,2.28,0.028470999999999996,0.019313,-0.011969,-0.010452,0.007492,0.010345
229,2.29,0.059526,0.014504,0.010129,-0.010452,3.099999999999978e-05,0.009276999999999999
230,2.3,0.037423000000000005,0.071689,0.036745,-0.010452,-0.004227000000000001,0.009276999999999999
231,2.31,0.038625,0.092533,0.032747000000000005,-0.00618,-0.015944999999999997,0.010345
232,2.32,0.0421,0.09221900000000001,0.034451,-0.001923,-0.020203,0.010345
233,2.33,0.069475,0.05765700000000001,0.049589999999999995,0.006592,-0.021271,0.007141
234,2.34,0.029756,0.063707,0.046046,0.007659999999999999,-0.018066,0.0060880000000000005
235,2.35,0.025276,0.002716000000000003,0.040080000000000005,0.011917,-0.015944999999999997,0.003952000000000001
236,2.36,0.008575,-0.012974000000000001,0.00029299999999999986,0.010864,-0.017013999999999998,0.0007480000000000001
237,2.37,0.001556,-0.029307,0.01826,0.009796,-0.014877000000000001,0.003952000000000001
238,2.38,0.010699,-0.043636,-0.046458,0.0055390000000000005,-0.014877000000000001,0.001816
239,2.39,-0.020358999999999995,-0.02766,-0.030405,0.006592,-0.013809,0.002884
240,2.4,0.006860999999999999,-0.037931,-0.063559,0.00019800000000000023,-0.018066,0.002884
241,2.41,-0.025862,-0.017823,0.000330999999999998,0.001266,-0.015944999999999997,0.00502
242,2.42,-0.026126999999999997,-0.011115999999999996,-0.045762,-0.001923,-0.018066,0.00502
243,2.43,-0.05305,0.04158,0.0039390000000000015,-0.0008539999999999999,-0.013809,0.0060880000000000005
244,2.44,-0.025917000000000003,0.043327,0.04396,-0.0008539999999999999,-0.013809,0.00502
245,2.45,-0.012200000000000004,0.070255,0.054529999999999995,0.0023350000000000003,-0.012740999999999999,0.003952000000000001
246,2.46,-0.004573,0.063689,0.063452,0.006592,-0.017013999999999998,0.00502
247,2.47,-0.0133,0.06777999999999999,0.035231,0.012985,-0.011687999999999999,0.003952000000000001
248,2.48,-0.007037000000000001,0.044636,0.038325,0.017242,-0.010620000000000001,0.002884
249,2.49,-0.008657,0.012386,0.035412,0.021515,-0.010620000000000001,0.0060880000000000005
250,2.5,-0.032919,-0.032305,-0.0006040000000000004,0.022583000000000002,-0.0063479999999999995,0.007141
251,2.51,-0.030289,-0.056721,-0.017352,0.022583000000000002,-0.0063479999999999995,0.008209000000000001
252,2.52,6.0000000000001025e-05,-0.063648,-0.039325,0.019379,-0.003159,0.009276999999999999
253,2.53,-0.024696,-0.081817,-0.039746,0.011917,-0.004227000000000001,0.011414
254,2.54,-0.012318,-0.084584,-0.037029,0.006592,-0.007416,0.011414
255,2.55,-0.028705,-0.035798,-0.042668,0.001266,-0.008484,0.012466
256,2.56,-0.0008110000000000001,-0.031639,-0.029615,-0.0008539999999999999,-0.011687999999999999,0.013535
257,2.57,0.013261999999999996,0.0015999999999999973,-0.03255,-0.0051270000000000005,-0.013809,0.015671
258,2.58,0.016216,0.003396,-0.017862000000000003,-0.007248,-0.012740999999999999,0.014603
259,2.59,0.028776,0.028616000000000003,-0.018843000000000002,-0.008316,-0.013809,0.013535
260,2.6,0.025194,0.020682,0.010876,-0.00618,-0.014877000000000001,0.011414
261,2.61,0.056785,0.056358000000000005,0.056512,-0.007248,-0.013809,0.010345
262,2.62,0.019908,0.089318,0.06612799999999999,-0.00618,-0.017013999999999998,0.008209000000000001
263,2.63,0.041152999999999995,0.047057999999999996,0.067514,-0.002991,-0.018066,0.0060880000000000005
264,2.64,0.045125,0.05221699999999999,0.101765,0.00019800000000000004,-0.017013999999999998,0.00502
265,2.65,0.042314,0.014127,0.070268,0.004471,-0.018066,0.008209000000000001
266,2.66,0.055535,-0.014747999999999999,0.036837,0.010864,-0.019135,0.0060880000000000005
267,2.67,0.031963,-0.016388,0.022896,0.007659999999999999,-0.02446,0.00502
268,2.68,0.029511000000000003,-0.032813,-0.01849,0.004471,-0.02446,0.0028839999999999994
269,2.69,-0.004911,0.007962999999999998,-0.021086,0.00019800000000000023,-0.026595999999999998,0.00502
270,2.7,0.004074,-0.0008900000000000002,-0.029317000000000003,0.001266,-0.029785000000000002,0.00502
271,2.71,-0.019196,-0.01984,-0.033983,-0.005127,-0.03299,0.002884
272,2.72,-0.015569999999999999,-0.044930999999999985,-0.0313,-0.0008539999999999999,-0.030853,0.0007480000000000001
273,2.73,0.0010539999999999994,0.0014269999999999975,-0.018531,-0.001923,-0.031921,0.003952000000000001
274,2.74,0.0033130000000000004,0.004492,-0.015004,0.001266,-0.03511,0.002884
275,2.75,0.027412,0.0015139999999999995,-0.012887000000000001,0.001266,-0.036179,0.00502
276,2.76,0.030445999999999997,0.016273,-0.000565000000000003,0.00019800000000000004,-0.03299,0.003952000000000001
277,2.77,-0.022218,0.014429999999999997,0.012962999999999999,0.001266,-0.036179,0.00502
278,2.78,-0.01212,0.030691000000000003,0.027632,0.001266,-0.03511,0.003952000000000001
279,2.79,-0.018155,-0.006368,0.05809400000000001,0.001266,-0.034058,0.00502
280,2.8,-0.040510000000000004,0.006072,0.038597,0.003403,-0.031921,0.0060880000000000005
281,2.81,-0.032964,0.013077000000000002,0.025798,0.004471,-0.026595999999999998,0.0060880000000000005
282,2.82,-0.050998,0.02171,0.03513,0.005539,-0.029785000000000002,0.007141
283,2.83,-0.010837000000000001,0.03776,-0.000769,0.006592,-0.025528,0.0060880000000000005
284,2.84,0.0039840000000000006,0.031070999999999998,-0.015111000000000001,0.006592,-0.02446,0.0060880000000000005
285,2.85,0.013893000000000004,0.046319,0.035445,0.006592,-0.023392,0.0060880000000000005
286,2.86,0.024660999999999995,0.03801,0.019518999999999998,0.006592,-0.022338999999999998,0.0060880000000000005
287,2.87,0.062613,-0.005873,0.05291900000000001,0.009796,-0.020203,0.007141
288,2.88,0.012352000000000002,-0.018237,-0.023074,0.012985,-0.021271,0.007141
289,2.89,-0.0012789999999999989,-0.027494,-0.030444,0.009796,-0.023392,0.007141
290,2.9,0.003868,-0.013678000000000001,-0.043162,0.005539,-0.026595999999999998,0.003952000000000001
291,2.91,0.022131,-0.041750999999999996,-0.0035210000000000033,0.0023350000000000003,-0.025528,0.00502
292,2.92,0.008106,-0.005095000000000001,-0.012204000000000001,0.00019800000000000004,-0.028732,0.002884
293,2.93,-0.010341,0.0011489999999999972,-0.0015860000000000006,-0.0008539999999999999,-0.022338999999999998,0.003952000000000001
294,2.94,0.003946,-0.002003999999999999,0.026213999999999998,0.000198,-0.023392,0.003952000000000001
295,2.95,0.023906,-0.004266,-0.037802999999999996,0.0012659999999999998,-0.02446,0.007141
296,2.96,0.019802,-0.011847,-0.021197,0.00019800000000000004,-0.025528,0.0060880000000000005
297,2.97,0.042473000000000004,-0.018112,-0.044946,0.0023350000000000003,-0.025528,0.00502
298,2.98,0.043927999999999995,-0.016243,0.010804000000000001,0.001266,-0.026595999999999998,0.00502
299,2.99,-0.012322,-0.037792,-0.012062,0.001266,-0.022338999999999998,0.002884
300,3.0,0.006224000000000002,-0.027136,-0.004426000000000001,-0.001923,-0.020203,0.00502
301,3.01,-0.009229000000000001,-0.033878999999999986,0.021263999999999998,-0.00618,-0.023392,0.003952000000000001
302,3.02,-0.033395,-0.007857,0.042489,-0.008316,-0.026595999999999998,0.003952000000000001
303,3.03,0.007958000000000003,0.070498,0.094671,-0.001923,-0.02446,0.003952000000000001
304,3.04,-0.007486,0.05515900000000001,0.13176,0.0023350000000000003,-0.020203,0.003952000000000001
305,3.05,0.008213999999999999,0.081912,0.139742,0.009796,-0.017013999999999998,0.0060880000000000005
306,3.06,0.032599,0.059691999999999995,0.144776,0.01619,-0.012740999999999999,0.003952000000000001
307,3.07,0.0012980000000000005,0.027181999999999998,0.099516,0.023636,-0.014877000000000001,0.003952000000000001
308,3.08,0.0068100000000000036,0.027538999999999998,0.079172,0.032166,-0.013809,0.00502
309,3.09,-0.012264,0.013130000000000001,0.011602,0.036423000000000004,-0.009552,0.007141
310,3.1,-0.028167,-0.015808000000000003,-0.033872,0.037491000000000003,-0.012740999999999999,0.0060880000000000005
311,3.11,0.027062,-0.013041999999999998,-0.063499,0.034286000000000004,-0.007416,0.008209000000000001
312,3.12,0.01888,-0.026827999999999998,-0.10703499999999999,0.033234,-0.010620000000000001,0.00502
313,3.13,0.055406,-0.037926999999999995,-0.120876,0.027908,-0.012740999999999999,0.00502
314,3.14,0.038641,-0.022757,-0.108227,0.022583000000000002,-0.013809,0.0060880000000000005
315,3.15,0.023965,-0.019749,-0.094431,0.020447,-0.017013999999999998,0.0007480000000000001
316,3.16,0.021945,0.00012899999999999717,-0.07095800000000001,0.017242,-0.018066,-0.0003049999999999997
317,3.17,0.005059999999999999,-0.011182,-0.042687,0.01619,-0.022338999999999998,0.002884
318,3.18,0.002062,0.007031,-0.041966,0.019379,-0.027663999999999998,0.002884
319,3.19,-0.038633999999999995,0.022151,0.021401,0.018311,-0.029785000000000002,0.0007480000000000001
320,3.2,-0.007283000000000001,0.042539999999999994,0.024856,0.021515,-0.028732,0.0060880000000000005
321,3.21,-0.0014700000000000026,0.041632,0.043451,0.02684,-0.027663999999999998,0.002884
322,3.22,0.039495999999999996,0.074987,0.048553,0.031097000000000003,-0.028732,0.003952000000000001
323,3.23,0.048645,0.042683,0.043973000000000005,0.035355000000000004,-0.02446,-0.0003050000000000001
324,3.24,-0.01211,0.043465,-0.0093,0.036423000000000004,-0.025528,-0.000305
325,3.25,0.055683,0.019562,-0.050181,0.037491000000000003,-0.021271,-0.00030499999999999993
326,3.26,0.019955,-0.010619,-0.038445000000000014,0.036423000000000004,-0.026595999999999998,-0.001373
327,3.27,0.021477,0.008389,-0.067355,0.033234,-0.027663999999999998,-0.00351
328,3.28,0.029824,0.017255000000000006,-0.095263,0.027908,-0.031921,-0.00351
329,3.29,0.050699,0.003222,-0.049623,0.025772000000000003,-0.03511,-0.001373
330,3.3,0.03096,0.008739,-0.039665,0.02684,-0.037247,-0.00563
331,3.31,0.038083,0.039719,-0.02522,0.027908,-0.042572000000000006,-0.001373
332,3.32,0.042062999999999996,0.0335,-0.050582999999999996,0.031097000000000003,-0.044708,-0.00351
333,3.33,0.075418,0.052848,-0.065919,0.034286000000000004,-0.05215499999999999,-0.001373
334,3.34,0.096987,0.090052,-0.091958,0.039626999999999996,-0.06601,-0.00351
335,3.35,0.12231199999999999,0.103022,-0.112706,0.042816,-0.07772799999999999,-0.00351
336,3.36,0.167848,0.132155,-0.15981700000000001,0.046005000000000004,-0.09690900000000001,0.003952000000000001
337,3.37,0.217727,0.19403800000000002,-0.137761,0.047073000000000004,-0.11714200000000001,0.001816
338,3.38,0.28217800000000004,0.16678199999999999,-0.139999,0.054535,-0.13525399999999999,0.00502
339,3.39,0.32657600000000003,0.215569,-0.194958,0.059860000000000003,-0.152298,0.00502
340,3.4,0.393756,0.201541,-0.233344,0.061996,-0.167206,0.00502
341,3.41,0.367929,0.19937,-0.242773,0.058792,-0.181061,0.007141
342,3.42,0.36187600000000003,0.21099,-0.258233,0.052399,-0.198105,0.007141
343,3.43,0.350427,0.14960299999999999,-0.218257,0.042816,-0.206619,0.008209000000000001
344,3.44,0.29544499999999996,0.100026,-0.193382,0.039626999999999996,-0.214081,0.007141
345,3.45,0.225544,0.053202,-0.173323,0.037491000000000003,-0.21621700000000002,0.0060880000000000005
346,3.46,0.153116,0.000560999999999999,-0.182239,0.032166,-0.211945,0.0007480000000000001
347,3.47,0.057731,-0.030900999999999998,-0.21450100000000002,0.027908,-0.210892,-0.006698999999999999
348,3.48,-0.032061000000000006,-0.034693,-0.279321,0.020447,-0.206619,-0.010971
349,3.49,-0.032699,-0.023375999999999997,-0.32158400000000004,0.012985,-0.198105,-0.016296
350,3.5,-0.055096000000000006,0.007796000000000002,-0.366848,0.006592,-0.185318,-0.015228
351,3.51,-0.07489,-0.019354,-0.35959800000000003,0.0012659999999999998,-0.173599,-0.00563
352,3.52,0.001680000000000001,-0.003552,-0.30665,-0.008316,-0.158691,-0.0003050000000000001
353,3.53,0.091507,-0.02161,-0.265214,-0.012573,-0.146973,0.001816
354,3.54,0.20603000000000002,-0.055224,-0.200326,-0.014709,-0.139511,-0.0024410000000000005
355,3.55,0.280572,-0.087542,-0.23496199999999998,-0.007248,-0.129929,-0.002441
356,3.56,0.26464099999999996,-0.12223099999999999,-0.298118,0.005539,-0.113953,-0.008834999999999999
357,3.57,0.222865,-0.13630799999999998,-0.357614,0.006592,-0.09902999999999999,-0.015228
358,3.58,0.124508,-0.138344,-0.41573699999999997,0.005539,-0.074524,-0.025879000000000003
359,3.59,0.055341999999999995,-0.155069,-0.478699,-0.002991000000000001,-0.048964999999999995,-0.03653
360,3.6,0.009436,-0.17088,-0.536358,-0.014709,-0.023392,-0.04718
361,3.61,-0.06986,-0.206044,-0.514844,-0.024291999999999998,-0.007415999999999998,-0.057830999999999994
362,3.62,-0.073048,-0.261536,-0.563207,-0.033889999999999997,0.004303,-0.064224
363,3.63,-0.025602,-0.24101199999999998,-0.576621,-0.045609,0.012816999999999999,-0.067429
364,3.64,0.057481,-0.22638899999999998,-0.597867,-0.057312,0.017075,-0.07380700000000001
365,3.65,0.118703,-0.19076500000000002,-0.572184,-0.07223500000000001,0.024536000000000002,-0.077011
366,3.66,0.22709000000000001,-0.128879,-0.570494,-0.086075,0.026672,-0.08340499999999999
367,3.67,0.275495,-0.098716,-0.536434,-0.09567300000000001,0.030930000000000003,-0.090851
368,3.68,0.413441,-0.043462,-0.510149,-0.10845899999999999,0.033066000000000005,-0.09724400000000001
369,3.69,0.447563,0.0010289999999999954,-0.418551,-0.125504,0.036255,-0.10363800000000001
370,3.7,0.502996,0.041753,-0.31119,-0.14573699999999998,0.04158,-0.112167
371,3.71,0.469071,0.041727999999999994,-0.213049,-0.164917,0.054367,-0.11856099999999999
372,3.72,0.438729,0.05788299999999999,-0.096951,-0.18515,0.058624,-0.12600699999999998
373,3.73,0.406571,0.076514,0.006171999999999997,-0.20432999999999998,0.06715399999999999,-0.136658
374,3.74,0.385621,0.043947,0.156186,-0.22244299999999997,0.06715399999999999,-0.148376
375,3.75,0.411854,0.017679,0.426962,-0.24267600000000003,0.085251,-0.155838
376,3.76,0.427234,-0.070992,0.664601,-0.262909,0.11296099999999999,-0.166489
377,3.77,0.328285,-0.21594499999999997,0.912853,-0.282089,0.153442,-0.17181400000000002
378,3.78,0.190948,-0.39968400000000004,1.143873,-0.299133,0.21415700000000001,-0.17395
379,3.79,0.057867999999999996,-0.564227,1.261974,-0.302338,0.288727,-0.175018
380,3.8,-0.10801300000000001,-0.738527,1.276994,-0.28527800000000003,0.354767,-0.17713900000000002
381,3.81,-0.283281,-0.874323,1.091184,-0.253326,0.406967,-0.17288199999999998
382,3.82,-0.45449300000000004,-0.9839690000000001,0.8948799999999999,-0.19686900000000002,0.437866,-0.16755699999999998
383,3.83,-0.609648,-1.044283,0.503076,-0.137207,0.458099,-0.141998
384,3.84,-0.656289,-1.080003,0.038883,-0.07435599999999999,0.471954,-0.115356
385,3.85,-0.586757,-1.158731,-0.41507799999999995,-0.014709,0.481537,-0.08340499999999999
386,3.86,-0.375753,-1.229897,-0.845828,0.019379,0.492188,-0.052504999999999996
387,3.87,-0.278896,-1.163247,-1.42753,0.046005000000000004,0.46875,-0.031204000000000003
388,3.88,-0.005413000000000001,-0.8549899999999999,-2.018147,0.057724,0.399506,-0.016296
389,3.89,0.11823499999999999,-0.429832,-2.535234,0.054535,0.27807600000000005,-0.015228
390,3.9,0.204043,0.134878,-2.948469,0.038558999999999996,0.119354,-0.015228
391,3.91,0.159736,0.8286209999999999,-3.195106,0.0012659999999999998,-0.05642700000000001,-0.03653
392,3.92,0.0032460000000000128,1.511076,-3.017292,-0.053055,-0.21727,-0.051437000000000004
393,3.93,-0.283654,2.070488,-2.5457810000000003,-0.10845899999999999,-0.317413,-0.064224
394,3.94,-0.652846,2.367317,-1.8775549999999999,-0.142548,-0.339783,-0.074875
395,3.95,-0.973037,2.5542290000000003,-1.326359,-0.14573699999999998,-0.29504400000000003,-0.086594
396,3.96,-1.343323,2.438227,-0.843683,-0.116974,-0.20768699999999998,-0.111099
397,3.97,-1.670248,2.129086,-0.526829,-0.061584,-0.086243,-0.14518699999999998
398,3.98,-1.8004229999999999,1.480849,-0.377163,0.007659999999999999,0.044785000000000005,-0.178207
399,3.99,-1.734132,0.725547,-0.393131,0.070511,0.169418,-0.20484899999999998
400,4.0,-1.526925,0.007483999999999991,-0.5861970000000001,0.121643,0.272751,-0.218689
401,4.01,-1.2792430000000001,-0.576996,-0.968349,0.146149,0.33665500000000004,-0.222946
402,4.02,-0.9496530000000001,-1.2095,-1.396456,0.13761900000000002,0.348373,-0.213364
403,4.03,-0.683577,-1.7079919999999997,-1.7433330000000002,0.083298,0.327072,-0.195251
404,4.04,-0.33732399999999996,-2.216107,-2.036334,-0.070099,0.252502,-0.156906
405,4.05,-0.24771100000000001,-2.350577,-1.977914,-0.191544,0.188583,-0.129211
406,4.06,-0.196871,-2.3288290000000003,-1.9026889999999999,-0.31404099999999996,0.12254300000000001,-0.094055
407,4.07,-0.272669,-2.102372,-1.624675,-0.41737399999999997,0.053299,-0.05996699999999999
408,4.08,-0.318105,-1.6892150000000001,-1.308748,-0.488754,-0.0031589999999999986,-0.025879000000000003
409,4.09,-0.38153400000000004,-1.1851969999999998,-0.981577,-0.5185850000000001,-0.045776,0.007141
410,4.1,-0.41165799999999997,-0.648926,-0.705964,-0.50473,-0.063873,0.035904000000000005
411,4.11,-0.430933,-0.0003049999999999997,-0.497195,-0.45253000000000004,-0.061752,0.060410000000000005
412,4.12,-0.427828,0.46793500000000005,-0.42613,-0.375839,-0.048964999999999995,0.074265
413,4.13,-0.469314,0.76784,-0.531352,-0.281021,-0.034058,0.075317
414,4.14,-0.5289189999999999,1.0563360000000002,-0.655768,-0.18728599999999998,-0.012740999999999999,0.067871
415,4.15,-0.7028300000000001,1.2193559999999999,-0.82209,-0.10206599999999999,-0.0010220000000000001,0.051879999999999996
416,4.16,-0.785058,1.27883,-0.9210020000000001,-0.02536,-0.003159,0.035904000000000005
417,4.17,-0.8529969999999999,1.140702,-0.922333,0.04920999999999999,-0.014877000000000001,0.020996
418,4.18,-0.884432,0.908869,-1.040008,0.116318,-0.04364,0.012466
419,4.19,-0.8349260000000001,0.563922,-1.181129,0.171707,-0.067078,0.009276999999999999
420,4.2,-0.761317,0.18120899999999998,-1.445762,0.199417,-0.102234,0.014603
421,4.21,-0.615313,-0.197025,-1.784586,0.19728099999999998,-0.137375,0.020996
422,4.22,-0.49518999999999996,-0.509328,-2.083621,0.15466300000000002,-0.178925,0.035904000000000005
423,4.23,-0.292142,-0.636137,-2.35185,0.083298,-0.21514899999999998,0.054015999999999995
424,4.24,-0.07251200000000001,-0.550776,-2.541168,-0.0051270000000000005,-0.262024,0.075317
425,4.25,0.084789,-0.244144,-2.5578,-0.094604,-0.306763,0.081711
426,4.26,0.082322,0.193618,-2.495692,-0.175568,-0.353638,0.084915
427,4.27,0.039785,0.738108,-2.3946560000000003,-0.24374400000000002,-0.399429,0.07638500000000001
428,4.28,-0.144514,1.313707,-2.113008,-0.29274,-0.46228,0.059341
429,4.29,-0.415545,1.993509,-1.856885,-0.317245,-0.53685,0.039108
430,4.3,-0.700516,2.526484,-1.505467,-0.300201,-0.614624,0.026320999999999997
431,4.31,-1.015542,3.008044,-1.142253,-0.249069,-0.670013,0.024184999999999998
432,4.32,-1.180341,3.3322410000000002,-0.804746,-0.180893,-0.70517,0.035904000000000005
433,4.33,-1.273495,3.620229,-0.487512,-0.127625,-0.727539,0.039108
434,4.34,-1.269503,3.892847,-0.10451500000000001,-0.111649,-0.7339319999999999,0.025253
435,4.35,-1.105905,4.120629,0.49526800000000004,-0.11911,-0.728607,0.012466
436,4.36,-1.055267,3.914043,1.3738549999999998,-0.10418699999999999,-0.6966399999999999,0.008209000000000001
437,4.37,-1.1327770000000001,3.186975,2.25973,-0.047729,-0.576263,0.011414
438,4.38,-0.865399,2.088483,2.820764,0.030029000000000007,-0.401566,0.016738999999999997
439,4.39,-0.235285,0.731956,2.993096,0.08969099999999999,-0.268402,0.009276999999999999
440,4.4,0.372498,-0.567286,3.022787,0.124847,-0.23751799999999998,-0.003509999999999999
441,4.41,1.229265,-1.8441450000000001,2.92936,0.166382,-0.266281,-0.022675
442,4.42,1.945552,-2.920691,2.481746,0.226044,-0.339783,-0.053574000000000004
443,4.43,2.348178,-3.668422,1.643327,0.27929699999999996,-0.46122700000000005,-0.087662
444,4.44,2.361192,-3.876057,0.473591,0.276108,-0.554962,-0.117493
445,4.45,1.82392,-3.479318,-0.5700609999999999,0.18023699999999998,-0.598648,-0.13028
446,4.46,1.2041600000000001,-2.554436,-0.9459989999999999,-0.004059000000000007,-0.560287,-0.11323499999999999
447,4.47,0.548239,-1.490652,-0.608662,-0.20858800000000002,-0.42713900000000005,-0.089798
448,4.48,-0.036248,-0.255602,-0.05771100000000001,-0.374771,-0.24816900000000006,-0.06315599999999999
449,4.49,-0.44167700000000004,1.003184,0.545326,-0.484497,-0.108627,-0.021622
450,4.5,-0.674179,2.265836,1.1267530000000001,-0.53775,-0.011687999999999995,0.028457999999999997
451,4.51,-0.516966,2.718634,1.500772,-0.48555,0.020279,0.08064299999999999
452,4.52,-0.277507,2.851253,1.6423240000000001,-0.336426,-0.004227000000000001,0.12326
453,4.53,0.09992199999999997,2.6117529999999998,1.546395,-0.125504,-0.055359000000000005,0.163742
454,4.54,0.50513,2.023294,1.222293,0.11099200000000001,-0.120331,0.193573
455,4.55,0.703806,1.202201,0.679837,0.321915,-0.187454,0.21166999999999997
456,4.56,0.801563,0.379062,0.200046,0.46147200000000005,-0.23326100000000002,0.20954899999999999
457,4.57,0.867259,-0.502213,-0.306992,0.529648,-0.246033,0.202087
458,4.58,0.8726950000000001,-1.3035940000000001,-0.864775,0.538162,-0.249237,0.194626
459,4.59,0.845261,-2.067622,-1.394508,0.499817,-0.25242600000000004,0.191437
460,4.6,0.790922,-2.716081,-1.6904029999999999,0.41566499999999995,-0.254562,0.193573
461,4.61,0.783356,-3.272353,-1.8356990000000002,0.31445300000000004,-0.25563,0.194626
462,4.62,0.883345,-3.6429169999999997,-1.7602419999999999,0.212189,-0.254562,0.203156
463,4.63,0.8459059999999999,-3.8071230000000003,-1.633628,0.12803599999999998,-0.24710100000000002,0.190369
464,4.64,0.757355,-3.736775,-1.487606,0.041748,-0.23219299999999998,0.177582
465,4.65,0.557599,-3.4821459999999997,-1.181732,-0.031754000000000004,-0.228989,0.157349
466,4.66,0.341713,-3.025544,-0.9678180000000001,-0.089279,-0.228989,0.13711500000000001
467,4.67,0.136939,-2.448717,-0.678573,-0.13508599999999998,-0.23751799999999998,0.106216
468,4.68,0.035998,-1.8140049999999999,-0.424342,-0.14573699999999998,-0.23751799999999998,0.073196
469,4.69,0.017961,-1.2031450000000001,-0.235975,-0.128693,-0.218338,0.043365
470,4.7,0.05513099999999999,-0.704767,-0.173747,-0.088211,-0.186386,0.014603
471,4.71,0.163429,-0.419205,-0.290416,-0.038147,-0.143768,-0.012024
472,4.72,0.325948,-0.187594,-0.440655,0.015121000000000002,-0.09690900000000001,-0.03653
473,4.73,0.542895,-0.11383,-0.631315,0.067322,-0.057479999999999996,-0.05996699999999999
474,4.74,0.663153,-0.011569999999999995,-0.8365370000000001,0.11525,-0.029785000000000002,-0.08126799999999999
475,4.75,0.6304569999999999,0.176508,-0.984033,0.15466300000000002,-0.006348000000000001,-0.096191
476,4.76,0.674216,0.349385,-1.151082,0.187698,0.014953999999999999,-0.096191
477,4.77,0.588372,0.487597,-1.352221,0.202606,0.025604000000000002,-0.086594
478,4.78,0.49934700000000004,0.687136,-1.3981940000000002,0.194077,0.037323,-0.057830999999999994
479,4.79,0.256952,0.810077,-1.321796,0.156799,0.069275,-0.023743
480,4.8,-0.17236199999999996,0.9157850000000001,-1.164685,0.135498,0.111893,0.001816
481,4.81,-0.767352,1.008705,-1.202335,0.13761900000000002,0.183258,0.020996
482,4.82,-1.213359,1.169019,-1.363215,0.13336199999999998,0.298309,0.048691000000000005
483,4.83,-1.430983,1.371591,-1.6150440000000001,0.102478,0.437866,0.08277899999999999
484,4.84,-1.235951,1.717123,-1.8284169999999997,0.043884,0.57634,0.115799
485,4.85,-0.7600720000000001,2.089976,-1.8534580000000003,-0.018966999999999998,0.671158,0.136047
486,4.86,-0.17225999999999994,2.48736,-1.658049,-0.043472000000000004,0.707367,0.131775
487,4.87,0.41736999999999996,2.905084,-1.324047,-0.021103,0.711639,0.105148
488,4.88,0.970957,3.099463,-0.920285,0.055603,0.708435,0.057220000000000014
489,4.89,1.004545,3.325648,-0.6905789999999999,0.16531400000000002,0.6892699999999999,-0.0003049999999999997
490,4.9,0.9727600000000001,3.614532,-0.6410279999999999,0.202606,0.7350770000000001,-0.0045780000000000005
491,4.91,1.453174,3.6238580000000002,-0.305767,0.087555,0.857574,0.012466
492,4.92,2.138332,3.3957629999999996,0.7526550000000001,-0.050933999999999986,0.867157,0.02951
493,4.93,2.0295549999999998,2.653604,2.5167740000000003,-0.046661,0.580612,0.092361
494,4.94,1.426699,1.712448,3.7783949999999997,-0.027496,0.492188,0.202087
495,4.95,0.897708,0.696095,4.585915,-0.016846,0.578476,0.3246
496,4.96,0.478004,-0.3425790000000001,4.751526999999999,0.046005,0.714828,0.394897
497,4.97,-0.249242,-1.458707,4.184929,0.198349,0.7425229999999999,0.395966
498,4.98,-1.133313,-2.363347,2.996968,0.353867,0.6072390000000001,0.382126
499,4.99,-1.8481009999999998,-2.85731,1.660159,0.428436,0.39418000000000003,0.367203
500,5.0,-2.172259,-2.7797259999999997,0.5210140000000001,0.37411500000000003,0.199249,0.341644
501,5.01,-2.167824,-2.223468,-0.04683199999999999,0.199417,0.06820700000000003,0.291565
502,5.02,-1.924082,-1.357745,-0.258386,-0.029617000000000008,-0.0031589999999999986,0.222336
503,5.03,-1.298634,-0.16251399999999994,-0.07602300000000001,-0.228821,-0.02446,0.141373
504,5.04,-0.43133599999999994,0.991505,0.21926500000000002,-0.37796,-0.028732,0.045502
505,5.05,0.382193,1.7271130000000001,0.80397,-0.457855,-0.019135,-0.058898999999999986
506,5.06,0.86865,1.99615,1.6609770000000001,-0.46745299999999995,0.009628,-0.16436800000000001
507,5.07,1.718145,1.1170430000000002,2.637425,-0.36198400000000003,0.056503,-0.250641
508,5.08,2.2301599999999997,-0.798775,2.8950259999999997,-0.156387,0.107635,-0.414703
509,5.09,1.309995,0.3207840000000001,1.9568349999999999,0.036423,0.17260699999999998,-0.418961
510,5.1,0.8695930000000001,1.528512,1.1313879999999998,0.132294,0.114014,-0.296448
511,5.11,0.758506,0.115699,1.827016,0.212189,0.023468,-0.29007
512,5.12,0.690559,-1.1124889999999998,1.454677,0.383698,0.017075,-0.294327
513,5.13,0.316153,-2.411355,0.652118,0.511536,0.013884999999999998,-0.316696
514,5.14,-0.419732,-3.3290830000000002,-0.19875400000000004,0.55307,-0.018066,-0.352921
515,5.15,-1.134583,-3.779692,-0.928428,0.50621,-0.07347100000000001,-0.362503
516,5.16,-1.5050649999999999,-4.117399,-1.327947,0.397552,-0.15123,-0.34758
517,5.17,-1.8228229999999999,-4.317158999999999,-1.570716,0.273972,-0.24177600000000002,-0.31456
518,5.18,-1.9908580000000002,-4.2707809999999995,-1.56267,0.14721700000000001,-0.304626,-0.263428
519,5.19,-1.9718950000000002,-4.050223,-1.4889860000000001,0.044952,-0.35257,-0.209106
520,5.2,-1.899866,-3.472871,-1.391968,-0.030685000000000004,-0.38559,-0.156906
521,5.21,-1.7690580000000002,-2.781717,-1.200906,-0.089279,-0.401566,-0.101517
522,5.22,-1.517149,-2.0942950000000002,-0.9820139999999999,-0.131882,-0.386658,-0.057830999999999994
523,5.23,-1.101309,-1.480104,-0.648011,-0.151062,-0.334457,-0.031204000000000003
524,5.24,-0.73861,-0.886106,-0.391901,-0.128693,-0.272675,-0.032272
525,5.25,-0.5020140000000001,-0.47193199999999996,-0.26729899999999995,-0.081818,-0.227936,-0.043991
526,5.26,-0.280484,-0.29118099999999997,-0.325429,-0.021103000000000004,-0.205566,-0.058899
527,5.27,-0.24245500000000003,-0.18908699999999998,-0.558762,0.053466999999999994,-0.200226,-0.056763
528,5.28,-0.265425,-0.102352,-0.9008799999999999,0.124847,-0.199173,-0.033339999999999995
529,5.29,-0.36758,0.094722,-1.398973,0.18556199999999998,-0.190643,0.005020000000000003
530,5.3,-0.5945630000000001,0.42103999999999997,-1.834627,0.234558,-0.178925,0.052948
531,5.31,-0.946034,0.791111,-2.169867,0.255875,-0.168274,0.088104
532,5.32,-1.465547,1.0958459999999999,-2.1666819999999998,0.234558,-0.145905,0.10407999999999999
533,5.33,-1.6205969999999998,1.354985,-1.9958669999999998,0.172775,-0.116074,0.092361
534,5.34,-1.5121639999999998,1.665427,-1.743738,0.096085,-0.108627,0.048691000000000005
535,5.35,-1.121062,1.9243430000000001,-1.438305,0.038558999999999996,-0.156555,0.0007479999999999988
536,5.36,-0.6813859999999999,2.166748,-1.253231,0.012985,-0.230057,-0.04078699999999999
537,5.37,-0.469188,2.240768,-1.1697540000000002,0.015121,-0.325928,-0.067429
538,5.38,-0.377474,2.433363,-1.03037,0.047073000000000004,-0.41328400000000004,-0.078079
539,5.39,-0.373316,2.72844,-0.8899309999999999,0.107803,-0.45909099999999997,-0.06955
540,5.4,-0.43603400000000003,3.0867,-0.770597,0.194077,-0.45269799999999993,-0.049316000000000006
541,5.41,-0.47031000000000006,3.259919,-0.762361,0.287827,-0.39198299999999997,-0.021622
542,5.42,-0.622132,3.127389,-0.649749,0.392227,-0.338715,0.008209000000000001
543,5.43,-0.531655,3.121923,-0.683787,0.511536,-0.34829699999999997,0.025253
544,5.44,-0.9254969999999999,3.4521319999999998,-0.8814569999999999,0.532837,-0.434586,0.007141
545,5.45,-1.369505,3.3188440000000003,-0.147455,0.32724000000000003,-0.48571800000000004,-0.037598
546,5.46,-2.239055,2.698311,1.538922,0.043884000000000006,-0.430328,-0.072754
547,5.47,-2.9367509999999997,2.000731,3.191141,-0.081818,-0.284393,-0.091919
548,5.48,-2.4683580000000003,0.8655459999999999,4.2169989999999995,-0.125504,-0.086243,-0.13028
549,5.49,-1.456806,-0.385737,4.7205900000000005,-0.169174,0.059691999999999995,-0.213364
550,5.5,-0.575094,-1.0972,5.078732,-0.123367,0.055435000000000005,-0.292191
551,5.51,0.530297,-1.342408,4.8663940000000006,0.08541900000000001,-0.031921,-0.29539499999999996
552,5.52,2.4074310000000003,-1.622644,3.7501879999999996,0.353867,-0.070267,-0.254913
553,5.53,4.148471,-1.6230639999999998,2.000857,0.510468,-0.058548,-0.214432
554,5.54,5.335287,-1.264297,0.6038509999999999,0.46359300000000003,-0.110748,-0.17713900000000002
555,5.55,5.7093940000000005,-0.559036,-0.07992100000000002,0.262253,-0.204498,-0.136658
556,5.56,5.156569,0.14127700000000004,-0.35720999999999997,0.008728000000000014,-0.355759,-0.092987
557,5.57,3.569114,0.519979,-0.129798,-0.211777,-0.527267,-0.03653
558,5.58,1.2258650000000002,1.2968870000000001,0.30827,-0.34494,-0.6401819999999999,0.031647000000000015
559,5.59,-0.7341770000000001,1.6997349999999998,0.9431120000000001,-0.37796,-0.644455,0.110474
560,5.6,-1.9482099999999998,1.752614,1.6233360000000001,-0.33215300000000003,-0.574142,0.166931
561,5.61,-2.7522900000000003,1.476916,2.321639,-0.252258,-0.433533,0.194626
562,5.62,-3.213279,0.8362870000000001,2.738352,-0.10739100000000001,-0.292908,0.198898
563,5.63,-3.315687,0.181149,2.570233,0.075836,-0.157623,0.21700999999999998
564,5.64,-2.9473529999999997,-0.5852229999999999,2.0587020000000003,0.245209,-0.020203,0.23938
565,5.65,-2.283375,-1.3851930000000001,1.271468,0.399673,0.092712,0.247894
566,5.66,-1.325532,-2.257288,0.313179,0.5157930000000001,0.170486,0.23617600000000002
567,5.67,-0.40061599999999997,-3.045362,-0.748911,0.563736,0.185394,0.226593
568,5.68,0.38051799999999997,-3.829769,-1.589424,0.516861,0.179001,0.212738
569,5.69,1.095561,-4.367108,-2.032794,0.41352799999999995,0.174744,0.208481
570,5.7,1.618963,-4.636558999999999,-2.258957,0.27717600000000003,0.180069,0.198898
571,5.71,1.918614,-4.679444,-2.289726,0.132294,0.194977,0.181854
572,5.72,1.988636,-4.418735,-2.162785,-0.01152,0.21202100000000002,0.157349
573,5.73,1.8017470000000002,-4.016646,-1.853209,-0.13295,0.230133,0.131775
574,5.74,1.43454,-3.544606,-1.450381,-0.24267600000000003,0.250381,0.10728499999999999
575,5.75,1.161094,-3.006385,-1.034073,-0.35026599999999997,0.266357,0.098755
576,5.76,0.8858969999999999,-2.37763,-0.596497,-0.42909200000000003,0.25676,0.08596799999999999
577,5.77,0.593954,-1.735167,-0.2611290000000001,-0.45573400000000003,0.22587600000000002,0.075317
578,5.78,0.314666,-1.110323,0.06390599999999999,-0.42909200000000003,0.184326,0.060410000000000005
579,5.79,0.154397,-0.506945,0.17688199999999998,-0.346008,0.142776,0.039108
580,5.8,-0.026438000000000003,0.07533099999999998,0.179952,-0.234146,0.126801,0.012466
581,5.81,-0.071989,0.525826,0.009976,-0.115906,0.128937,-0.013092
582,5.82,-0.029607999999999995,0.8550200000000001,-0.201543,0.006592000000000001,0.152374,-0.029068
583,5.83,0.20521999999999999,1.042345,-0.466167,0.103531,0.183258,-0.032272
584,5.84,0.410923,1.1368639999999999,-0.675479,0.163193,0.2099,-0.030136000000000003
585,5.85,0.5765779999999999,1.211295,-0.809645,0.183426,0.230133,-0.013092
586,5.86,0.7286100000000001,1.268785,-0.819996,0.18663,0.23866300000000001,0.014603
587,5.87,0.678167,1.326201,-0.803937,0.187698,0.22906500000000002,0.03804
588,5.88,0.44596199999999997,1.466007,-0.9663430000000001,0.19728099999999998,0.235458,0.058273
589,5.89,0.338338,1.6514349999999998,-1.37447,0.18449400000000002,0.288727,0.09024
590,5.9,0.43339799999999995,1.847464,-1.7407299999999999,0.13761900000000002,0.34944200000000003,0.133911
591,5.91,0.605363,1.999713,-1.8952240000000002,0.070511,0.392059,0.17439300000000002
592,5.92,0.8380299999999999,2.181821,-1.888999,0.003403,0.40271,0.20741300000000001
593,5.93,0.8934540000000001,2.382828,-1.657432,-0.024291999999999998,0.36116,0.22338899999999998
594,5.94,0.907423,2.5180740000000004,-1.2405389999999998,0.025772000000000003,0.280197,0.21700999999999998
595,5.95,0.703804,2.521803,-0.8983959999999999,0.132294,0.22587600000000002,0.191437
596,5.96,0.279298,2.568136,-0.4472120000000001,0.24841300000000002,0.250381,0.155212
597,5.97,-0.618332,2.848258,-0.166689,0.300613,0.34944200000000003,0.130722
598,5.98,-0.624219,2.9396869999999997,0.374224,0.194077,0.47300699999999996,0.12326
599,5.99,-0.007987999999999995,2.89964,1.556543,-0.007248000000000018,0.47300699999999996,0.166931
600,6.0,0.30174,2.53907,3.343951,-0.16171300000000002,0.426147,0.295837
601,6.01,0.093987,1.8751200000000001,4.763222,-0.275696,0.518814,0.469467
602,6.02,-0.162904,1.046586,5.596786,-0.309784,0.70311,0.5898439999999999
603,6.03,-0.3044,-0.026441000000000048,5.4138910000000005,-0.16384900000000002,0.720154,0.630325
604,6.04,-0.662158,-1.1466459999999998,4.025404,0.11418199999999999,0.565689,0.590912
605,6.05,-1.19471,-1.93957,2.088069,0.33576999999999996,0.321747,0.495041
606,6.06,-1.9593509999999998,-1.945543,0.738525,0.336823,0.10336300000000001,0.359741
607,6.07,-2.839769,-1.425649,0.417941,0.139755,0.029861000000000002,0.222336
608,6.08,-3.147966,-0.6039260000000001,0.758663,-0.10206599999999999,0.12573199999999998,0.100891
609,6.09,-2.870457,0.308014,1.119594,-0.258652,0.318558,-0.003509999999999999
610,6.1,-2.2861,0.915219,1.282159,-0.333221,0.546524,-0.10363800000000001
611,6.11,-1.364692,1.1610690000000001,1.457692,-0.338547,0.726547,-0.18246500000000002
612,6.12,-0.5026149999999999,1.078565,1.665845,-0.31510900000000003,0.837341,-0.254913
613,6.13,0.521984,0.056757999999999975,2.1380209999999997,-0.260788,0.920425,-0.348648
614,6.14,0.957802,-0.799289,1.998487,-0.171295,0.95665,-0.47009300000000004
615,6.15,0.510997,0.969564,1.240765,-0.120163,0.972626,-0.382736
616,6.16,0.409256,1.557017,0.77327,-0.087143,0.813904,-0.292191
617,6.17,0.32850799999999997,0.634838,1.267598,0.0012660000000000032,0.663696,-0.29007
618,6.18,0.211115,-0.431236,0.95609,0.16745,0.6210939999999999,-0.308167
619,6.19,-0.318339,-1.523463,0.347645,0.28569,0.596588,-0.334808
620,6.2,-0.901645,-2.3664330000000002,-0.304264,0.32617199999999996,0.575287,-0.358246
621,6.21,-1.576329,-2.93755,-0.687508,0.293152,0.567825,-0.362503
622,6.22,-1.851838,-3.410493,-0.81606,0.22390700000000002,0.575287,-0.344391
623,6.23,-1.952306,-3.88763,-0.811351,0.15998800000000002,0.5731510000000001,-0.310303
624,6.24,-1.877922,-4.293783,-0.7069850000000001,0.10566700000000001,0.555038,-0.271957
625,6.25,-1.460962,-4.16916,-0.80192,0.010864,0.48367299999999996,-0.198456
626,6.26,-1.101121,-3.6775050000000005,-0.7663300000000001,-0.070099,0.445312,-0.148376
627,6.27,-0.790672,-2.9769229999999998,-0.626307,-0.137207,0.413361,-0.10790999999999999
628,6.28,-0.510488,-2.2623889999999998,-0.501618,-0.1745,0.403778,-0.07914700000000001
629,6.29,-0.249881,-1.5537,-0.41017200000000004,-0.179825,0.395248,-0.058899
630,6.3,-0.153454,-0.9323309999999999,-0.320137,-0.15745499999999998,0.392059,-0.035461
631,6.31,-0.131045,-0.506233,-0.398773,-0.122299,0.384598,-0.013092
632,6.32,-0.19569,-0.21718,-0.534337,-0.064774,0.36969,0.015671
633,6.33,-0.300935,0.035536,-0.774519,-0.0008540000000000006,0.351578,0.047623
634,6.34,-0.43162,0.214308,-1.095708,0.07157899999999999,0.332397,0.07638500000000001
635,6.35,-0.575448,0.338433,-1.413189,0.140823,0.31961100000000003,0.10195900000000001
636,6.36,-0.9081819999999999,0.409967,-1.609251,0.18981900000000002,0.301514,0.121124
637,6.37,-1.289432,0.47884899999999997,-1.663764,0.20686300000000002,0.274872,0.124329
638,6.38,-1.62785,0.50648,-1.6624990000000002,0.188751,0.272751,0.12219200000000001
639,6.39,-1.614816,0.578363,-1.6742139999999999,0.157867,0.266357,0.115799
640,6.4,-1.268467,0.801496,-1.8987490000000002,0.116318,0.241852,0.11793499999999998
641,6.41,-0.8558209999999999,1.020692,-2.130728,0.07157899999999999,0.19072,0.125397
642,6.42,-0.524814,1.2664600000000001,-2.3125310000000003,0.014053,0.121475,0.150955
643,6.43,-0.303228,1.630823,-2.28925,-0.043472000000000004,0.042648,0.19250499999999998
644,6.44,-0.291914,2.1461900000000003,-2.052419,-0.07223500000000001,-0.017013999999999998,0.24043299999999998
645,6.45,-0.423096,2.572454,-1.542601,-0.054123000000000004,-0.028732,0.281982
646,6.46,-0.729931,2.858836,-0.989024,0.032166,0.005371000000000001,0.304352
647,6.47,-1.004151,3.226011,-0.404148,0.15040599999999998,0.06076,0.304352
648,6.48,-1.424606,3.7748120000000003,0.080991,0.21006799999999998,0.12573199999999998,0.257477
649,6.49,-1.6961380000000001,4.147938,0.848648,0.048141,0.159821,0.13711500000000001
650,6.5,-2.14636,3.531856,2.57914,-0.284225,0.197113,-0.010971000000000002
651,6.51,-2.0960959999999997,2.7137290000000003,4.6401449999999995,-0.508987,0.298309,-0.132401
652,6.52,-1.077194,1.9568159999999999,5.833581,-0.561188,0.458099,-0.24852
653,6.53,-0.426521,1.311131,6.050922,-0.46850600000000003,0.571014,-0.373154
654,6.54,-0.105925,0.731446,5.912515,-0.245865,0.627472,-0.44346599999999997
655,6.55,0.302148,0.16588799999999998,4.870655,0.07476800000000003,0.714828,-0.428543
656,6.56,1.315012,-0.215379,3.193373,0.348541,0.8458559999999999,-0.371017
657,6.57,2.079902,-0.072326,1.742743,0.41246000000000005,0.963043,-0.337997
658,6.58,2.269107,0.310112,1.113414,0.262253,1.062103,-0.311371
659,6.59,1.608172,0.8667459999999999,0.815562,0.028961,1.100449,-0.279404
660,6.6,0.5440350000000002,1.5169489999999999,0.826767,-0.159592,1.059982,-0.22189299999999998
661,6.61,-0.8394459999999999,1.8469650000000002,1.055345,-0.245865,1.045059,-0.135605
662,6.62,-1.743725,1.50936,1.31994,-0.245865,1.082352,-0.022675
663,6.63,-2.1720740000000003,0.8986780000000001,1.55126,-0.20858800000000002,1.12709,0.077454
664,6.64,-2.546578,0.05173399999999995,1.9049029999999998,-0.14573699999999998,1.199524,0.14030499999999999
665,6.65,-2.8848439999999997,-0.606679,2.0109619999999997,-0.048798,1.291138,0.17971800000000002
666,6.66,-2.791168,-1.3497270000000001,1.7907080000000002,0.043884,1.434952,0.22338899999999998
667,6.67,-2.322967,-2.133848,1.3864,0.10141,1.5862120000000002,0.25854499999999997
668,6.68,-1.783095,-2.882103,0.880972,0.113129,1.7289580000000002,0.273468
669,6.69,-1.096826,-3.438411,0.5713779999999999,0.09820599999999999,1.8482669999999999,0.291565
670,6.7,-0.377781,-3.8653,0.34313299999999997,0.072647,1.918579,0.309677
671,6.71,0.411822,-4.04065,0.18959,0.046005000000000004,1.965454,0.328857
672,6.72,1.156301,-3.976895,-0.047330000000000004,0.00019800000000000023,1.9974060000000002,0.348038
673,6.73,1.6527919999999998,-3.685839,-0.151346,-0.062653,2.009125,0.367203
674,6.74,1.9103970000000001,-3.135192,-0.25708200000000003,-0.127625,2.015518,0.386383
675,6.75,1.880002,-2.52679,-0.273367,-0.19261199999999998,2.020844,0.400223
676,6.76,1.795929,-1.779712,-0.173596,-0.241608,2.020844,0.41621400000000003
677,6.77,1.576849,-1.1661059999999999,0.095696,-0.26823400000000003,2.015518,0.408752
678,6.78,1.4569290000000001,-0.618392,0.564062,-0.258652,2.01445,0.372528
679,6.79,1.538727,-0.397756,1.008985,-0.216049,2.034698,0.318207
680,6.8,1.513591,-0.30642600000000003,1.285986,-0.155319,2.074112,0.25322
681,6.81,1.289432,-0.560466,1.209627,-0.09353600000000001,2.101807,0.17013499999999998
682,6.82,0.843543,-0.768349,0.90748,-0.027496,2.12204,0.091309
683,6.83,0.337882,-0.874044,0.399152,0.02684,2.167847,0.017791999999999995
684,6.84,-0.051830999999999995,-0.861518,-0.236702,0.054535,2.2488099999999998,-0.038666000000000006
685,6.85,-0.342065,-0.7390680000000001,-0.610831,0.049210000000000004,2.357468,-0.07380700000000001
686,6.86,-0.487117,-0.505588,-0.745039,0.019379,2.466125,-0.07380700000000001
687,6.87,-0.446032,-0.160143,-0.538801,-0.015778,2.541763,-0.043991
688,6.88,-0.28855,0.188158,-0.24146700000000001,-0.033889999999999997,2.583298,0.007140999999999998
689,6.89,-0.013725999999999988,0.424491,0.002997,-0.036011,2.621658,0.057219999999999986
690,6.9,0.502988,0.5263100000000001,0.119402,-0.029617,2.657867,0.103027
691,6.91,1.080317,0.396586,0.289231,-0.026427999999999997,2.6887659999999998,0.141373
692,6.92,1.515517,0.041911,0.47690699999999997,-0.033889999999999997,2.705811,0.17546099999999998
693,6.93,1.771414,-0.350015,0.590336,-0.043472000000000004,2.732437,0.210617
694,6.94,2.008039,-0.583767,0.652245,-0.059448,2.751617,0.252151
695,6.95,2.132071,-0.673408,0.588592,-0.082886,2.767593,0.304352
696,6.96,2.040762,-0.595965,0.526792,-0.105255,2.793167,0.35336300000000004
697,6.97,1.6089790000000002,-0.207683,0.311686,-0.147873,2.882645,0.402359
698,6.98,1.1733790000000002,0.41145699999999996,0.12368,-0.24054,3.0275119999999998,0.45562700000000006
699,6.99,0.47967600000000005,1.07806,0.313721,-0.36837800000000004,3.180923,0.48651099999999997
700,7.0,-0.43649799999999994,1.765868,1.063725,-0.511124,3.327927,0.49076800000000004
701,7.01,-1.386584,2.21831,2.408764,-0.667709,3.44191,0.46839899999999995
702,7.02,-2.352209,2.312401,4.249435,-0.7827609999999999,3.502625,0.41621400000000003
703,7.03,-3.817281,2.5107880000000002,5.740851999999999,-0.807266,3.6176760000000003,0.378922
704,7.04,-4.88094,2.778979,6.24338,-0.843491,3.7412410000000005,0.362946
705,7.05,-4.699261,3.186975,6.0829949999999995,-0.8754430000000001,3.7348480000000004,0.349091
706,7.06,-3.8222660000000004,3.437897,5.361308999999999,-0.7848970000000001,3.591049,0.321396
707,7.07,-3.4423660000000003,3.157819,4.017403,-0.554794,3.373734,0.291565
708,7.08,-3.283564,2.722196,2.497417,-0.273575,3.128723,0.312881
709,7.09,-2.9114,1.945529,1.365215,-0.033889999999999997,2.948685,0.356552
710,7.1,-2.584937,0.948624,0.60639,0.086487,2.8698580000000002,0.404495
711,7.11,-2.191538,-0.08282000000000006,0.363528,0.091812,2.923126,0.44497700000000007
712,7.12,-1.462313,-1.248896,0.055951,0.064117,3.0413669999999997,0.48118599999999995
713,7.13,-0.3126510000000001,-2.480512,-0.183453,0.055603,3.159607,0.489716
714,7.14,0.48134,-3.23505,-0.8986190000000001,0.055603,3.281052,0.460953
715,7.15,0.9164180000000001,-2.805343,-1.6605189999999999,-0.012573,3.3971709999999997,0.440704
716,7.16,0.9536690000000001,-1.9976150000000001,-1.907172,-0.137207,3.465347,0.417267
717,7.17,0.48771400000000004,-1.3568,-1.154303,-0.24693299999999999,3.4823910000000002,0.39916999999999997
718,7.18,0.02634500000000001,-0.847075,-0.248536,-0.276764,3.456818,0.397034
719,7.19,-0.385536,-0.379206,0.41805699999999996,-0.21816999999999998,3.423798,0.415146
720,7.2,-0.727939,-0.04982700000000001,0.572063,-0.09992999999999999,3.36734,0.448166
721,7.21,-0.998984,0.145622,0.336674,0.043883999999999986,3.285309,0.49397299999999994
722,7.22,-1.232738,0.032074999999999985,0.054505,0.162125,3.162811,0.536575
723,7.23,-1.489523,-0.16791099999999998,0.031452999999999995,0.238831,3.0413669999999997,0.5728
724,7.24,-1.6471360000000002,-0.36148,0.244277,0.284637,2.975327,0.5983729999999999
725,7.25,-1.6028040000000001,-0.6385930000000001,0.560405,0.3134,2.957214,0.597305
726,7.26,-1.432,-1.014808,0.802222,0.325104,2.977448,0.571732
727,7.27,-1.073593,-1.477594,0.9742790000000001,0.315521,3.016861,0.525925
728,7.28,-0.6033930000000001,-1.9038970000000002,1.121451,0.28036500000000003,3.071198,0.474792
729,7.29,-0.012043000000000026,-2.240381,1.24996,0.21646100000000001,3.114868,0.42579700000000004
730,7.3,0.501826,-2.300763,1.412113,0.13656600000000002,3.1255189999999997,0.39064
731,7.31,0.8589709999999999,-2.092866,1.657215,0.054535,3.108475,0.362946
732,7.32,1.003412,-1.8069169999999999,1.878253,-0.006179999999999998,3.079712,0.35336300000000004
733,7.33,1.030886,-1.532961,1.916765,-0.057312,3.048828,0.35336300000000004
734,7.34,0.9815209999999999,-1.349975,1.918349,-0.10418699999999999,3.013672,0.35336300000000004
735,7.35,0.8658319999999999,-1.371769,1.8654240000000002,-0.146805,2.971054,0.344833
736,7.36,0.616532,-1.3761809999999999,1.9116830000000002,-0.191544,2.924194,0.32353200000000004
737,7.37,0.20321199999999998,-1.391253,2.027009,-0.238419,2.860275,0.300095
738,7.38,-0.18875000000000006,-1.342782,2.301875,-0.29274,2.811264,0.275589
739,7.39,-0.505089,-1.11375,2.626966,-0.35133400000000004,2.8134,0.260681
740,7.4,-0.691122,-0.646021,3.045556,-0.403534,2.857071,0.256424
741,7.41,-0.5518609999999999,-0.06644099999999997,3.3747949999999998,-0.44294700000000004,2.92099,0.252151
742,7.42,-0.204493,0.6142810000000001,3.6597589999999998,-0.45253000000000004,2.975327,0.23298600000000003
743,7.43,0.177395,1.103752,3.9900330000000004,-0.41951000000000005,2.996628,0.188248
744,7.44,0.642254,1.369117,4.089451,-0.35026599999999997,2.9689330000000003,0.125397
745,7.45,1.2892299999999999,1.323871,3.909701,-0.258652,2.866669,0.060410000000000005
746,7.46,1.929344,1.000189,3.3911279999999997,-0.160645,2.677048,0.010345
747,7.47,2.62177,0.6381,2.68554,-0.096741,2.434174,-0.010971000000000002
748,7.48,3.158709,0.5814699999999999,1.805766,-0.051987,2.169983,-0.020554
749,7.49,3.378725,0.886323,0.68748,-0.062653,1.938812,-0.009903
750,7.5,3.336433,1.498746,-0.249189,-0.16597,1.740677,-0.012024
751,7.51,2.9326060000000003,2.305882,-0.601367,-0.338547,1.570236,-0.030136000000000003
752,7.52,2.147145,3.147518,-0.239035,-0.505798,1.475433,-0.045058999999999995
753,7.53,1.287367,3.8722309999999998,0.466084,-0.611252,1.483948,-0.046112
754,7.54,0.776335,4.168632,1.203019,-0.606995,1.570236,-0.017349
755,7.55,0.867366,4.104906,1.602209,-0.457855,1.6831509999999998,0.055084
756,7.56,1.279043,3.6936730000000004,1.353494,-0.195801,1.792877,0.14562999999999998
757,7.57,1.871291,2.9692819999999998,0.478593,0.093948,1.844009,0.238312
758,7.58,2.420035,2.095774,-0.7911109999999999,0.331497,1.782227,0.318207
759,7.59,2.764325,1.096839,-1.890208,0.476379,1.6373440000000001,0.385315
760,7.6,2.943072,0.17840599999999998,-2.795998,0.501938,1.474365,0.42153900000000005
761,7.61,3.0286419999999996,-0.607545,-3.271513,0.43696599999999997,1.347595,0.431122
762,7.62,3.080018,-1.1182809999999999,-3.332465,0.329376,1.297531,0.39064
763,7.63,2.902886,-1.446815,-3.165366,0.22390700000000002,1.301788,0.318207
764,7.64,2.6088080000000002,-1.688693,-2.812066,0.12271099999999999,1.338013,0.225525
765,7.65,2.211798,-1.775743,-2.2732930000000002,0.033234,1.380615,0.134979
766,7.66,1.817957,-1.714074,-1.657487,-0.027496,1.428558,0.054015999999999995
767,7.67,1.58039,-1.644624,-1.1512930000000001,-0.053055,1.46904,-0.0013729999999999992
768,7.68,1.384051,-1.4407219999999998,-0.886317,-0.047729,1.487152,-0.026947000000000002
769,7.69,1.2535530000000001,-1.32118,-0.7814180000000001,-0.029617,1.464783,-0.017349
770,7.7,1.367342,-1.202436,-0.74085,-0.004059,1.3997959999999998,0.012466
771,7.71,1.44986,-1.069748,-0.62241,0.028961,1.328415,0.046555
772,7.72,1.6108069999999999,-0.9077069999999999,-0.59407,0.075836,1.251724,0.072128
773,7.73,1.805654,-0.6960529999999999,-0.602845,0.124847,1.1633,0.08064299999999999
774,7.74,2.0457229999999997,-0.614645,-0.528643,0.170654,1.0791469999999999,0.088104
775,7.75,2.346444,-0.5453180000000001,-0.421207,0.20686300000000002,1.039734,0.092361
776,7.76,2.665102,-0.515307,-0.409872,0.23350500000000002,1.04187,0.089172
777,7.77,2.84098,-0.47708100000000003,-0.39399999999999996,0.24415599999999998,1.056778,0.07959
778,7.78,2.7922290000000003,-0.492626,-0.311417,0.251602,1.0716860000000001,0.065735
779,7.79,2.729527,-0.6079140000000001,-0.258651,0.265457,1.0738219999999998,0.054015999999999995
780,7.8,2.721349,-0.7336560000000001,-0.151025,0.276108,1.062103,0.039108
781,7.81,2.7454400000000003,-0.861869,0.013077999999999992,0.27504,1.037598,0.026320999999999997
782,7.82,2.733062,-0.969817,0.113027,0.272919,1.00032,0.010345
783,7.83,2.678634,-1.075536,0.118978,0.26759299999999997,0.952377,-0.0003049999999999997
784,7.84,2.642805,-1.24759,0.175038,0.24734499999999998,0.903381,-0.015228
785,7.85,2.720052,-1.561309,0.110231,0.209,0.8554379999999999,-0.04718
786,7.86,2.8346720000000003,-1.954611,0.008945000000000002,0.139755,0.790466,-0.096191
787,7.87,2.712395,-1.808876,-0.070475,0.023636000000000004,0.705246,-0.11961400000000001
788,7.88,2.306295,-0.7616310000000001,0.016515000000000002,-0.12443500000000003,0.57634,-0.053574000000000004
789,7.89,2.218794,-0.507321,0.894288,-0.25758400000000004,0.42826800000000004,0.028457999999999997
790,7.9,2.492224,-0.5740890000000001,1.845532,-0.291672,0.364365,0.091309
791,7.91,2.921035,-0.7187640000000001,2.161276,-0.258652,0.37606799999999996,0.134979
792,7.92,3.4078470000000003,-0.658736,2.039335,-0.22349499999999997,0.40271,0.17013499999999998
793,7.93,3.7113970000000003,-0.646914,1.9489720000000001,-0.220306,0.381409,0.194626
794,7.94,3.815336,-0.819643,2.055234,-0.217102,0.346252,0.19783
795,7.95,3.571129,-1.067296,2.039357,-0.188339,0.34944200000000003,0.190369
796,7.96,2.8072209999999997,-1.1813420000000001,1.611229,-0.15745499999999998,0.385666,0.17439300000000002
797,7.97,1.8873669999999998,-0.74337,0.817642,-0.18515,0.39418000000000003,0.161606
798,7.98,0.42253900000000005,0.33053800000000005,0.08145600000000003,-0.318314,0.401642,0.17439300000000002
799,7.99,-0.591495,1.9546119999999998,-0.06761,-0.498337,0.380341,0.221268
800,8.0,-1.301812,3.62359,0.4346729999999999,-0.605927,0.26103200000000004,0.260681
801,8.01,-1.928743,5.090577,1.127194,-0.548401,0.091644,0.289444
802,8.02,-1.9434490000000002,5.894979,1.203177,-0.328964,-0.031920999999999984,0.309677
803,8.03,-1.841389,5.740754,0.31500399999999995,-0.04347200000000001,-0.142715,0.292633
804,8.04,-1.991414,5.240632,-0.8193530000000001,0.195145,-0.23751799999999998,0.23085
805,8.05,-2.312072,4.738905,-1.982957,0.318726,-0.239655,0.114731
806,8.06,-2.913452,4.323529,-3.007575,0.3134,-0.13311800000000001,-0.035461
807,8.07,-3.32709,3.785444,-3.4395879999999996,0.209,0.053299000000000006,-0.156906
808,8.08,-3.22634,3.220395,-3.2164,0.081161,0.286591,-0.222946
809,8.09,-2.868467,2.682676,-2.63062,-0.002991000000000001,0.5422520000000001,-0.224014
810,8.1,-2.195738,2.14784,-2.010624,-0.015778,0.7712859999999999,-0.18779
811,8.11,-1.341338,1.5498299999999998,-1.683701,0.025772000000000003,0.9129639999999999,-0.141998
812,8.12,-0.416104,0.806186,-1.512473,0.081161,0.9417270000000001,-0.115356
813,8.13,0.24711100000000003,0.10017900000000003,-1.545113,0.13656600000000002,0.860764,-0.123886
814,8.14,0.62746,-0.46588500000000005,-1.668193,0.171707,0.7137600000000001,-0.131332
815,8.15,0.7857970000000001,-0.8517620000000001,-1.773304,0.166382,0.567825,-0.15477
816,8.16,0.743703,-1.00795,-1.86746,0.13656600000000002,0.455963,-0.179276
817,8.17,0.39472199999999996,-1.154061,-1.811461,0.077972,0.39418000000000003,-0.190994
818,8.18,0.03675899999999999,-1.255483,-1.626631,0.019379,0.365417,-0.180344
819,8.19,-0.273524,-1.469631,-1.403924,-0.031754000000000004,0.357971,-0.156906
820,8.2,-0.440983,-1.853387,-1.173215,-0.059448,0.346252,-0.116425
821,8.21,-0.434537,-2.08467,-0.9509610000000001,-0.049866,0.332397,-0.071686
822,8.22,-0.344296,-2.2503450000000003,-0.845416,-0.017899,0.329208,-0.024811
823,8.23,-0.16915,-2.367432,-0.782289,0.031097000000000003,0.334534,0.012466
824,8.24,0.0009440000000000004,-2.435981,-0.811329,0.077972,0.331329,0.036972000000000005
825,8.25,0.08959500000000001,-2.495989,-0.79009,0.121643,0.306839,0.049759
826,8.26,0.130253,-2.402146,-0.673589,0.14721700000000001,0.283401,0.064667
827,8.27,0.11604,-2.240656,-0.495295,0.15466300000000002,0.28447,0.088104
828,8.28,0.129603,-2.0289189999999997,-0.250052,0.14189100000000002,0.307892,0.119003
829,8.29,0.193216,-1.6881869999999999,0.092186,0.131226,0.33665500000000004,0.153091
830,8.3,0.213995,-1.267046,0.196544,0.12271099999999999,0.346252,0.180786
831,8.31,0.244648,-0.934369,0.23626799999999998,0.12803599999999998,0.315353,0.203156
832,8.32,0.284594,-0.642155,0.279729,0.135498,0.252502,0.222336
833,8.33,0.374671,-0.5563560000000001,0.469704,0.139755,0.186462,0.245758
834,8.34,0.496647,-0.5938260000000001,0.7881739999999999,0.135498,0.136398,0.25961300000000004
835,8.35,0.5402859999999999,-0.756566,1.194433,0.13443,0.11828599999999999,0.270264
836,8.36,0.552413,-0.9924639999999999,1.568186,0.139755,0.11828599999999999,0.277725
837,8.37,0.340929,-1.3664530000000001,1.8234540000000001,0.164261,0.12254300000000001,0.288376
838,8.38,0.099978,-1.612476,1.821174,0.18663,0.138519,0.304352
839,8.39,-0.37895100000000004,-1.8781599999999998,1.8101099999999999,0.18556199999999998,0.156631,0.30648800000000004
840,8.4,-0.8930799999999999,-1.942664,1.7998740000000002,0.14827,0.196045,0.30648800000000004
841,8.41,-1.375275,-1.8539900000000002,1.9196959999999998,0.081161,0.257828,0.294769
842,8.42,-1.6321379999999999,-1.556746,2.228174,-0.013641,0.357971,0.273468
843,8.43,-1.581591,-1.2787870000000001,2.674419,-0.125504,0.481537,0.254288
844,8.44,-1.3010030000000001,-0.975356,3.212599,-0.23095700000000002,0.593384,0.23085
845,8.45,-1.124312,-0.914956,3.637485,-0.288483,0.648788,0.20741300000000001
846,8.46,-0.828521,-1.009141,3.6241309999999998,-0.284225,0.6200260000000001,0.194626
847,8.47,-0.14447000000000002,-1.105502,3.02061,-0.267181,0.481537,0.182907
848,8.48,0.772705,-0.8913629999999999,2.133336,-0.276764,0.24504099999999998,0.176529
849,8.49,2.021578,-0.41552,1.264217,-0.330032,-0.008484000000000005,0.173325
850,8.5,3.5459080000000003,0.47898,0.560038,-0.402466,-0.228989,0.159485
851,8.51,4.800301999999999,1.8543619999999998,0.050241000000000015,-0.456787,-0.351501,0.098755
852,8.52,5.134432,3.333047,-0.4979950000000001,-0.436554,-0.34936500000000004,0.008209000000000001
853,8.53,4.378211,4.644329,-1.4821520000000001,-0.33429000000000003,-0.250305,-0.089798
854,8.54,3.226528,5.573169,-2.69572,-0.177689,-0.145905,-0.165421
855,8.55,2.028897,5.964658999999999,-3.585321,0.0023350000000000176,-0.090515,-0.203781
856,8.56,0.953318,6.07241,-4.204362000000001,0.15040599999999998,-0.105423,-0.180344
857,8.57,0.41361499999999995,6.334007,-4.5693269999999995,0.22071799999999997,-0.166138,-0.09724400000000001
858,8.58,0.400592,6.540726,-4.5528260000000005,0.22711199999999998,-0.28865100000000005,0.0018159999999999984
859,8.59,0.817879,6.555738000000001,-3.93868,0.196213,-0.436722,0.096634
860,8.6,1.50604,6.101382,-2.863722,0.163193,-0.560287,0.172256
861,8.61,2.077089,5.062025,-1.758757,0.18663,-0.599701,0.215942
862,8.62,2.263817,3.882935,-1.340103,0.287827,-0.521942,0.205292
863,8.63,2.24905,2.50546,-1.537315,0.41459700000000005,-0.41114799999999996,0.167999
864,8.64,2.103002,0.88505,-1.7593159999999999,0.5136569999999999,-0.297165,0.12219200000000001
865,8.65,1.648265,-0.665213,-1.981538,0.5690609999999999,-0.195969,0.089172
866,8.66,1.1264370000000001,-2.028485,-2.1272759999999997,0.5594640000000001,-0.10116599999999999,0.073196
867,8.67,0.526768,-3.1037369999999997,-2.12345,0.491287,-0.04364,0.066803
868,8.68,-0.029021999999999992,-3.839581,-2.025909,0.404999,-0.040436,0.07106
869,8.69,-0.478803,-4.275955000000001,-1.888608,0.330444,-0.072403,0.065735
870,8.7,-0.780543,-4.512914,-1.711401,0.278244,-0.121399,0.046555
871,8.71,-0.96341,-4.52545,-1.4970510000000001,0.23669400000000002,-0.153366,0.015671
872,8.72,-0.9072520000000001,-4.404423,-1.2479930000000001,0.20153800000000002,-0.137375,-0.032272
873,8.73,-0.774004,-4.2445,-0.997009,0.166382,-0.067078,-0.08126799999999999
874,8.74,-0.539658,-3.8982550000000002,-0.781984,0.120575,0.028793,-0.117493
875,8.75,-0.13102,-3.447404,-0.597078,0.083298,0.12468,-0.150513
876,8.76,0.232869,-2.952645,-0.45017399999999996,0.054535,0.197113,-0.17395
877,8.77,0.634612,-2.353803,-0.202573,0.038558999999999996,0.258896,-0.176086
878,8.78,1.099931,-1.6524560000000001,0.011496,0.036423000000000004,0.320679,-0.17288199999999998
879,8.79,1.519663,-0.963096,0.165864,0.049210000000000004,0.371811,-0.168625
880,8.8,1.8213990000000002,-0.418908,0.275942,0.073715,0.40271,-0.168625
881,8.81,2.054427,-0.042901,0.456003,0.107803,0.425079,-0.18779
882,8.82,2.1363209999999997,0.17965799999999998,0.601129,0.15361,0.44426000000000004,-0.235733
883,8.83,2.269796,-0.614024,0.761953,0.198349,0.45170600000000005,-0.34225500000000003
884,8.84,2.174744,-1.125432,0.573259,0.21965,0.427216,-0.446655
885,8.85,1.4108049999999999,0.762447,-0.04964099999999999,0.166382,0.408035,-0.430679
886,8.86,1.107767,1.397334,0.490409,0.01724200000000001,0.280197,-0.355042
887,8.87,1.242586,0.7064729999999999,1.64857,-0.073303,0.241852,-0.298584
888,8.88,1.6728619999999998,-0.21093600000000007,2.086536,-0.065842,0.280197,-0.261307
889,8.89,1.7043720000000002,-1.011422,1.9444540000000001,-0.044539999999999996,0.286591,-0.232544
890,8.9,1.502253,-1.3809069999999999,1.5648440000000001,-0.081818,0.23120100000000002,-0.19632
891,8.91,1.44499,-1.6585130000000001,1.345501,-0.170242,0.139587,-0.143051
892,8.92,1.812898,-1.9177060000000001,1.422109,-0.263977,0.01814299999999999,-0.10257000000000001
893,8.93,2.2045529999999998,-1.978775,1.596586,-0.318314,-0.12779200000000002,-0.091919
894,8.94,2.571445,-1.7250590000000001,1.8232169999999999,-0.348129,-0.29078699999999996,-0.101517
895,8.95,2.827505,-1.419034,1.860327,-0.372635,-0.44737200000000005,-0.12175
896,8.96,3.0247580000000003,-1.1747889999999999,1.9301110000000001,-0.41737399999999997,-0.5784,-0.143051
897,8.97,3.1857,-0.871842,1.98175,-0.47489899999999996,-0.665756,-0.15904200000000002
898,8.98,3.110466,-0.5169090000000001,1.8648189999999998,-0.54628,-0.697708,-0.156906
899,8.99,2.6555880000000003,0.10172200000000003,1.670246,-0.641083,-0.676407,-0.139862
900,9.0,1.706865,0.9447559999999999,1.430599,-0.751877,-0.6082310000000001,-0.111099
901,9.01,0.5356049999999999,1.7775130000000001,1.426525,-0.8402860000000001,-0.538986,-0.078079
902,9.02,-0.642303,2.377383,1.521909,-0.870117,-0.5283359999999999,-0.034393
903,9.03,-1.823675,2.687333,1.557221,-0.8168489999999999,-0.513428,0.027389999999999998
904,9.04,-2.707584,2.831569,1.1239540000000001,-0.671982,-0.45269799999999993,0.091309
905,9.05,-3.271291,2.785654,0.343947,-0.48982200000000004,-0.36534099999999997,0.141373
906,9.06,-3.700126,2.515914,-0.588785,-0.317245,-0.29184,0.157349
907,9.07,-3.807296,2.236084,-1.5148469999999998,-0.190475,-0.25669899999999995,0.131775
908,9.08,-3.609663,2.046967,-2.3395099999999998,-0.130829,-0.262024,0.067871
909,9.09,-3.126272,2.033946,-2.871687,-0.16597,-0.26414499999999996,-0.029068
910,9.1,-2.891982,2.290454,-3.086655,-0.2789,-0.230057,-0.137726
911,9.11,-2.785978,2.8123080000000003,-2.749396,-0.41737399999999997,-0.09902999999999999,-0.209106
912,9.12,-2.423464,3.185978,-2.168326,-0.50473,0.11828599999999999,-0.227219
913,9.13,-1.9939639999999998,3.668053,-1.440735,-0.500473,0.327072,-0.20484899999999998
914,9.14,-1.635528,4.176397,-0.8800870000000001,-0.40565500000000004,0.515625,-0.15904200000000002
915,9.15,-1.053599,3.99646,-0.38661999999999996,-0.217102,0.675415,-0.10257000000000001
916,9.16,-0.515706,3.1778419999999996,-0.21318,0.035355000000000004,0.7830050000000001,-0.077011
917,9.17,-0.03273300000000001,1.874857,-0.469208,0.298477,0.806442,-0.06636
918,9.18,0.290652,0.4844470000000001,-1.224257,0.49556000000000006,0.730804,-0.052504999999999996
919,9.19,0.428536,-0.8048709999999999,-2.16644,0.586105,0.571014,-0.032272
920,9.2,0.434204,-1.591426,-2.9107380000000003,0.564789,0.373947,0.00502
921,9.21,0.518551,-2.056993,-3.235383,0.46785,0.185394,0.050827
922,9.22,0.45815500000000003,-2.556984,-3.175364,0.351746,0.021347,0.098755
923,9.23,0.419764,-2.8967810000000003,-2.782339,0.246277,-0.097961,0.153091
924,9.24,0.390369,-3.10933,-2.2904009999999997,0.157867,-0.156555,0.204224
925,9.25,0.357045,-3.103198,-1.752146,0.09820599999999999,-0.158691,0.24682600000000002
926,9.26,0.261074,-2.956248,-1.2762360000000001,0.057724,-0.126724,0.277725
927,9.27,0.06403099999999999,-2.737182,-0.8867799999999999,0.050277999999999996,-0.07772799999999999,0.289444
928,9.28,-0.11701800000000001,-2.388945,-0.628892,0.052399,-0.025528,0.287308
929,9.29,-0.304489,-1.941281,-0.531468,0.067322,0.011749,0.273468
930,9.3,-0.45936899999999997,-1.481572,-0.383382,0.077972,0.038391,0.254288
931,9.31,-0.563779,-0.9756799999999999,-0.255423,0.080093,0.06288099999999999,0.23191799999999999
932,9.32,-0.529688,-0.586158,-0.129235,0.067322,0.0746,0.21487399999999998
933,9.33,-0.5764670000000001,-0.251644,0.005087999999999995,0.051330999999999995,0.06076,0.201019
934,9.34,-0.492095,0.02778800000000001,0.26314299999999996,0.047073000000000004,0.018143,0.20954899999999999
935,9.35,-0.37048200000000003,0.24971500000000002,0.509243,0.051330999999999995,-0.034058,0.22445700000000002
936,9.36,-0.268394,0.399866,0.822334,0.061996,-0.07666,0.24682600000000002
937,9.37,-0.063861,0.41918,1.130009,0.077972,-0.11714200000000001,0.266006
938,9.38,0.140706,0.392758,1.436521,0.11099200000000001,-0.167206,0.269196
939,9.39,0.308429,0.176593,1.61725,0.162125,-0.213013,0.266006
940,9.4,0.419105,-0.225275,1.696335,0.209,-0.250305,0.25109899999999996
941,9.41,0.452241,-0.633492,1.701632,0.237762,-0.254562,0.225525
942,9.42,0.347747,-0.998207,1.501106,0.23030100000000003,-0.21727,0.19250499999999998
943,9.43,0.094372,-1.3101200000000002,1.324919,0.199417,-0.168274,0.156281
944,9.44,-0.282141,-1.536441,1.123774,0.14721700000000001,-0.106491,0.124329
945,9.45,-0.704126,-1.725596,1.110406,0.084366,-0.02446,0.10407999999999999
946,9.46,-0.979409,-1.7324970000000002,1.2408,0.009795999999999992,0.06715399999999999,0.091309
947,9.47,-1.222099,-1.655431,1.424497,-0.065842,0.16409300000000002,0.075317
948,9.48,-1.439099,-1.491057,1.661154,-0.14573699999999998,0.258896,0.060410000000000005
949,9.49,-1.4245860000000001,-1.286134,1.879563,-0.22244299999999997,0.331329,0.050827
950,9.5,-1.286878,-1.172906,2.034265,-0.295944,0.347321,0.032715
951,9.51,-1.102136,-1.164666,2.19525,-0.374771,0.320679,0.01886
952,9.52,-0.836066,-1.177439,2.160313,-0.449341,0.249313,0.009276999999999999
953,9.53,-0.403215,-0.865901,1.921518,-0.500473,0.136398,0.010345
954,9.54,0.2962690000000001,-0.19901,1.2207569999999999,-0.531357,0.034119,0.015671
955,9.55,0.97055,0.631486,0.5959909999999999,-0.595276,-0.038314999999999995,0.016738999999999997
956,9.56,1.6855369999999998,1.701757,0.361056,-0.693283,-0.029785000000000002,0.011414
957,9.57,2.215785,2.731145,0.371085,-0.723114,0.024535999999999995,-0.017349
958,9.58,2.411005,3.5275839999999996,0.18750799999999998,-0.642151,0.059691999999999995,-0.077011
959,9.59,2.4227090000000002,3.965527,-0.279204,-0.495148,0.066086,-0.146255
960,9.6,2.411851,3.9692559999999997,-0.8848280000000001,-0.336426,-0.003159000000000002,-0.18246500000000002
961,9.61,2.6844759999999996,3.8021849999999997,-1.262014,-0.19261199999999998,-0.146973,-0.178207
962,9.62,3.161379,3.583782,-1.573226,-0.071167,-0.354691,-0.128143
963,9.63,3.70738,3.669946,-1.879488,0.022583,-0.584793,-0.048247999999999985
964,9.64,4.06939,3.7930699999999997,-2.010995,0.057724,-0.7776029999999999,0.029510000000000012
965,9.65,4.2020040000000005,3.862448,-1.7815990000000002,0.018311,-0.857498,0.103027
966,9.66,3.887483,3.7103839999999995,-1.191042,-0.044539999999999996,-0.8585659999999999,0.144562
967,9.67,2.8259529999999997,3.4750199999999998,-0.688489,-0.059448,-0.803177,0.129654
968,9.68,1.316993,3.03329,-0.674427,0.018311000000000008,-0.722214,0.068924
969,9.69,-0.009292999999999996,2.339527,-0.904496,0.161057,-0.61142,0.010345
970,9.7,-1.246833,1.339651,-1.268226,0.315521,-0.481461,-0.05250500000000001
971,9.71,-2.349666,0.054618999999999966,-1.7587419999999998,0.443359,-0.326996,-0.117493
972,9.72,-2.9972090000000002,-1.150117,-2.22682,0.517929,-0.164017,-0.16009500000000002
973,9.73,-3.128556,-2.178152,-2.6294880000000003,0.536026,-0.009552000000000005,-0.178207
974,9.74,-2.584956,-2.926942,-2.869123,0.499817,0.107635,-0.17288199999999998
975,9.75,-1.62127,-3.367774,-2.9815970000000003,0.41246000000000005,0.166214,-0.156906
976,9.76,-0.5363220000000001,-3.507678,-2.7913,0.301682,0.137451,-0.134537
977,9.77,0.381024,-3.413824,-2.303055,0.187698,0.058624,-0.116425
978,9.78,1.0818649999999999,-3.123384,-1.7196650000000002,0.08541900000000001,-0.021271,-0.09938
979,9.79,1.5498530000000001,-2.683853,-1.1451790000000002,0.010864,-0.07559199999999999,-0.082336
980,9.8,2.0660830000000003,-2.126464,-0.668415,-0.038147,-0.091568,-0.067429
981,9.81,2.361913,-1.480521,-0.217849,-0.054123000000000004,-0.072403,-0.06315599999999999
982,9.82,2.3917610000000002,-0.852859,0.07696299999999999,-0.056259,-0.028732,-0.05996699999999999
983,9.83,2.252744,-0.29988899999999996,0.222546,-0.037079,0.035187,-0.051437000000000004
984,9.84,1.9349189999999998,0.065428,0.351506,0.003403,0.101242,-0.043991
985,9.85,1.59127,0.30489499999999997,0.274988,0.057724,0.1577,-0.034393
986,9.86,1.08917,0.34108099999999997,0.207,0.10992400000000001,0.203506,-0.020554
987,9.87,0.679818,0.231334,0.294205,0.15998800000000002,0.241852,-0.013092
988,9.88,0.355615,0.035914,0.374725,0.20047,0.279129,-0.023743
989,9.89,0.04211600000000002,-0.28413299999999997,0.458233,0.22283899999999998,0.311096,-0.053574000000000004
990,9.9,-0.22344899999999998,-0.661241,0.5188159999999999,0.22071799999999997,0.337723,-0.101517
991,9.91,-0.32572399999999996,-1.07356,0.511051,0.202606,0.365417,-0.15904200000000002
992,9.92,-0.050508,-1.7286419999999998,0.522861,0.166382,0.379272,-0.214432
993,9.93,0.421745,-2.501248,0.578492,0.11525,0.378204,-0.284729
994,9.94,0.681868,-2.166214,0.415313,0.047073000000000004,0.357971,-0.306046
995,9.95,0.805592,-0.8348260000000001,0.24901700000000002,-0.034943,0.282333,-0.249588
996,9.96,1.3999190000000001,-0.487079,0.714685,-0.103119,0.166214,-0.18246500000000002
997,9.97,2.1389419999999997,-0.5284479999999999,1.103204,-0.090347,0.084198,-0.134537
998,9.98,2.706064,-0.704769,1.028712,-0.036011,0.034119,-0.105774
999,9.99,3.0548509999999998,-0.703182,0.803261,0.0012659999999999998,-0.039383,-0.08340499999999999
1000,10.0,3.213686,-0.441288,0.758977,-0.0051270000000000005,-0.142715,-0.062103
1001,10.01,3.373422,-0.08541700000000002,0.9576100000000001,-0.034943,-0.218338,-0.054641999999999996
1002,10.02,3.320568,0.14808999999999994,1.195042,-0.065842,-0.248169,-0.071686
1003,10.03,2.918634,0.167071,1.439042,-0.10206599999999999,-0.240707,-0.117493
1004,10.04,2.252825,-0.009932999999999996,1.6811470000000002,-0.134018,-0.20343,-0.157974
1005,10.05,1.646882,-0.13045199999999998,1.7010419999999997,-0.160645,-0.130997,-0.18779
1006,10.06,0.8169029999999999,0.01883600000000001,1.451441,-0.20751999999999998,-0.025528,-0.19632
1007,10.07,-0.18312,0.436039,1.196556,-0.31192,0.09697,-0.181412
1008,10.08,-1.1843700000000001,0.959124,1.2244270000000002,-0.448273,0.186462,-0.147324
1009,10.09,-2.192943,1.368148,1.384264,-0.521774,0.202438,-0.098312
1010,10.1,-2.846813,1.557323,1.351701,-0.481293,0.194977,-0.035461
1011,10.11,-3.160365,1.5330979999999998,0.837414,-0.375839,0.16514600000000002,0.019928
1012,10.12,-3.264597,1.408147,-0.028797000000000017,-0.273575,0.11615,0.05722000000000001
1013,10.13,-3.3013120000000002,1.273942,-1.025527,-0.20005799999999999,0.057555999999999996,0.069992
1014,10.14,-3.0033220000000003,1.254299,-1.768977,-0.184082,-0.002089999999999998,0.049759
1015,10.15,-2.561228,1.499426,-2.002421,-0.22349499999999997,-0.017013999999999998,-0.0013729999999999992
1016,10.16,-2.217499,2.049987,-1.7916330000000003,-0.29274,0.05011,-0.045058999999999995
1017,10.17,-1.878438,2.844588,-1.452551,-0.34494,0.173676,-0.068481
1018,10.18,-1.496053,3.645957,-1.1091309999999999,-0.352402,0.300446,-0.056763
1019,10.19,-1.1251950000000002,4.23739,-0.805013,-0.302338,0.41017200000000004,-0.023743000000000004
1020,10.2,-0.532742,4.423064,-0.511229,-0.211777,0.490051,0.019928
1021,10.21,-0.059209999999999985,4.074795,-0.309397,-0.06797799999999997,0.508163,0.059341
1022,10.22,0.440704,3.279523,-0.450726,0.13443,0.47834799999999994,0.08064299999999999
1023,10.23,0.8016,2.133096,-0.971669,0.351746,0.385666,0.077454
1024,10.24,0.988769,0.7962690000000001,-1.6580150000000002,0.516861,0.24504099999999998,0.055084
1025,10.25,0.897857,-0.439291,-2.32939,0.595688,0.087387,0.025253
1026,10.26,0.712068,-1.4157819999999999,-2.750309,0.582901,-0.053223,0.00502
1027,10.27,0.497965,-2.255815,-2.82502,0.507278,-0.146973,-0.00563
1028,10.28,0.29593600000000003,-2.9051419999999997,-2.572621,0.40820300000000004,-0.190643,-0.008834999999999999
1029,10.29,0.06278600000000001,-3.318144,-2.2364040000000003,0.301682,-0.197037,-0.008834999999999999
1030,10.3,-0.256171,-3.528663,-1.8367639999999998,0.211121,-0.181061,0.007141
1031,10.31,-0.5066069999999999,-3.512483,-1.477833,0.139755,-0.171463,0.034836
1032,10.32,-0.680191,-3.355353,-1.134587,0.090759,-0.16188,0.072128
1033,10.33,-0.766054,-2.974771,-0.8495219999999999,0.050277999999999996,-0.15975999999999999,0.10728499999999999
1034,10.34,-0.8493879999999999,-2.461615,-0.5461060000000001,0.019379,-0.158691,0.13711500000000001
1035,10.35,-0.89894,-1.8892639999999998,-0.187633,0.003403,-0.16188,0.157349
1036,10.36,-0.909328,-1.272884,0.157709,0.003403,-0.16188,0.163742
1037,10.37,-0.8897139999999999,-0.734166,0.364919,0.028961,-0.158691,0.16053800000000001
1038,10.38,-0.80752,-0.250998,0.499057,0.06518600000000001,-0.16188,0.157349
1039,10.39,-0.737853,0.04411100000000001,0.579978,0.106735,-0.167206,0.153091
1040,10.4,-0.7281569999999999,0.246515,0.637007,0.15040599999999998,-0.172531,0.16480999999999998
1041,10.41,-0.6038680000000001,0.409767,0.749659,0.18023699999999998,-0.16508499999999998,0.18717999999999999
1042,10.42,-0.484962,0.418199,0.906114,0.20047,-0.152298,0.20954899999999999
1043,10.43,-0.406817,0.32351199999999997,1.0867,0.22711199999999998,-0.145905,0.234055
1044,10.44,-0.29034899999999997,0.12841,1.18212,0.251602,-0.145905,0.25535599999999997
1045,10.45,-0.21253699999999998,-0.14770999999999998,1.112391,0.281433,-0.155487,0.264938
1046,10.46,-0.211259,-0.47576999999999997,1.072531,0.293152,-0.168274,0.264938
1047,10.47,-0.358709,-0.7956270000000001,0.992449,0.283569,-0.173599,0.257477
1048,10.48,-0.5469350000000001,-1.001309,1.068793,0.251602,-0.18212899999999999,0.24150100000000002
1049,10.49,-0.800617,-1.143789,1.251893,0.212189,-0.166138,0.219131
1050,10.5,-0.9896780000000001,-1.297277,1.52597,0.16745,-0.126724,0.198898
1051,10.51,-1.153007,-1.324856,1.722493,0.10992400000000001,-0.053223,0.180786
1052,10.52,-1.187258,-1.366631,1.8701,0.047073000000000004,0.035187,0.171204
1053,10.53,-1.222305,-1.341813,2.022438,-0.017899,0.133194,0.167999
1054,10.54,-1.12247,-1.2638850000000001,2.139793,-0.069031,0.2099,0.167999
1055,10.55,-0.907533,-1.262779,2.18338,-0.100998,0.270615,0.161606
1056,10.56,-0.531069,-1.23737,2.059604,-0.141479,0.305771,0.150955
1057,10.57,-0.22851799999999997,-1.325576,1.9262830000000002,-0.188339,0.27807600000000005,0.131775
1058,10.58,0.05615400000000001,-1.365715,1.702645,-0.23628200000000002,0.16835,0.106216
1059,10.59,0.368195,-1.17918,1.576476,-0.290619,0.0032350000000000018,0.09024
1060,10.6,0.745795,-0.559563,1.5147389999999998,-0.371567,-0.134186,0.072128
1061,10.61,1.122231,0.322155,1.6019370000000002,-0.483429,-0.223663,0.054015999999999995
1062,10.62,1.503154,1.350178,1.826454,-0.569717,-0.239655,0.025253
1063,10.63,1.729184,2.284232,1.793839,-0.5633239999999999,-0.18212899999999999,-0.020554
1064,10.64,1.6715810000000002,3.006611,1.443391,-0.47383100000000006,-0.090515,-0.07380700000000001
1065,10.65,1.453068,3.3355879999999996,0.691829,-0.34494,0.036255,-0.123886
1066,10.66,1.3213219999999999,3.3456129999999997,-0.28472,-0.19261199999999998,0.138519,-0.17713900000000002
1067,10.67,1.394779,3.200411,-1.271694,-0.037079,0.16409300000000002,-0.235733
1068,10.68,1.473758,3.105323,-2.155186,0.060927999999999996,0.104431,-0.29007
1069,10.69,1.528674,3.269376,-2.683341,0.070511,-0.003159000000000002,-0.313492
1070,10.7,1.847532,3.5741,-2.8965110000000003,0.012984999999999995,-0.10542300000000003,-0.30284099999999997
1071,10.71,2.08615,3.853037,-2.731543,-0.07756,-0.191711,-0.267685
1072,10.72,2.13117,3.9676519999999997,-2.176771,-0.160645,-0.283325,-0.217621
1073,10.73,1.703652,3.765782,-1.260903,-0.169174,-0.364288,-0.156906
1074,10.74,1.020694,3.227056,-0.5988680000000001,-0.082886,-0.38345300000000004,-0.091919
1075,10.75,0.412645,2.4663209999999998,-0.488684,0.079041,-0.350433,-0.038666000000000006
1076,10.76,0.010171999999999988,1.3128259999999998,-0.6017819999999999,0.262253,-0.302505,-0.004578
1077,10.77,-0.309027,0.18246700000000005,-1.062365,0.42311099999999996,-0.24177600000000002,0.007141
1078,10.78,-0.608766,-0.862295,-1.635286,0.530701,-0.167206,0.0007480000000000004
1079,10.79,-0.776575,-1.7776669999999999,-2.283878,0.570114,-0.09902999999999999,-0.008834999999999999
1080,10.8,-0.8755440000000001,-2.403502,-2.727606,0.544556,-0.042572000000000006,-0.015228
1081,10.81,-0.803014,-2.7655990000000004,-3.011843,0.46998599999999996,-0.0031590000000000003,-0.018417
1082,10.82,-0.497802,-2.881033,-3.045791,0.367722,-0.0010220000000000003,-0.022675
1083,10.83,0.04134800000000002,-2.865104,-2.7551959999999998,0.254807,-0.037247,-0.024811
1084,10.84,0.464896,-2.63774,-2.077096,0.16531400000000002,-0.07986499999999999,-0.028014999999999998
1085,10.85,0.755842,-2.33665,-1.398085,0.103531,-0.088379,-0.026947000000000002
1086,10.86,1.026406,-1.9456900000000001,-0.7173509999999998,0.072647,-0.072403,-0.019485
1087,10.87,1.248774,-1.529333,-0.14490399999999998,0.070511,-0.045776,-0.013092
1088,10.88,1.422591,-1.097465,0.22822699999999999,0.09287999999999999,-0.0010219999999999986,-0.0045780000000000005
1089,10.89,1.466782,-0.731627,0.450521,0.13336199999999998,0.041579999999999985,0.00502
1090,10.9,1.370235,-0.493881,0.392406,0.18663,0.076736,0.019928
1091,10.91,1.362458,-0.30747399999999997,0.16401400000000002,0.24201999999999999,0.094849,0.032715
1092,10.92,1.254349,-0.251606,-0.066825,0.286758,0.09059099999999999,0.03804
1093,10.93,1.2303309999999998,-0.248637,-0.142745,0.303802,0.076736,0.045502
1094,10.94,1.038922,-0.31181,-0.055371,0.292084,0.085251,0.03804
1095,10.95,0.8453350000000001,-0.520261,0.26062199999999996,0.253738,0.119354,0.014603
1096,10.96,0.653012,-0.779047,0.600487,0.21539299999999997,0.17686500000000002,-0.023743
1097,10.97,0.559578,-1.398319,0.92245,0.18023699999999998,0.23120100000000002,-0.084473
1098,10.98,0.543118,-2.650575,1.1395110000000002,0.157867,0.269547,-0.17713900000000002
1099,10.99,0.26565300000000003,-2.724459,0.8892180000000001,0.116318,0.288727,-0.23359699999999997
1100,11.0,-0.198518,-1.120969,0.4741310000000001,0.039626999999999996,0.251434,-0.17181400000000002
1101,11.01,0.092125,-1.066401,1.063842,-0.053055,0.091644,-0.12600699999999998
1102,11.02,0.7394689999999999,-1.185989,1.669455,-0.064774,-0.022339,-0.111099
1103,11.03,1.515997,-1.3873719999999998,1.8535259999999998,-0.030685000000000004,-0.091568,-0.112167
1104,11.04,2.0567729999999997,-1.386395,1.644351,-0.016846,-0.148041,-0.131332
1105,11.05,2.430559,-0.9131809999999999,1.451743,-0.061584,-0.201294,-0.153702
1106,11.06,2.666476,-0.542674,1.535959,-0.137207,-0.25882,-0.175018
1107,11.07,2.814756,-0.466893,1.8710959999999999,-0.201126,-0.285446,-0.202713
1108,11.08,2.5669299999999997,-0.580796,2.193593,-0.23628200000000002,-0.28225700000000004,-0.23147600000000002
1109,11.09,1.948214,-0.747646,2.228538,-0.266113,-0.22261,-0.24852
1110,11.1,1.205516,-0.555674,1.919212,-0.302338,-0.13311800000000001,-0.247452
1111,11.11,0.12691699999999995,0.03261900000000001,1.466826,-0.37796,-0.055359000000000005,-0.218689
1112,11.12,-1.154618,0.881351,1.0428549999999999,-0.521774,-0.006348,-0.17713900000000002
1113,11.13,-2.092357,1.7614330000000002,1.0916489999999999,-0.666656,0.024536000000000002,-0.112167
1114,11.14,-2.806027,2.735075,1.226284,-0.678375,0.004303000000000003,-0.021622
1115,11.15,-2.974728,3.145104,0.899115,-0.536682,-0.045776,0.077454
1116,11.16,-2.8066459999999998,2.88475,0.045368999999999986,-0.32150300000000004,-0.134186,0.166931
1117,11.17,-2.586207,2.620882,-1.146142,-0.10951199999999998,-0.278,0.23938
1118,11.18,-2.465103,2.810298,-2.278007,0.005539000000000002,-0.433533,0.269196
1119,11.19,-2.274098,3.314808,-2.770623,-0.037079,-0.526199,0.250031
1120,11.2,-2.155095,4.003097,-2.460454,-0.155319,-0.53685,0.166931
1121,11.21,-2.050291,4.743564,-1.610354,-0.266113,-0.448441,0.055084
1122,11.22,-2.058421,5.066829,-0.4201360000000001,-0.306595,-0.235382,-0.04718
1123,11.23,-1.8530669999999998,5.009171,0.46194300000000005,-0.250137,0.055435000000000005,-0.104706
1124,11.24,-1.3693899999999999,4.392735,0.801986,-0.122299,0.326004,-0.11323499999999999
1125,11.25,-0.988917,3.5393220000000003,0.53088,0.072647,0.506042,-0.089798
1126,11.26,-0.534706,2.272641,-0.18084500000000006,0.29422,0.5625,-0.058899
1127,11.27,0.012409000000000005,0.768992,-1.0433620000000001,0.505142,0.48793000000000003,-0.043991
1128,11.28,0.47518299999999997,-0.807512,-1.920467,0.658539,0.329208,-0.046112
1129,11.29,0.745315,-2.157316,-2.7814919999999996,0.723526,0.147049,-0.050385
1130,11.3,0.813335,-3.062608,-3.402244,0.674515,-0.02020300000000001,-0.061035
1131,11.31,0.759,-3.5618230000000004,-3.549263,0.545624,-0.148041,-0.067429
1132,11.32,0.62615,-3.7878190000000003,-3.285203,0.396484,-0.23219299999999998,-0.070618
1133,11.33,0.318789,-3.853886,-2.789196,0.256927,-0.27374299999999996,-0.072754
1134,11.34,-0.021317000000000003,-3.7513339999999995,-2.1532970000000002,0.14827,-0.275864,-0.061035
1135,11.35,-0.423903,-3.3793889999999998,-1.491007,0.068375,-0.250305,-0.028014999999999998
1136,11.36,-0.659203,-2.85447,-0.847773,0.020447,-0.213013,0.01886
1137,11.37,-0.794341,-2.252042,-0.318253,0.011917,-0.18318199999999998,0.065735
1138,11.38,-0.833809,-1.596375,0.042852999999999995,0.031097000000000003,-0.176804,0.10407999999999999
1139,11.39,-0.811665,-0.947553,0.179571,0.06518600000000001,-0.17999300000000001,0.131775
1140,11.4,-0.831993,-0.389785,0.20010799999999998,0.102478,-0.191711,0.15416
1141,11.41,-0.8655299999999999,-0.12411300000000001,0.27074000000000004,0.13761900000000002,-0.202362,0.162674
1142,11.42,-0.8574309999999999,-0.072027,0.409969,0.16745,-0.211945,0.171204
1143,11.43,-0.816734,-0.08415299999999999,0.597645,0.18449400000000002,-0.21621700000000002,0.162674
1144,11.44,-0.690308,-0.25390300000000005,0.815808,0.18663,-0.219406,0.14562999999999998
1145,11.45,-0.544675,-0.42013999999999996,1.055999,0.18556199999999998,-0.22047399999999998,0.129654
1146,11.46,-0.331985,-0.622939,1.16442,0.18981900000000002,-0.2258,0.120071
1147,11.47,-0.253788,-0.820457,1.1897149999999999,0.198349,-0.249237,0.114731
1148,11.48,-0.105645,-0.990562,1.201777,0.194077,-0.267349,0.120071
1149,11.49,0.16966000000000006,-1.1451280000000001,1.270151,0.173843,-0.24498000000000003,0.125397
1150,11.5,0.28174699999999997,-1.315242,1.276685,0.15466300000000002,-0.21514899999999998,0.11686700000000001
1151,11.51,0.166629,-1.370026,1.217219,0.13868699999999998,-0.19278,0.095566
1152,11.52,-0.129131,-1.321094,1.048035,0.126968,-0.162949,0.066803
1153,11.53,-0.584548,-1.091709,0.9607600000000001,0.108856,-0.116074,0.035904000000000005
1154,11.54,-1.175802,-0.793331,0.925185,0.080093,-0.041504,0.006087999999999998
1155,11.55,-1.747565,-0.491126,0.984196,0.023636000000000004,0.057555999999999996,-0.006698999999999999
1156,11.56,-2.191009,-0.287748,1.331708,-0.055191,0.159821,-0.002441
1157,11.57,-2.37701,-0.22759899999999997,1.8804130000000001,-0.14041099999999998,0.265289,0.013534999999999998
1158,11.58,-2.340968,-0.385753,2.431436,-0.20005799999999999,0.362228,0.031647
1159,11.59,-2.072858,-0.761203,2.7664470000000003,-0.238419,0.426147,0.061478
1160,11.6,-1.446364,-1.084043,2.781268,-0.271439,0.421875,0.087036
1161,11.61,-0.7528130000000001,-1.459908,2.456297,-0.32150300000000004,0.31961100000000003,0.095566
1162,11.62,0.12823199999999998,-1.55748,2.075599,-0.387558,0.120407,0.083847
1163,11.63,1.046794,-1.110933,1.604671,-0.445068,-0.144836,0.066803
1164,11.64,1.929713,-0.18787599999999996,1.0638450000000002,-0.5153810000000001,-0.384521,0.050827
1165,11.65,2.890359,1.142039,1.032825,-0.59314,-0.513428,0.013534999999999998
1166,11.66,3.5459169999999998,2.451743,1.369848,-0.633621,-0.469742,-0.07380700000000001
1167,11.67,3.356939,3.442746,1.482308,-0.565445,-0.331253,-0.188858
1168,11.68,2.392141,3.977904,0.8460489999999999,-0.42057799999999995,-0.175735,-0.292191
1169,11.69,1.403245,3.8956910000000002,-0.18941600000000006,-0.250137,-0.048964999999999995,-0.34971599999999997
1170,11.7,1.0619020000000001,3.4003089999999996,-1.201307,-0.10206599999999999,-0.013809,-0.35078400000000004
1171,11.71,1.147976,2.8592619999999997,-1.933643,0.0001980000000000037,-0.110748,-0.29007
1172,11.72,1.212885,2.564289,-2.571431,0.039626999999999996,-0.296112,-0.176086
1173,11.73,1.392555,2.686229,-2.891569,0.015121000000000002,-0.48466499999999996,-0.032272000000000016
1174,11.74,1.631414,3.0345880000000003,-2.841519,-0.039215,-0.635925,0.10835299999999999
1175,11.75,1.720215,3.421289,-2.628247,-0.086075,-0.710495,0.20634499999999997
1176,11.76,1.482811,3.6508059999999998,-2.297129,-0.105255,-0.6859890000000001,0.23298600000000003
1177,11.77,1.000091,3.527246,-1.9157330000000001,-0.079697,-0.547516,0.194626
1178,11.78,0.597032,3.082398,-1.596508,0.0001979999999999968,-0.34617600000000004,0.11793499999999998
1179,11.79,0.015803999999999985,2.197582,-1.3947,0.12803599999999998,-0.148041,0.026321
1180,11.8,-0.599538,1.1102969999999999,-1.2871299999999999,0.249481,0.039458999999999994,-0.057831000000000014
1181,11.81,-0.9834139999999999,0.00990599999999997,-1.3252979999999999,0.320847,0.226944,-0.117493
1182,11.82,-1.216318,-1.004156,-1.450013,0.32724000000000003,0.404831,-0.131332
1183,11.83,-1.035048,-1.852639,-1.5315,0.278244,0.5294800000000001,-0.10257000000000001
1184,11.84,-0.466042,-2.4579470000000003,-1.554381,0.196213,0.572083,-0.064224
1185,11.85,0.004522999999999999,-2.805655,-1.543134,0.11099200000000001,0.507111,-0.024811
1186,11.86,0.44421700000000003,-2.9857139999999998,-1.400618,0.044952,0.38353000000000004,0.014603000000000003
1187,11.87,1.038303,-3.121801,-1.154577,0.005538999999999999,0.24291999999999997,0.049759
1188,11.88,1.3713540000000002,-3.098497,-0.859089,-0.013641,0.128937,0.07106
1189,11.89,1.5679459999999998,-3.035151,-0.640143,-0.013641,0.06501799999999999,0.087036
1190,11.9,1.618862,-2.730601,-0.549629,-0.021103,0.034119,0.091309
1191,11.91,1.484715,-2.358486,-0.45278599999999997,-0.037079,0.040512,0.088104
1192,11.92,1.3350790000000001,-1.932133,-0.444776,-0.057312,0.07034299999999999,0.08064299999999999
1193,11.93,1.180863,-1.516787,-0.448684,-0.07649199999999999,0.127869,0.075317
1194,11.94,1.053606,-1.0759809999999999,-0.41053199999999995,-0.090347,0.19178800000000001,0.067871
1195,11.95,0.916428,-0.7544850000000001,-0.278463,-0.092468,0.267426,0.05722000000000001
1196,11.96,0.7464310000000001,-0.507309,0.01518,-0.085022,0.343048,0.036972000000000005
1197,11.97,0.609089,-0.30932600000000005,0.3213079999999999,-0.062653,0.397385,0.020996
1198,11.98,0.534171,-0.170043,0.691345,-0.036011,0.43998699999999996,-0.006698999999999999
1199,11.99,0.492388,-0.153358,1.087721,0.0012659999999999998,0.47621199999999997,-0.048248
1200,12.0,0.657012,-0.6336510000000001,1.3860729999999999,0.039626999999999996,0.494324,-0.10790999999999999
1201,12.01,0.94601,-1.448022,1.481226,0.066254,0.494324,-0.195251
1202,12.02,0.875977,-1.223266,1.212365,0.049210000000000004,0.48367299999999996,-0.24212600000000004
1203,12.03,0.346893,0.05195599999999995,0.944716,-0.027496,0.384598,-0.188858
1204,12.04,0.47109399999999996,-0.025985000000000008,1.740723,-0.088211,0.27594,-0.11323499999999999
1205,12.05,1.040356,-0.437903,2.070837,-0.042404000000000004,0.24078400000000003,-0.053574000000000004
1206,12.06,1.61332,-0.8623879999999999,1.7957349999999999,0.041748,0.23439000000000002,-0.015228000000000004
1207,12.07,1.8524189999999998,-1.009227,1.444633,0.079041,0.183258,0.011414
1208,12.08,2.0971919999999997,-0.9591049999999999,1.305756,0.052399,0.101242,0.026320999999999997
1209,12.09,2.3690290000000003,-1.020865,1.488804,0.003403,0.021347,0.013535
1210,12.1,2.574243,-1.16788,1.760391,-0.043472000000000004,-0.039383,-0.022675
1211,12.11,2.3847560000000003,-1.3375629999999998,2.063907,-0.11271700000000001,-0.069199,-0.08126799999999999
1212,12.12,2.057426,-1.473953,2.155944,-0.201126,-0.042572000000000006,-0.138794
1213,12.13,1.495607,-1.244801,1.9180169999999999,-0.30445900000000004,-0.004227000000000001,-0.185669
1214,12.14,0.42283,-0.459366,1.352127,-0.445068,-0.0020900000000000003,-0.184601
1215,12.15,-0.706809,0.7179399999999999,0.9934120000000001,-0.642151,-0.036179,-0.144119
1216,12.16,-1.403469,2.109497,1.367597,-0.808334,-0.12460299999999999,-0.064224
1217,12.17,-1.699111,3.212621,2.199783,-0.822174,-0.22047399999999998,0.045502
1218,12.18,-1.489374,3.6384440000000002,2.493148,-0.636826,-0.22261,0.148819
1219,12.19,-1.181418,3.390826,1.831982,-0.312988,-0.156555,0.219131
1220,12.2,-1.432231,2.966612,0.33318200000000003,0.0012659999999999894,-0.07986499999999999,0.243637
1221,12.21,-1.816631,2.43249,-1.354377,0.172775,-0.058548,0.21700999999999998
1222,12.22,-2.202438,2.126996,-2.525961,0.169586,-0.081985,0.129654
1223,12.23,-2.5057259999999997,2.233356,-2.978118,0.041747999999999987,-0.090515,-0.0024409999999999987
1224,12.24,-2.8349130000000002,2.599796,-2.910316,-0.129761,-0.048965000000000015,-0.149445
1225,12.25,-2.998854,2.98719,-2.284523,-0.279953,0.08206199999999997,-0.259171
1226,12.26,-2.615199,3.269782,-1.3575700000000002,-0.355591,0.281265,-0.299652
1227,12.27,-1.8397330000000003,3.5433800000000004,-0.50851,-0.32576,0.46556099999999995,-0.269821
1228,12.28,-1.161473,3.648132,-0.169848,-0.170242,0.584869,-0.203781
1229,12.29,-0.539275,3.204398,-0.20313499999999998,0.06944299999999999,0.6360020000000001,-0.138794
1230,12.3,0.092099,2.073914,-0.62773,0.334702,0.600845,-0.089798
1231,12.31,0.6584949999999999,0.7023159999999999,-1.518047,0.5498810000000001,0.49325600000000003,-0.05571
1232,12.32,0.878552,-0.662783,-2.431742,0.644684,0.327072,-0.045058999999999995
1233,12.33,0.858735,-1.60941,-3.01722,0.616989,0.16621399999999995,-0.045058999999999995
1234,12.34,0.607305,-2.152872,-3.284464,0.500885,0.027739999999999997,-0.03653
1235,12.35,0.254284,-2.3359360000000002,-3.0737959999999998,0.336823,-0.070267,-0.025879000000000003
1236,12.36,-0.045150000000000017,-2.294057,-2.561444,0.170654,-0.129929,-0.0045780000000000005
1237,12.37,-0.23218699999999998,-2.197943,-1.793294,0.046005000000000004,-0.140579,0.027389999999999998
1238,12.38,-0.291158,-2.188283,-1.020859,-0.02536,-0.110748,0.048691000000000005
1239,12.39,-0.343434,-2.055863,-0.40602699999999997,-0.041336000000000005,-0.083054,0.063599
1240,12.4,-0.267779,-1.906025,0.07223199999999999,-0.021103,-0.061752,0.07106
1241,12.41,-0.140692,-1.6902650000000001,0.382374,0.032166,-0.042572000000000006,0.067871
1242,12.42,-0.133425,-1.515388,0.43363900000000005,0.106735,-0.018066,0.058273
1243,12.43,-0.171809,-1.4314149999999999,0.35168499999999997,0.17491099999999998,0.011749,0.052948
1244,12.44,-0.288408,-1.42767,0.139275,0.21539299999999997,0.033066000000000005,0.043365
1245,12.45,-0.458764,-1.439581,-0.070489,0.21965,0.044785000000000005,0.027389999999999998
1246,12.46,-0.738173,-1.477882,-0.10480199999999999,0.18556199999999998,0.027739999999999997,0.001816
1247,12.47,-0.9469129999999999,-1.454374,0.034057999999999984,0.12271099999999999,-0.0031590000000000003,-0.019485
1248,12.48,-1.099628,-1.317555,0.37764699999999995,0.042816,-0.036179,-0.025879000000000003
1249,12.49,-1.176094,-1.121701,0.820709,-0.024291999999999998,-0.059615999999999995,-0.017349
1250,12.5,-1.131311,-0.858397,1.25181,-0.057312,-0.06601,0.013535000000000002
1251,12.51,-0.920954,-0.663397,1.669774,-0.050934,-0.038314999999999995,0.058273
1252,12.52,-0.8023020000000001,-0.648709,1.987206,-0.012573,0.018143,0.106216
1253,12.53,-0.758641,-0.605476,2.112006,0.035355000000000004,0.086319,0.141373
1254,12.54,-0.800505,-0.7020460000000001,2.023259,0.064117,0.1577,0.16480999999999998
1255,12.55,-0.9214889999999999,-0.913869,1.8788189999999998,0.07157899999999999,0.218414,0.166931
1256,12.56,-1.070295,-1.134593,1.617367,0.06304900000000001,0.266357,0.157349
1257,12.57,-1.1594149999999999,-1.3084559999999998,1.418598,0.037491000000000003,0.313232,0.144562
1258,12.58,-1.1982760000000001,-1.4969540000000001,1.33018,0.004470999999999999,0.36116,0.141373
1259,12.59,-1.149601,-1.6749439999999998,1.352154,-0.041336000000000005,0.412292,0.149887
1260,12.6,-0.943844,-1.893735,1.39473,-0.087143,0.43573,0.17546099999999998
1261,12.61,-0.6966060000000001,-2.0648779999999998,1.475179,-0.13295,0.44319200000000003,0.199966
1262,12.62,-0.38868,-2.119196,1.447091,-0.1745,0.406967,0.23298600000000003
1263,12.63,0.024690999999999963,-1.984733,1.2030290000000001,-0.202194,0.30256700000000003,0.247894
1264,12.64,0.608117,-1.269995,0.7478279999999999,-0.23735,0.133194,0.24682600000000002
1265,12.65,1.252014,-0.08469300000000002,0.31371,-0.309784,-0.055359000000000005,0.21700999999999998
1266,12.66,2.045737,1.376631,0.603705,-0.434418,-0.21621700000000002,0.181854
1267,12.67,2.921922,3.052016,1.611327,-0.554794,-0.23219299999999998,0.12645
1268,12.68,3.318863,4.425029,2.45909,-0.5750430000000001,-0.07559199999999999,0.040175999999999996
1269,12.69,3.05246,5.259048,2.496916,-0.451462,0.117218,-0.067429
1270,12.7,2.320354,5.445701000000001,1.4876690000000001,-0.261856,0.292984,-0.143051
1271,12.71,2.085465,5.0699629999999996,0.002734000000000014,-0.0914,0.413361,-0.17181400000000002
1272,12.72,2.14128,4.5904300000000005,-1.166757,0.028961,0.400574,-0.170746
1273,12.73,2.542224,4.261883,-1.880005,0.100342,0.287659,-0.157974
1274,12.74,2.798812,3.884576,-2.254584,0.124847,0.100174,-0.129211
1275,12.75,2.55471,3.4854239999999996,-2.285927,0.12271099999999999,-0.11821,-0.086594
1276,12.76,2.212641,3.116493,-2.183141,0.11845399999999999,-0.28225700000000004,-0.032272
1277,12.77,1.677098,2.677033,-2.120746,0.14827,-0.379196,0.008209000000000001
1278,12.78,1.009291,2.086033,-2.079275,0.214325,-0.446304,0.034836
1279,12.79,0.4101300000000001,1.4421389999999998,-2.157546,0.291016,-0.473999,0.051879999999999996
1280,12.8,-0.1205,0.694068,-2.2194689999999997,0.33576999999999996,-0.463348,0.065735
1281,12.81,-0.45245,0.03074299999999996,-2.1794569999999998,0.347488,-0.399429,0.08596799999999999
1282,12.82,-0.688868,-0.558995,-2.104275,0.332565,-0.280121,0.113678
1283,12.83,-0.7041189999999999,-1.338806,-2.046945,0.289963,-0.068146,0.144562
1284,12.84,-0.605631,-1.695587,-2.0218220000000002,0.24841300000000002,0.055435000000000005,0.153091
1285,12.85,-0.342327,-1.932388,-1.9340119999999998,0.18556199999999998,0.155563,0.156281
1286,12.86,-0.015418999999999988,-2.045248,-1.7432560000000001,0.11738599999999999,0.22055100000000002,0.138168
1287,12.87,0.384303,-2.121235,-1.473926,0.060927999999999996,0.263153,0.10940599999999999
1288,12.88,0.560404,-2.159414,-1.100352,0.030029000000000004,0.282333,0.069992
1289,12.89,0.661791,-2.073691,-0.701951,0.022583000000000002,0.304703,0.035904000000000005
1290,12.9,0.750451,-2.0026040000000003,-0.35141700000000003,0.037491000000000003,0.338791,0.016738999999999997
1291,12.91,0.7969649999999999,-1.847738,-0.197917,0.06304900000000001,0.367554,0.0060880000000000005
1292,12.92,0.750151,-1.6672529999999999,-0.152422,0.084366,0.385666,0.012466
1293,12.93,0.626799,-1.541784,-0.22237800000000002,0.100342,0.39311199999999996,0.022064
1294,12.94,0.5214989999999999,-1.41977,-0.393394,0.108856,0.37606799999999996,0.034836
1295,12.95,0.438222,-1.3291309999999998,-0.481282,0.108856,0.34198,0.046555
1296,12.96,0.504423,-1.244734,-0.42856000000000005,0.11845399999999999,0.30256700000000003,0.051879999999999996
1297,12.97,0.6601100000000001,-1.1516389999999999,-0.318748,0.12271099999999999,0.280197,0.045502
1298,12.98,0.8059529999999999,-1.062373,-0.22956100000000002,0.129105,0.273804,0.027389999999999998
1299,12.99,0.8940239999999999,-0.861023,0.0025379999999999986,0.129105,0.290848,-0.003509999999999999
1300,13.0,0.9578209999999999,-0.744933,0.166498,0.120575,0.332397,-0.03653
1301,13.01,1.099644,-0.826192,0.352376,0.10992400000000001,0.379272,-0.074875
1302,13.02,1.299887,-1.307252,0.585915,0.10141,0.414429,-0.143051
1303,13.03,1.629902,-2.300079,0.767571,0.077972,0.421875,-0.210175
1304,13.04,1.3531870000000001,-1.7522080000000002,0.544532,0.030029000000000007,0.43147299999999994,-0.22934000000000002
1305,13.05,0.717138,0.11832699999999985,0.46329499999999996,-0.07223500000000001,0.34944200000000003,-0.124954
1306,13.06,0.849816,0.0032270000000000076,1.532885,-0.175568,0.24078400000000003,-0.06636
1307,13.07,1.304974,-0.45972399999999997,2.186318,-0.15745499999999998,0.22055100000000002,-0.04718
1308,13.08,1.58804,-1.153929,2.130271,-0.086075,0.204575,-0.054641999999999996
1309,13.09,1.566605,-1.645491,1.8721419999999998,-0.055191,0.155563,-0.077011
1310,13.1,1.458992,-1.871446,1.7147270000000001,-0.092468,0.10656700000000001,-0.089798
1311,13.11,1.411108,-2.008945,1.80377,-0.158524,0.073547,-0.105774
1312,13.12,1.246543,-2.2086509999999997,1.924682,-0.20965599999999998,0.066086,-0.138794
1313,13.13,0.9985879999999999,-2.220716,1.8456569999999999,-0.255463,0.09059099999999999,-0.170746
1314,13.14,0.6284649999999999,-1.9223990000000002,1.543979,-0.327896,0.136398,-0.198456
1315,13.15,-0.12757400000000002,-0.745884,0.995188,-0.469574,0.155563,-0.199509
1316,13.16,-1.170036,1.155693,1.155852,-0.698608,0.11296099999999999,-0.141998
1317,13.17,-1.892834,3.1703200000000002,2.407002,-0.9297639999999999,0.06395,-0.05571
1318,13.18,-2.473853,5.015291,3.579518,-0.986237,0.011749,0.020996000000000008
1319,13.19,-2.271617,5.964752,3.872548,-0.7976840000000001,-0.03511,0.10407999999999999
1320,13.2,-1.528131,5.649396,2.6278349999999997,-0.449341,-0.08519,0.165863
1321,13.21,-1.61612,4.552398999999999,0.6395330000000001,-0.102066,-0.115005,0.176529
1322,13.22,-1.890883,3.30522,-1.150293,0.11099200000000001,-0.10328699999999999,0.147766
1323,13.23,-2.2542299999999997,2.231627,-2.384314,0.183426,-0.07772799999999999,0.07638500000000001
1324,13.24,-2.597276,1.707111,-3.175826,0.15466300000000002,-0.025528,0.003951999999999997
1325,13.25,-2.529541,1.562547,-3.462872,0.04068,0.077805,-0.049316000000000006
1326,13.26,-2.3161549999999997,1.5714620000000001,-3.257174,-0.11271700000000001,0.229065,-0.07380700000000001
1327,13.27,-1.8285040000000001,1.790471,-2.707265,-0.23521399999999998,0.387787,-0.061035
1328,13.28,-1.0909149999999999,2.162848,-2.052793,-0.275696,0.535858,-0.025879000000000003
1329,13.29,-0.20629699999999998,2.405327,-1.527895,-0.228821,0.638138,-0.0003049999999999997
1330,13.3,0.518224,2.261371,-1.31402,-0.115906,0.673279,-0.0077670000000000005
1331,13.31,0.963792,1.8802849999999998,-1.3832719999999998,0.016190000000000003,0.612564,-0.038666000000000006
1332,13.32,1.0983479999999999,1.292858,-1.662004,0.121643,0.45491000000000004,-0.070618
1333,13.33,0.96641,0.818144,-2.068018,0.182358,0.23120100000000002,-0.095123
1334,13.34,0.6040369999999999,0.436543,-2.263289,0.172775,0.005371000000000001,-0.105774
1335,13.35,0.285094,-0.08737900000000001,-2.075158,0.12271099999999999,-0.166138,-0.10257000000000001
1336,13.36,0.082058,-0.706657,-1.7351439999999998,0.08223,-0.268402,-0.07914700000000001
1337,13.37,-0.070492,-1.192067,-1.4402629999999998,0.066254,-0.317413,-0.049316000000000006
1338,13.38,-0.155407,-1.659677,-1.170736,0.07157899999999999,-0.32806399999999997,-0.017349
1339,13.39,-0.13259100000000001,-1.9802560000000002,-1.054258,0.102478,-0.326996,0.011414
1340,13.4,-0.093112,-2.25304,-0.935534,0.156799,-0.318481,0.028457999999999997
1341,13.41,-0.029635,-2.426823,-0.8194100000000001,0.21006799999999998,-0.29823299999999997,0.031647
1342,13.42,-0.023008,-2.5619099999999997,-0.745556,0.24734499999999998,-0.25882,0.022064
1343,13.43,-0.13688499999999998,-2.620336,-0.734599,0.257996,-0.234314,0.0071410000000000015
1344,13.44,-0.314203,-2.514752,-0.7931020000000001,0.249481,-0.22154200000000002,-0.004578
1345,13.45,-0.453866,-2.377353,-0.881548,0.21858200000000003,-0.235382,-0.002441
1346,13.46,-0.49619399999999997,-2.104645,-0.8823209999999999,0.177032,-0.28118899999999997,0.003952000000000001
1347,13.47,-0.47305600000000003,-1.8583740000000002,-0.728279,0.13656600000000002,-0.351501,0.019928
1348,13.48,-0.403625,-1.602057,-0.5253760000000001,0.10141,-0.433533,0.043365
1349,13.49,-0.248831,-1.328738,-0.204702,0.073715,-0.520874,0.064667
1350,13.5,-0.053144000000000004,-1.014646,0.28270300000000004,0.057724,-0.6060939999999999,0.081711
1351,13.51,0.138006,-0.73361,0.805292,0.066254,-0.694519,0.094498
1352,13.52,0.24029699999999998,-0.519957,1.3029309999999998,0.091812,-0.766953,0.105148
1353,13.53,0.25147800000000003,-0.388025,1.6957520000000001,0.13761900000000002,-0.819153,0.115799
1354,13.54,0.06393400000000002,-0.39458899999999997,1.878479,0.193024,-0.840454,0.129654
1355,13.55,-0.316641,-0.532165,1.9208880000000002,0.25054899999999997,-0.84259,0.141373
1356,13.56,-0.820608,-0.769621,1.868165,0.282501,-0.8202209999999999,0.150955
1357,13.57,-1.27365,-0.96649,1.778957,0.283569,-0.7765350000000001,0.165863
1358,13.58,-1.576782,-1.034626,1.742862,0.25267,-0.736053,0.17865
1359,13.59,-1.6530049999999998,-1.177784,1.7707669999999998,0.204742,-0.701965,0.188248
1360,13.6,-1.465209,-1.374187,1.857692,0.14294400000000002,-0.693451,0.19783
1361,13.61,-0.971225,-1.7119209999999998,1.883276,0.068375,-0.723282,0.21487399999999998
1362,13.62,-0.3808540000000001,-2.118214,1.7819169999999998,-0.018966999999999998,-0.824478,0.23298600000000003
1363,13.63,0.286814,-2.421136,1.58483,-0.123367,-0.9853360000000001,0.242569
1364,13.64,0.929776,-2.2932650000000003,1.3070620000000002,-0.23948699999999998,-1.210098,0.234055
1365,13.65,1.52348,-1.452951,1.1745860000000001,-0.375839,-1.430618,0.19783
1366,13.66,2.282552,0.0013490000000001554,1.204712,-0.498337,-1.5520479999999999,0.147766
1367,13.67,3.059909,1.8499700000000001,1.236884,-0.566513,-1.511566,0.054015999999999995
1368,13.68,3.185361,3.609492,1.120891,-0.572906,-1.353912,-0.098312
1369,13.69,2.245372,4.763783,0.786097,-0.49408,-1.1887969999999999,-0.26663200000000004
1370,13.7,0.9405049999999999,5.0966190000000005,0.11246099999999998,-0.366241,-1.034332,-0.404053
1371,13.71,0.031776000000000026,4.844995,-0.6590090000000001,-0.21391300000000002,-0.9640200000000001,-0.473282
1372,13.72,0.02252900000000001,4.451525,-1.3853229999999999,-0.07223500000000001,-1.010895,-0.47860699999999995
1373,13.73,0.395222,4.256579,-2.0241990000000003,0.005538999999999999,-1.150452,-0.43493699999999996
1374,13.74,0.864915,4.123343,-2.266553,0.023636,-1.3528440000000002,-0.359299
1375,13.75,1.349011,3.9851059999999996,-2.216356,0.025772000000000003,-1.558441,-0.27302600000000005
1376,13.76,1.823248,3.821814,-2.197418,0.057724,-1.744873,-0.217621
1377,13.77,2.248062,3.4285949999999996,-2.1490110000000002,0.1259,-1.907852,-0.214432
1378,13.78,2.474726,2.8062650000000002,-2.2024060000000003,0.20686300000000002,-2.0154419999999997,-0.251709
1379,13.79,2.290175,2.091752,-2.2248959999999998,0.273972,-2.083618,-0.298584
1380,13.8,1.6630919999999998,1.219578,-2.202578,0.309128,-2.1038669999999997,-0.322021
1381,13.81,0.9650549999999999,0.419425,-2.14399,0.30700700000000003,-2.08255,-0.313492
1382,13.82,0.366705,-0.37349,-2.049929,0.282501,-2.044205,-0.291122
1383,13.83,-0.130414,-1.000033,-1.9267150000000002,0.234558,-1.984543,-0.26236
1384,13.84,-0.423455,-1.445335,-1.780966,0.155731,-1.9185029999999998,-0.241058
1385,13.85,-0.486962,-1.827964,-1.519285,0.060927999999999996,-1.865234,-0.24212600000000004
