,ts,ax,ay,az,wx,wy,wz
0,0.0,-0.06855284329893604,0.2980284827174527,-6.555658131050158,-0.06591431521335198,-0.009652557429711578,0.11698692020417414
1,0.01,-0.013786586708978393,0.06491319948773161,-1.2897168413956983,-0.052496180453449864,-0.006677905961282105,0.10559960698278324
2,0.02,0.018360538474062004,-0.07729049326913448,1.847385716183227,-0.039106132635185434,-0.0034401569712401233,0.08911282226016498
3,0.03,0.03444064906452469,-0.15137770489600882,3.4234627757356986,-0.02573333595702292,-4.0812166874398294e-05,0.06949391662355636
4,0.04,0.04048122841754584,-0.17846884825072395,3.89561263517044,-0.018272735645314626,0.0021728430513775986,0.059812101082007026
5,0.05,0.03892157613922792,-0.17133994570269462,3.6278625529493573,-0.014139189422620484,0.0037192583572064775,0.05572232514544415
6,0.06,0.0319237211550456,-0.14074589913654356,2.9043184595284,-0.010005643199926348,0.005265673663035354,0.05163254920888129
7,0.07,0.021962878048434213,-0.09732970099240877,1.9418305787591557,-0.005872096977232212,0.0068120889688642345,0.04754277327231842
8,0.08,0.010887598482428214,-0.04905403581820518,0.9015898664438762,-0.0017385507545380726,0.008358504274693111,0.043452997335755535
9,0.09,8.250138791566705e-05,-0.001977994728462787,-0.10081502795940023,0.009411811391018616,0.010492295882696588,0.028576241273367917
10,0.1,-0.00952680555070304,0.039868392014248195,-0.9872178810512375,0.03514885491316642,0.013847135764186176,-0.0087246803707835
11,0.11,-0.017596424321041144,0.07381594586647919,-1.7109386220742886,0.05114305102987382,0.014094509217284184,-0.029135821414906636
12,0.12,-0.0237329640445357,0.0992200367953541,-2.246391477060336,0.05732007165412883,0.011210709411177744,-0.03252832988895511
13,0.13,-0.027246892627431064,0.11637837079917158,-2.5859628019295258,0.06449766320661758,0.012073827241680352,-0.03580120176990705
14,0.14,-0.02852005853510416,0.1252573999000137,-2.7365635284562586,0.07280401119463878,0.017163889186178394,-0.038939110130960165
15,0.15,-0.028991293246363608,0.12706689892493245,-2.7141579586496456,0.0789524347695821,0.016962346394417474,-0.038887614311481564
16,0.16,-0.028053020269777195,0.12238589220874296,-2.5421858290863444,0.08391420059226247,0.013850913087429207,-0.03708224278950351
17,0.17,-0.024686398085782303,0.11094852239097085,-2.2477829283187942,0.08740752385273444,0.01401360792017421,-0.03296483488379666
18,0.18,-0.01982386962020069,0.09431482952169488,-1.859595163083018,0.08931639453568835,0.017709093822610614,-0.026352734913318014
19,0.19,-0.01587950926468533,0.07534986450892484,-1.4054756344649735,0.08865296734568033,0.015328182679172903,-0.016832904503772714
20,0.2,-0.011698417006809743,0.05444044790707175,-0.9139179004613476,0.08680391564300692,0.010146536301296505,-0.005972841875782522
21,0.21,-0.006518873328325011,0.032205425653531496,-0.410387311653414,0.081943499019801,0.008836503787501324,0.005407581218672157
22,0.22,-0.001135270797925407,0.009512035917914115,0.08271234821800699,0.0755606247929895,0.009483845461538834,0.017051083272233702
23,0.23,0.003432232294223056,-0.012043770632830915,0.546633141820071,0.06639560585298739,0.008031835201091641,0.026998032647688425
24,0.24,0.007752756911158676,-0.03265376692462589,0.9653752241560302,0.05591592009151145,0.005587803094412464,0.03614329780225597
25,0.25,0.012019900732442666,-0.0516768759874791,1.3268772737007735,0.047994266701252807,0.003743254048428028,0.04551641714363329
26,0.26,0.015903374647251074,-0.06860907748251033,1.6223377763276947,0.04169710607257165,0.002279410072381197,0.05503423656047973
27,0.27,0.019033898888296055,-0.08259484525320246,1.8462070306160008,0.033660616825254536,0.0015661350992507408,0.06618911596750855
28,0.28,0.02092735294014533,-0.09265246351972675,1.9962391189708857,0.02088638536904845,-0.0001838938715188049,0.07418425413377262
29,0.29,0.02200536761191868,-0.09958644111932533,2.0727356103005103,0.004849942002422242,-0.0040358147378854676,0.07657156427929826
30,0.3,0.02322409974970581,-0.10373458867851289,2.0781223458496187,-0.008414643917189872,-0.006477138950565468,0.0793925873501771
31,0.31,0.024134326376795117,-0.10467817133745105,2.0171140835512302,-0.01798385105653169,-0.0070378870365152765,0.0827918268595693
32,0.32,0.023357518629881092,-0.10174631811807472,1.8961407804010244,-0.02989276410047204,-0.00932553569394549,0.08521432762207852
33,0.33,0.021471351837957564,-0.09563617441279271,1.7227093292038531,-0.0441413830490109,-0.013340084922856115,0.08666008963770479
34,0.34,0.01951555585427592,-0.08736847929078678,1.5052939018209792,-0.0554659128063867,-0.01607408867917981,0.08353621606220625
35,0.35,0.017275247539175555,-0.077077125693777,1.2528331490021443,-0.06386284235896185,-0.01752600938580321,0.07583722004076066
36,0.36,0.014305968105590915,-0.064761709254858,0.9744085138684444,-0.07302842545707318,-0.018984592837015608,0.07229498636848324
37,0.37,0.010930576205750353,-0.05113528863707796,0.6794241624019507,-0.08279795062667719,-0.02044841130183365,0.0720187802562665
38,0.38,0.007212873667134993,-0.036488534667386024,0.3768518603501788,-0.08711436308725377,-0.02375198609624184,0.06860840707279571
39,0.39,0.003515729533575607,-0.021537974715024333,0.07543262797365757,-0.08843207066692066,-0.028067255784851163,0.06347453346018522
40,0.4,-0.00018015505677797684,-0.006062277895589312,-0.21697369949292344,-0.09090309614109122,-0.030328050823419394,0.05590793601090238
41,0.41,-0.003634833161381073,0.009092113921660018,-0.49315904970091917,-0.09394243067180108,-0.031576482700353715,0.04714258928786892
42,0.42,-0.007129091382714086,0.02324902807543147,-0.7470193082044287,-0.09246965347840684,-0.03619648231111983,0.038653787305091794
43,0.43,-0.010233609041166818,0.036684865741191994,-0.9732190512918665,-0.08862867125994912,-0.042586066572671125,0.030310131250335763
44,0.44,-0.012051354015587896,0.048408284080145664,-1.1673925667550478,-0.08578013098763625,-0.04321583100228285,0.02403345012308631
45,0.45,-0.013331888002196035,0.05902087007506811,-1.3265335118142274,-0.08384074284111727,-0.03856916343026531,0.019650274864472416
46,0.46,-0.015054259333065124,0.06952872659919614,-1.4486847230633881,-0.08190135469459828,-0.033922495858247775,0.015267099605858519
47,0.47,-0.0176207638520115,0.08071195772103715,-1.5325700337087835,-0.07755687054463284,-0.03104076136446398,0.00816938838640638
48,0.48,-0.021417286414947827,0.09333967136218851,-1.5778856957514678,-0.06675893358247309,-0.03289476811374937,-0.006212077704024261
49,0.49,-0.022456885837398268,0.09738561964708366,-1.5856114077232557,-0.0569595462357454,-0.036026160147838125,-0.017339809463433487
50,0.5,-0.021823005221790242,0.09612799547651221,-1.5572802685330838,-0.04817197693098862,-0.04045191097766182,-0.025170572250015903
51,0.51,-0.02081316094683081,0.09321881987460784,-1.4956132293843802,-0.03914872018868727,-0.043210336190426656,-0.03182200333955035
52,0.52,-0.019483695582554403,0.08935685021893058,-1.4029529061731403,-0.02999306180452308,-0.04503211135718794,-0.0378109237131264
53,0.53,-0.018225159341761634,0.08415951030237219,-1.2829463181987135,-0.017495484587272236,-0.04645361159562994,-0.04765192363222729
54,0.54,-0.01675034869520462,0.07781066250800463,-1.1389300498794643,-0.002154523902373917,-0.0475345484719613,-0.06077036380133331
55,0.55,-0.015155727367523696,0.0695766793416249,-0.9745822188683058,0.011966011468001005,-0.05321736232740838,-0.07174789717581108
56,0.56,-0.013051335828855365,0.06064374307618675,-0.7943515823454799,0.02540806859832736,-0.06145852478194998,-0.0815352236143612
57,0.57,-0.010755836912666763,0.05073150171845118,-0.6029995241838344,0.03969811652907454,-0.06668373871818926,-0.09279696535499364
58,0.58,-0.008206436386092135,0.04001857917244916,-0.4050667255563454,0.05484194127011896,-0.06887242571958556,-0.10554318262654057
59,0.59,-0.0049166466446646725,0.028491328291750672,-0.20431069846841193,0.06584158356411292,-0.07152206546779083,-0.11503841028697732
60,0.6,-0.001331707213348009,0.016997504381515125,-0.005732700421489545,0.07445399388900219,-0.07443723433965041,-0.12266092446772806
61,0.61,0.0021302132620149737,0.005137160590628041,0.18667071743478134,0.08106539388143078,-0.07694552539315665,-0.12563344952716496
62,0.62,0.00538279755892255,-0.006374676044289169,0.3688439862367574,0.08661065164276903,-0.07923703114675544,-0.1261284512595499
63,0.63,0.008461954736908504,-0.017416431286050527,0.5376987690514621,0.09072122464808728,-0.07864309874223997,-0.12993050313461632
64,0.64,0.011109883669209803,-0.028012778436101483,0.690233825423703,0.09404732578758483,-0.0764714364245097,-0.13554081831275758
65,0.65,0.01531618345192515,-0.03706957328575515,0.8240162874720205,0.09890670121020158,-0.07399966659602862,-0.13778886216352373
66,0.66,0.01841161013707301,-0.045937530898279,0.9374259299897296,0.10459168586219016,-0.07136630041560486,-0.13822645222262642
67,0.67,0.01905921937348136,-0.05518155056938442,1.0292304571179853,0.11027667051417878,-0.06873293423518109,-0.1386640422817291
68,0.68,0.018184870845766334,-0.06418889318884756,1.0985978198777688,0.11596165516616735,-0.06609956805475731,-0.13910163234083178
69,0.69,0.013547571154305778,-0.07975656847170208,1.1453115095401207,0.12130304538337428,-0.06280804079680924,-0.13351310835389976
70,0.7,0.007915068072238327,-0.09570872787305776,1.1692365676272352,0.12629291687578026,-0.05884317334686435,-0.12175949055130975
71,0.71,0.008339396800970511,-0.09694032168338573,1.170320266834241,0.12622189789363292,-0.05514749101607788,-0.11383604566950062
72,0.72,0.011529120995469315,-0.09026077882931356,1.1496283641544518,0.12109201238833182,-0.05172088615193266,-0.1097412419456566
73,0.73,0.013405526688959106,-0.08269908980146116,1.1085053959882134,0.11205298696405584,-0.05061379014442445,-0.10190654597583268
74,0.74,0.013962313049893982,-0.0757337216444896,1.0486190651119156,0.10110419714351973,-0.050639862947199465,-0.09224476957264968
75,0.75,0.013596920456664646,-0.06913339326647139,0.9717517192912926,0.08903847560117148,-0.05026184072504898,-0.08112813386502485
76,0.76,0.01245525362572583,-0.06325681571804397,0.8798744718036572,0.07636042161929124,-0.04966228258661715,-0.06921390459848553
77,0.77,0.0108750562064245,-0.05743745516778506,0.775171194782908,0.06498933756123396,-0.0476041671844334,-0.0536698613431128
78,0.78,0.008953063713557051,-0.05190061558549297,0.6598949012924691,0.05427252296084074,-0.04481589766582161,-0.03630873233342614
79,0.79,0.0072397774279708785,-0.04597348790883873,0.5362201653916663,0.04454706199382754,-0.042182211098135705,-0.023764449741210083
80,0.8,0.005387764037674693,-0.03985388153737107,0.406901409481375,0.03531032149522593,-0.03962473129425352,-0.01359479045005223
81,0.81,0.00299146828049352,-0.03229360728558656,0.2746444374008178,0.023587946816052027,-0.039033595676775584,-0.002812812253725744
82,0.82,0.0007009071276846768,-0.024531258554730588,0.14169062550829103,0.010718831364107879,-0.03934962776300628,0.008251657654367134
83,0.83,-0.001135024525923536,-0.015752691822204033,0.011046959665054257,-0.003054464353092169,-0.03845991966586554,0.015016647866732104
84,0.84,-0.002596483028642751,-0.007075462488442572,-0.1159938437879343,-0.017279985843524016,-0.03696716059792366,0.019631253244780114
85,0.85,-0.003342607995515059,0.002510176263307483,-0.23778869617736542,-0.03469570448541967,-0.032112748797482694,0.024345248618182144
86,0.86,-0.003885557183894141,0.011819058936432043,-0.35207613001665866,-0.054162226717536746,-0.025097313973833437,0.029123136393723208
87,0.87,-0.004820631468836484,0.02192869576948125,-0.4568439481976689,-0.06972283433598105,-0.02204253942368345,0.0265252310185321
88,0.88,-0.005746581911765308,0.030939483013214437,-0.5505526669347588,-0.0831747051765478,-0.021126057900772214,0.019945260539173
89,0.89,-0.0060161636472775,0.03915469290750678,-0.6319509503997023,-0.09327581178583973,-0.01822849216407959,0.01747322785264659
90,0.9,-0.006210073438967531,0.04591443810021012,-0.6999664073812513,-0.10165076712447486,-0.014310367893014726,0.01711740554424613
91,0.91,-0.006620459052228602,0.05101383170783111,-0.7538452010742308,-0.11002572246311003,-0.010392243621949862,0.016761583235845666
92,0.92,-0.0065732355370991275,0.05632097911320805,-0.7928586524484789,-0.113833495917714,-0.004970651050576841,0.008087431140032877
93,0.93,-0.006695095974036055,0.060777989679456565,-0.8172461583155299,-0.11553323657638542,0.0011448837734084547,-0.004426137130677328
94,0.94,-0.006926815645336397,0.0644722678347268,-0.827467263515161,-0.11345154153587585,0.006557310460612505,-0.016386106780721738
95,0.95,-0.007243410605970731,0.06741272884305907,-0.8236086881829865,-0.10758689791933017,0.011266347711520698,-0.02779225632635534
96,0.96,-0.007112200483431671,0.0691591777363258,-0.8061245815196911,-0.10333723241370148,0.019170132783711453,-0.038206580759423965
97,0.97,-0.007095830889483682,0.06988896313011848,-0.7756160208293139,-0.10026957201661717,0.02941215898730853,-0.04789498677792736
98,0.98,-0.007694953826807404,0.06995589380609887,-0.7329943111088094,-0.09646961816678123,0.036775172276937516,-0.0624620098342224
99,0.99,-0.008560308408615032,0.06898576524377117,-0.6794007883770166,-0.0923258468912964,0.04278646679211713,-0.07931958122787883
100,1.0,-0.008802867123645664,0.0659577018684599,-0.6166914474551375,-0.08313552777993558,0.04606484075745817,-0.0930165709159069
101,1.01,-0.009013105689878977,0.06209741696188349,-0.5456802518991064,-0.07155833798055036,0.04805062260532512,-0.10521869716944204
102,1.02,-0.008749435071125397,0.05698668368243394,-0.46816887658224815,-0.05997098004079857,0.05347623147976487,-0.1084436370657735
103,1.03,-0.008546709136209796,0.051544987920357735,-0.38524901877257234,-0.0483786116470462,0.06059684991006621,-0.10724497759426953
104,1.04,-0.00889234362154525,0.04485890415138635,-0.29831953206098444,-0.037312091615912014,0.06386669130838163,-0.10907571127540194
105,1.05,-0.009069408556039939,0.03801858334396234,-0.20928215892078794,-0.02653549790819468,0.06501340804463097,-0.11257669988431436
106,1.06,-0.008133855893836512,0.031246318223084466,-0.11999483947669268,-0.014219634027751919,0.0667821331594515,-0.11617478517955715
107,1.07,-0.00538934761304808,0.023455362273985578,-0.03218707074884749,0.0029413237310870546,0.07050872703618692,-0.12007849749784474
108,1.08,-0.004148164971494456,0.014815375534787439,0.053774870422807305,0.01949958117482537,0.07331670569631055,-0.12173254716086215
109,1.09,-0.0036021513596363637,0.005583007239758204,0.13610159798960092,0.03537628511925851,0.07508588381210034,-0.12084260370401613
110,1.1,-0.0021902312096758235,-0.0037208802809802315,0.21309947686447583,0.05098997757314572,0.07921869654917317,-0.12183643074442126
111,1.11,-0.0006006297054178523,-0.012369384844309557,0.2834475642971766,0.06644390143311342,0.08478731948297137,-0.12397457038876655
112,1.12,0.0006695258285125275,-0.020972668220365486,0.3464707231402433,0.07550864602078743,0.08968928342713181,-0.1261857065775586
113,1.13,0.001839528214738124,-0.02879157617294638,0.4012826929588136,0.0813489989022813,0.09425480827239888,-0.1284336815280229
114,1.14,0.00406285283346712,-0.03652478377179705,0.4474475003797665,0.08688543068508367,0.10088041824648812,-0.12584677164189087
115,1.15,0.006007784665181572,-0.04347241837448777,0.4846793808810348,0.0922752631119504,0.10849973071230387,-0.12092770710733243
116,1.16,0.00709668334543064,-0.04995865821320079,0.5124431208241641,0.0980324041301472,0.11250555474517236,-0.11765219122193743
117,1.17,0.007708002893766266,-0.05564117730827671,0.5313310765699519,0.10396199936572822,0.11481481808101418,-0.1151483341071636
118,1.18,0.009093714531001534,-0.061139867494759775,0.5412512691615694,0.1057470926534752,0.11942096623633446,-0.10816797759126852
119,1.19,0.010055794015588489,-0.06568029250833252,0.5428337783033745,0.10556114716626733,0.12511946495579498,-0.09905869122886116
120,1.2,0.01000189502054322,-0.06918722305629366,0.5363083382410736,0.1037099378685626,0.12732310867876526,-0.08752794127701516
121,1.21,0.00950753029158501,-0.07153480058816714,0.5220716525519586,0.10094578552193867,0.12761077755383754,-0.07466967892848203
122,1.22,0.00980969082711128,-0.07267264171201893,0.5000190745693825,0.09876336367296938,0.1317728783109385,-0.06590109883112627
123,1.23,0.009913581197749525,-0.07264161971650931,0.47124243577669,0.09689638976196333,0.13803592023047198,-0.059350181101928974
124,1.24,0.009143963224057132,-0.07135365301009634,0.43682449947425317,0.09068574623504448,0.14159119679212234,-0.048375765803150055
125,1.25,0.008068822560311576,-0.06893280552529853,0.3969694522763575,0.08229282638666945,0.14378608162349,-0.03517896831196113
126,1.26,0.007335820121090448,-0.06457980633811444,0.3525699040218896,0.07354621214044589,0.14705911378519002,-0.02164384864479504
127,1.27,0.006611343401569027,-0.05937445082207666,0.3039110433511543,0.06462499595473177,0.15086437551025794,-0.007941715565888144
128,1.28,0.005745768122527191,-0.05379627279241048,0.25164636465243756,0.055703779769017636,0.1546696372353259,0.005760417513018749
129,1.29,0.00493221214527373,-0.04677925125823608,0.19742959599584817,0.04714513375981968,0.15821638419170328,0.015436148201399538
130,1.3,0.0041551195621465885,-0.039031266782761295,0.14166936942632477,0.03882719573802597,0.16159150487069704,0.02243877647077879
131,1.31,0.004595266195157114,-0.03017454689591435,0.08523296826295285,0.026736097555697128,0.1683756933625571,0.030948817124346887
132,1.32,0.005044441108612638,-0.02092049875744527,0.029011367202648686,0.011688785250801685,0.17783083510961986,0.04063989266354751
133,1.33,0.0042095404755678936,-0.011108034716484812,-0.025769195294609727,-0.002430292482934937,0.1853121525354798,0.04588307224171631
134,1.34,0.00266005872724469,-0.0014847922949163955,-0.07850450877794127,-0.015903792357923947,0.1914206948908796,0.04803278467302983
135,1.35,0.0010321688549780944,0.008451161660148494,-0.12860238099989799,-0.02927535753495424,0.1964635311588919,0.05046102913627767
136,1.36,-0.0006855311290789123,0.017622961808050477,-0.17510953498922835,-0.0425941295745475,0.20095442614424386,0.053033528501310566
137,1.37,-0.00236904349273921,0.026566593959714613,-0.21739224502289,-0.052883222293809234,0.2039750111028456,0.055535817845408925
138,1.38,-0.00392110841123588,0.034578030879909835,-0.25457573334882583,-0.06164197127450495,0.20625291688478065,0.05800264288633807
139,1.39,-0.005144301877390181,0.04263538472055589,-0.2863810735977182,-0.0696741604196788,0.20930121850065733,0.055085065507319037
140,1.4,-0.006121694815818683,0.04957441286890278,-0.3121275283726405,-0.07736913218877588,0.212707083043854,0.04966843166106201
141,1.41,-0.00653332422545742,0.05578664147264796,-0.3319241677559244,-0.08138608745414352,0.2163657505542383,0.045788822481229965
142,1.42,-0.006791648439945747,0.06078673249065889,-0.34532250488883476,-0.08357587062313668,0.2201500060077592,0.04267277936454186
143,1.43,-0.006493901818831731,0.06470184337801566,-0.3524878782353996,-0.0853013671492065,0.22673862281438606,0.03870402330027711
144,1.44,-0.006314527677620849,0.0675365243138306,-0.3534862299870452,-0.08681117573863997,0.2346300272912021,0.03433913286727873
145,1.45,-0.006208239480424977,0.07001861728012387,-0.34854624918418364,-0.08849426909241627,0.2397466056236903,0.029225494336389074
146,1.46,-0.006275122346340093,0.07144238754395049,-0.33825569831714736,-0.09027038283682567,0.2433736392009705,0.02370992294766412
147,1.47,-0.006531685301430162,0.07140939266974092,-0.3231661390654056,-0.09204649658123508,0.24700067277825075,0.01819435155893917
148,1.48,-0.006765420791765356,0.07017536915205869,-0.3037759673052378,-0.09382261032564446,0.250627706355531,0.012678780170214218
149,1.49,-0.006194447791552019,0.06802274177839375,-0.28054935522776314,-0.09182438340820563,0.25269652408730475,0.010818440582436105
150,1.5,-0.005231153351405682,0.0649195367974716,-0.25404390992681203,-0.08577478564142241,0.2530927555797696,0.012881620595218177
151,1.51,-0.004652014894008097,0.06060484368800203,-0.2247297496328824,-0.07652848483922411,0.2521138791023764,0.009394937484568426
152,1.52,-0.004292457388496398,0.05524036680453832,-0.193234390386866,-0.06409059163795834,0.24976209306914596,0.0003672639333380645
153,1.53,-0.005401347232014423,0.04803778056869991,-0.1605973149292771,-0.053426464374127285,0.245623258130559,-0.008089820720277788
154,1.54,-0.0062961721457703256,0.04027005716221799,-0.12688911315260562,-0.043748007914359184,0.2404913711244653,-0.016229832638629326
155,1.55,-0.007398798280081425,0.03196523256197259,-0.09283713948260892,-0.03466519551411765,0.23309885739547775,-0.0272130413247156
156,1.56,-0.007424809308105301,0.023672189046489,-0.058488648022744213,-0.025929661421812824,0.22438833065075212,-0.03985391879275012
157,1.57,-0.005353537512410501,0.015576145902835889,-0.024347371508832316,-0.01614856099687489,0.21712612206292875,-0.052308100351742964
158,1.58,-0.002272975945336944,0.0074404013557407694,0.00907074388732474,-0.005318962549206337,0.21131629260821366,-0.06457506252027481
159,1.59,-0.0006812015183271982,-0.0018544111150295868,0.041791304193796355,0.006611336766447895,0.20331197226282213,-0.07892565677139228
160,1.6,0.00087574415610119,-0.011034590161695331,0.07280976536352608,0.019196999138790468,0.19400104055750644,-0.0945168564679803
161,1.61,0.003208716249369741,-0.02009624242264702,0.1017623419608584,0.02843700684212548,0.18700830799632104,-0.10259152864585698
162,1.62,0.005752923490414716,-0.028391699148892224,0.12782223498184636,0.03576137865147457,0.1813429166969344,-0.1063624303101894
163,1.63,0.0074504205092693655,-0.03659153926325305,0.15119984316123394,0.04473872898078697,0.17649027291713806,-0.10854270450645503
164,1.64,0.008878296374590927,-0.043687399765698694,0.17083886366320164,0.054490025646931416,0.17201816824172778,-0.10997822595045743
165,1.65,0.009528101489140645,-0.051236520635285034,0.1868493464600855,0.06254794334069448,0.1660509403885234,-0.1072008757460458
166,1.66,0.00999014892076446,-0.05718990811540732,0.19881889636063968,0.0698045744611975,0.1593762382207824,-0.10243004532143593
167,1.67,0.010458548745394924,-0.0608003190767638,0.20670235834620662,0.07706120558170054,0.1527015360530414,-0.09765921489682604
168,1.68,0.010610182745089057,-0.06291105099711253,0.2109055804203533,0.08431783670220358,0.1460268338853004,-0.09288838447221616
169,1.69,0.010279133745748688,-0.06404734398927886,0.2117551878011893,0.09157446782270663,0.1393521317175594,-0.08811755404760628
170,1.7,0.00875494966188936,-0.065481978240877,0.20914894672812478,0.09602261737926128,0.13219091735090874,-0.0808721401167434
171,1.71,0.006590861378905392,-0.06656361832156925,0.20362312229650179,0.09763178909106053,0.1245379079261606,-0.07112527207650313
172,1.72,0.004089295597492419,-0.06636878380863512,0.19538130718673674,0.09801577004017653,0.1155529122708586,-0.06363667107639262
173,1.73,0.0016101096479663388,-0.06497937988366596,0.18489321088601696,0.09717505020491868,0.10523646307295736,-0.05840543399022108
174,1.74,-0.00020728736885622422,-0.0619959676296936,0.17232534699279345,0.09260286992565077,0.09517070171831636,-0.05152326482854258
175,1.75,-0.0015660358394521006,-0.05786027014738442,0.15807994844345447,0.08429026293778967,0.08535623058060779,-0.042986196593979065
176,1.76,-0.0034763401935486264,-0.052196899166216226,0.14288427055119982,0.07467243536212728,0.07458970690402797,-0.03744697337965309
177,1.77,-0.004946634763877632,-0.045926508066765966,0.1267344783948204,0.06415878185183567,0.06316975087783497,-0.03396529303756437
178,1.78,-0.005675345070210749,-0.039354394277770474,0.10989129549200774,0.054934905515360274,0.05275097289938178,-0.028484447423949157
179,1.79,-0.005580859718828617,-0.03282905829531916,0.09204859419285281,0.04636251807041517,0.04283790737249615,-0.021993788647895203
180,1.8,-0.005835929367742003,-0.025935960273833186,0.07376432305984852,0.03830124718917564,0.032761485997361534,-0.015313839329735075
181,1.81,-0.005582022164884572,-0.0191041995016329,0.05446371412151085,0.0305090712595802,0.022599060299129548,-0.008534231473989202
182,1.82,-0.005122973004149898,-0.011692637863631549,0.0347984147306658,0.02333773596805993,0.014285058105764213,-0.0015770000854778525
183,1.83,-0.004209517282131115,-0.004484793055588295,0.014381797223323204,0.016488513619988127,0.006930080015166873,0.005472388348587393
184,1.84,-0.0032436176603438827,0.0029784397544720537,-0.006230610062194903,0.008052503702446652,0.00014151926261106625,0.011560628516035695
185,1.85,-0.0022176112667272206,0.010164430566668152,-0.026777040577610906,-0.0014789153485826757,-0.006256025869836286,0.016985357946353582
186,1.86,-0.0014616736723602145,0.016736440202411183,-0.04681196556116695,-0.012809196020981413,-0.01403263177434427,0.022157036000862728
187,1.87,-0.0024413538171478765,0.023674023957604276,-0.06500611000737916,-0.031893783533876965,-0.027753919721771075,0.026237891953704632
188,1.88,-0.002728970648429078,0.03134474034341684,-0.08311417837921155,-0.04746818997943513,-0.040290021689498134,0.028533094858934738
189,1.89,-0.0021402550149179737,0.03796092507588629,-0.09952394801441206,-0.06123028914155375,-0.05221421186634153,0.029906364689544964
190,1.9,-0.0012698733771863997,0.04390698505118702,-0.11385723226351611,-0.07383990182393776,-0.06301205950127911,0.02848424143798195
191,1.91,-8.13935274215779e-05,0.04845243812603306,-0.12525589624277597,-0.08580740976878043,-0.07318236842320844,0.02550467246109726
192,1.92,0.0003848498476411947,0.05230955240188335,-0.13399953486374416,-0.09360809826382237,-0.0838576046877631,0.023549399529245757
193,1.93,0.0008924383658645681,0.05497367035667733,-0.13950148801966555,-0.09879588045239956,-0.09484946802333598,0.022236436548184663
194,1.94,0.0012125283873999975,0.05655202440877224,-0.14207920422101344,-0.10162596421063352,-0.10608658416275282,0.020626650407694628
195,1.95,0.0017785506618833728,0.05709815037997144,-0.14151511713001413,-0.1030749287170933,-0.11746736726338115,0.01884298783984484
196,1.96,0.002000918600076642,0.05691420069431319,-0.13795292569021472,-0.10130188121219988,-0.1257107219261096,0.01616518553407939
197,1.97,0.0023693270254671927,0.05608450906343346,-0.13190331747857434,-0.09749899239942053,-0.13197752224287504,0.012924082480629494
198,1.98,0.0024728473411724777,0.05486762119418932,-0.12367204610905558,-0.0968844216170285,-0.142614603742755,0.009049539998727948
199,1.99,0.002859319662136409,0.05309161810598971,-0.1139153465346895,-0.09779379711164983,-0.15534058405229978,0.0048722273259288774
200,2.0,0.0028329462745348777,0.051368389221634184,-0.1027361950152987,-0.09713356708832192,-0.16260359323746162,-0.0002899457572974762
201,2.01,0.0029325005205995845,0.04896377823750466,-0.09084087553069484,-0.09554833750037928,-0.16664716552986888,-0.0060325165521996635
202,2.02,0.0037857354041662492,0.044542807649132536,-0.07827666802350154,-0.09041058796993252,-0.17136692379260635,-0.010771099682066746
203,2.03,0.004544258320221745,0.039549061725480256,-0.06568011304712945,-0.08364600287462122,-0.17639633362741075,-0.015049918231692497
204,2.04,0.006777509942345654,0.03329938436314423,-0.05312755386404029,-0.07766359732956761,-0.18033962079133406,-0.018702060911352385
205,2.05,0.008651160493060481,0.02679426166589824,-0.04071421470810198,-0.07237259842539731,-0.18332283117082354,-0.02180025423496859
206,2.06,0.0077095195100527905,0.021549159346278032,-0.028671380288940986,-0.06708159952122703,-0.18630604155031308,-0.0248984475585848
207,2.07,0.0006027228729432238,0.017911057501683682,-0.017035799882416665,-0.055582970459867334,-0.1905721985575117,-0.028358673057412187
208,2.08,-0.016923490187670524,0.016631286168834917,-0.005931418902749622,-0.02580427862792816,-0.19861634237964074,-0.032885001194484724
209,2.09,-0.01465936434533841,0.007726230090368795,0.0054121362045468115,-0.008299253702484292,-0.2027692573755704,-0.03380049753098372
210,2.1,-0.0060960740984691494,-0.0027431432106314046,0.0165408807856226,0.0017246225709560848,-0.20455035785921666,-0.032515089307886366
211,2.11,-0.0004061340291329936,-0.010666457315913265,0.027096077560988995,0.011748498844396459,-0.2063314583428629,-0.03122968108478902
212,2.12,0.0027811506255737864,-0.018066739829755176,0.03670807479234841,0.021721627673133542,-0.20686816000295954,-0.03418011609143399
213,2.13,0.004236074223885411,-0.024438330972099763,0.045584743723773885,0.03166495244704488,-0.2066740242587493,-0.0396182685504673
214,2.14,0.0046915751744296495,-0.03070037446493979,0.05349981329426316,0.03986627686265756,-0.2074332883475205,-0.03798654424998445
215,2.15,0.004307224437947608,-0.03597743648914824,0.060626698264007274,0.04709916074922075,-0.20872258162615365,-0.0324244216825417
216,2.16,0.003007039022590189,-0.04042353262239207,0.06715029983691316,0.05257945804087917,-0.20856839854900816,-0.032412408918305616
217,2.17,0.0014136367791950473,-0.04394240050306731,0.07262983833254624,0.057133365169715726,-0.2076512161997314,-0.03533409833986723
218,2.18,0.0004043613725687569,-0.04751385353648843,0.07676504014243678,0.06430407530963524,-0.205522272608558,-0.035580742797303694
219,2.19,-0.0005815061891395823,-0.050298768298533886,0.07953333338748547,0.07279539292761257,-0.20278179618480527,-0.03447738713291112
220,2.2,-0.0013279678348042593,-0.052771723648732914,0.08142107466343193,0.07686865674533848,-0.19872385774476375,-0.03593257112204442
221,2.21,-0.00219010155520284,-0.0542797795922805,0.08179552053654478,0.07872127594069908,-0.1940037238960843,-0.03867375287842701
222,2.22,-0.0031292928915200454,-0.05505211649417202,0.08069466756422833,0.07948764367940671,-0.1918692876872444,-0.03687797953020085
223,2.23,-0.004043352029453586,-0.05490014516583248,0.07802682601437369,0.07963633902119402,-0.19120515013635248,-0.03250236896562854
224,2.24,-0.0003669257209226542,-0.05175483927331574,0.07397340490804231,0.07947012823343,-0.1894410521407413,-0.03089486518217865
225,2.25,0.0025506807449139535,-0.04831560050590011,0.06867210260700175,0.0791229864951491,-0.18704496616484664,-0.03087779151120171
226,2.26,0.0016037132304747774,-0.046130514402020394,0.06228591516215217,0.07877584475686819,-0.184648880188952,-0.030860717840224774
227,2.27,-0.0012770011915204413,-0.04443831190424259,0.05510859234557864,0.07842870301858729,-0.18225279421305726,-0.030843644169247838
228,2.28,-0.010907946400937925,-0.04589273260067679,0.0479400268178653,0.07200384337585235,-0.17819576155526176,-0.023425351540786937
229,2.29,-0.028078523637491595,-0.050954253325280294,0.04113368566172472,0.05296178344484912,-0.17069064241449208,-0.0006423013780106693
230,2.3,-0.02464910814049875,-0.044021950309707625,0.03246015520309155,0.03724595213234375,-0.1651228840503835,0.012913576544725013
231,2.31,-0.011208109395437336,-0.031304937157598446,0.022967053461652502,0.02486034330900086,-0.1614948126916052,0.01723120297317951
232,2.32,0.000553398631965336,-0.020340870817627723,0.01358407591566553,0.015341083545722422,-0.15846979265394456,0.027809999672557168
233,2.33,0.008733155075242834,-0.011407192910887067,0.004792685611542456,0.0071497226885259375,-0.15572414933309076,0.04128942046876578
234,2.34,0.012626229502732926,-0.0035809494428114593,-0.003336417001756431,-0.0007436783330269253,-0.1520243979491824,0.051229064224478524
235,2.35,0.013745119243004863,0.0033570413661867006,-0.010754277628140265,-0.008337925291137999,-0.1473667144218064,0.05761474345656716
236,2.36,0.013311252730031357,0.009407150753162343,-0.01727905720737637,-0.01721044399663732,-0.14419579403187555,0.06585489274101887
237,2.37,0.011982994099269138,0.014963174145774964,-0.023032334508051575,-0.027541889557292826,-0.14272175747975688,0.07621159992249316
238,2.38,0.01121273052208542,0.020329059994415064,-0.02782039383541979,-0.036073045548001996,-0.13666625868854215,0.08283441581246513
239,2.39,0.010223764328912633,0.025152984435948086,-0.03205025185732203,-0.043601611504194906,-0.12805932125039513,0.08737780944652808
240,2.4,0.008909352208865707,0.030413540779360555,-0.035832413316324384,-0.0523188914410479,-0.12217936763831515,0.09195555860048428
241,2.41,0.007232409356752423,0.03506748125305626,-0.0391911939492415,-0.061654288193197765,-0.11771741245593205,0.09655117220702517
242,2.42,0.006094994718321992,0.039694646457810304,-0.042093807380334414,-0.06913911911278289,-0.11134613152466956,0.09539501010312397
243,2.43,0.00466851659210123,0.043428599420146735,-0.04444075697612637,-0.0756992221748237,-0.10402076040215544,0.09136468533167737
244,2.44,0.005793624092824467,0.04444222463192085,-0.04655417713172809,-0.07889897620127415,-0.10107234945112643,0.08958714608905456
245,2.45,0.005669168676124653,0.0452747517519321,-0.04784966671246056,-0.0805606112814048,-0.10012738674185596,0.08884076523717623
246,2.46,0.003006848552424856,0.04696063302826148,-0.048102562022668875,-0.08222224636153548,-0.09918242403258544,0.08809438438529789
247,2.47,-0.0007990729321832061,0.04903583685494857,-0.0474609283549462,-0.08388388144166614,-0.09823746132331496,0.08734800353341955
248,2.48,-0.004785390357922022,0.05108196590712971,-0.04604859917805076,-0.0855455165217968,-0.09729249861404446,0.08660162268154123
249,2.49,-0.009292886326262479,0.05379708159048415,-0.04396876523825901,-0.08641707384625905,-0.09576899791183953,0.08520942822524914
250,2.5,-0.026161193033019368,0.07025406724988836,-0.0412854005810881,-0.07588615096854358,-0.08589597975604987,0.07449678804599838
251,2.51,-0.024629228616192197,0.06686050629304342,-0.03827763601755838,-0.06840099921067727,-0.08123026812961526,0.06728834558327125
252,2.52,-0.014007618842817697,0.05358378053676725,-0.03489748232654516,-0.06398117408546816,-0.08180529678232283,0.0636065996988111
253,2.53,-0.006084095612934827,0.04292266149179931,-0.031191371808643002,-0.05810600790395775,-0.08193844375101574,0.05782206897163216
254,2.54,-0.0006261401117722536,0.034590642847912606,-0.027048684652149105,-0.0515022976402413,-0.08185038464259681,0.05098488364731788
255,2.55,0.002787056509033517,0.0279143884172117,-0.02259826163835111,-0.046863010281825566,-0.08095492561300237,0.04499752105803816
256,2.56,0.004625229763578818,0.022462424772397384,-0.017860716648408523,-0.043182548389092336,-0.07966537852664372,0.03942495289895388
257,2.57,0.005371341075628644,0.016808298270990903,-0.013029081984844924,-0.034974853322867205,-0.08113285360608945,0.034378795915662085
258,2.58,0.005297061719878013,0.01176693373025893,-0.008114238334561727,-0.02457742826471573,-0.0839338438577195,0.029587253239949433
259,2.59,0.0039792878805486,0.007248354219375603,-0.0031398290180142544,-0.014061772747993778,-0.08542697604943975,0.022867208094169263
260,2.6,0.0021872623291948265,0.002877941733221291,0.0017172427527002456,-0.0034254017347685947,-0.08558476084450188,0.014178126069088163
261,2.61,0.0019906421233827284,-0.002648776411045394,0.006565517696501392,0.006341406761865147,-0.08539698468162378,0.008236223654138007
262,2.62,0.0020542429426640254,-0.008016836628767145,0.011000609977447692,0.015617385853013609,-0.0850141547114477,0.003844982070438236
263,2.63,0.0012667446058124015,-0.012932986227914202,0.014968940247317632,0.0240464250613814,-0.08428600506290143,0.0016354768425631168
264,2.64,6.526816693101182e-05,-0.017732406594964962,0.018444683363214545,0.03147802287469738,-0.08315117230881812,0.0019954032811295734
265,2.65,-0.0005264815441715972,-0.022590130360740104,0.021162163429810685,0.038169130984174585,-0.08477159610798446,-0.000273816781402716
266,2.66,-0.0009050012523897235,-0.027177775969010432,0.023283431723873954,0.0444048474928414,-0.08808646708976944,-0.0041599279738096856
267,2.67,-0.001393650956010461,-0.03180926278359716,0.02485455649699871,0.04917931889631739,-0.09155956845853076,-0.006470660778133118
268,2.68,-0.0018774468534614136,-0.03636208049981734,0.026003263779567888,0.052407739448633466,-0.09520008337317501,-0.007114585536945648
269,2.69,-0.0027260365897244726,-0.04074223491407522,0.026820320311360328,0.0563104308859311,-0.09914224981276512,-0.003952799943465715
270,2.7,-0.003548188724089805,-0.04473662349200886,0.027347115184462277,0.06091071488683629,-0.1033965012990185,0.003146327896485669
271,2.71,-0.0033960594078558184,-0.047398429674659445,0.02753902761070489,0.06450640261368873,-0.1076065694881125,0.00969718830819455
272,2.72,-0.002779031097305961,-0.049152368930089736,0.027509601087364458,0.06751461644969256,-0.11179079990121313,0.01592742957406907
273,2.73,-0.0027573945066998425,-0.05083058349807247,0.027357740640183783,0.06679878309328724,-0.11624845923898235,0.02225528362117309
274,2.74,-0.0028497947365035466,-0.05207344176165557,0.02696870492618328,0.062331992528630364,-0.120981523302562,0.02868145580079611
275,2.75,-0.0015424848006815382,-0.0511978433197378,0.026384467618341203,0.05771604264134739,-0.12407733171910412,0.03719473322082417
276,2.76,7.990346255953851e-05,-0.0495364276780272,0.025398572050790165,0.053020550263403035,-0.12630003753822264,0.04682100543173366
277,2.77,0.00046510279991273306,-0.04808105738382875,0.023969859638633295,0.049115738156457533,-0.12989366741112873,0.05665193366825536
278,2.78,0.0001419715738153293,-0.046430115168223235,0.022149138967558803,0.046181226337530634,-0.13516965620082086,0.06673400994511629
279,2.79,0.0011179951201866216,-0.043321599358291565,0.020243660318943417,0.04046912490530871,-0.13682233369456484,0.07531632758618265
280,2.8,0.002511519176413875,-0.03948240262785982,0.01792305502673878,0.0333439226619777,-0.13663164883315845,0.08313564188990752
281,2.81,0.004410599850294197,-0.03454511862735628,0.015252987375774414,0.02685662915239853,-0.13256314070154504,0.0927796154182921
282,2.82,0.0058332918740901145,-0.02934279024469824,0.012207019783690754,0.02066404201689185,-0.12670312357375416,0.10326656016742587
283,2.83,0.006494663661899606,-0.023510783254248997,0.009187244539959876,0.012401154560534828,-0.12053745495939808,0.10852749921831598
284,2.84,0.00648307837343135,-0.01758571336063723,0.005978216696565574,0.0029792735225943018,-0.11420067681684325,0.11086282066649253
285,2.85,0.0071085272919252296,-0.011012767915773873,0.002440211952273211,-0.00566016434020854,-0.107520005154322,0.11497072006505978
286,2.86,0.007080489187311938,-0.004537763366658561,-0.0011105325068197385,-0.013868767078974487,-0.10064997608919557,0.12005465052299087
287,2.87,0.005765214540817725,0.0014303333125564102,-0.004461656999488762,-0.02207736981774044,-0.09377994702406918,0.125138580980922
288,2.88,0.0040521840485686945,0.008253248871710861,-0.007642521605524712,-0.029105577554682988,-0.08558830180409867,0.12828247215689895
289,2.89,0.0021841762555657573,0.015360644173253897,-0.01049699004857553,-0.034942956906901336,-0.07606335880798773,0.12946917625493828
290,2.9,0.0010147087028126432,0.021930663099947324,-0.012917760136004031,-0.04158465842753934,-0.06707290931538851,0.13042396019701294
291,2.91,-0.00031245112058239394,0.027719231040664247,-0.014823826192541575,-0.04863757679807364,-0.058355724372038224,0.1312601729002138
292,2.92,-0.0009652635205733018,0.03332177715068753,-0.016596014718395544,-0.05428982469857395,-0.04796641455556946,0.13321902301241326
293,2.93,-0.0020028794361037134,0.03818714647604696,-0.017802555147671942,-0.059288672868149185,-0.03679707405697871,0.1357015730216686
294,2.94,-0.0030723843018760503,0.04296298439030131,-0.01851211322924665,-0.06544279796122647,-0.029275613634190706,0.1362264847859292
295,2.95,-0.004395482566097246,0.04681754491035968,-0.018671781545953108,-0.07213163577899083,-0.023442551771941003,0.1358453158879365
296,2.96,-0.005506239733100635,0.049708037713779296,-0.01831021614301132,-0.07530055259796435,-0.0205208683359806,0.13803999296449004
297,2.97,-0.006468122393172313,0.051636238832023326,-0.017649691166582798,-0.07686130038252531,-0.0189293251600498,0.14141151342335376
298,2.98,-0.007286086534256087,0.053146947457381646,-0.017223862052744215,-0.07594136306622498,-0.017149066109157785,0.14150698944191709
299,2.99,-0.007608678444656765,0.053792084440194024,-0.016612671816051257,-0.07369562765167392,-0.015267948167289878,0.13985158886303278
300,3.0,-0.007518729474375136,0.05364466980446498,-0.015978548801178154,-0.07304078505685367,-0.016658481243404417,0.13402845490135726
301,3.01,-0.006736351603970788,0.0525137327312338,-0.015027638109232118,-0.07319205554817998,-0.019706775713744514,0.12609351027728505
302,3.02,-0.005318582091823955,0.0502414942922917,-0.013694725718791574,-0.06966184201527381,-0.020826896615738204,0.11966502519810775
303,3.03,-0.0033597131600771523,0.047148574606888635,-0.01216426562040664,-0.06424859614591015,-0.020960781218565597,0.11400707504939067
304,3.04,-0.0006525470418979632,0.041265704854324035,-0.009941532916568786,-0.06067023701002506,-0.0204117712919058,0.10750566849647608
305,3.05,0.002104832726204348,0.03533751541513008,-0.007908289836611309,-0.058104867492482865,-0.019485754405539985,0.10053861326596866
306,3.06,0.004463594558319777,0.030847983164304663,-0.0065383887741999065,-0.05553949797494065,-0.018559737519174162,0.09357155803546124
307,3.07,0.006410915062115958,0.026937813917349226,-0.005594173217788904,-0.05297412845739845,-0.017633720632808346,0.08660450280495383
308,3.08,0.00781526430621231,0.025033896555063998,-0.004598919943579919,-0.04712524150723753,-0.01559674137324821,0.07735691441044286
309,3.09,0.008519238513941903,0.027292578715074994,-0.0030471268238971383,-0.031239314453716763,-0.010163777739643777,0.061138203342192825
310,3.1,0.009645680234335978,0.01767659016156583,-0.0025331633759952395,-0.021747613153784245,-0.009885906358053491,0.05510985069814396
311,3.11,0.01034450291012303,0.005777138998755385,-0.0023732523073351345,-0.015204505728533876,-0.011985222461465632,0.05378061716379395
312,3.12,0.010565881350403811,-0.0045149470063699446,-0.002331421222872619,-0.008515306202457837,-0.010713814083872966,0.053871536134002085
313,3.13,0.010075156953789261,-0.01301868384537786,-0.0020689522481058173,-0.0017525114075448089,-0.007744371569232766,0.054677870275679344
314,3.14,0.009113401715713322,-0.020370419457773625,-0.00176606513092029,0.003930655019167828,-0.005421975622008388,0.05634363910734962
315,3.15,0.0075591002144569635,-0.02643236538203378,-0.0010183218471714953,0.009077239682044342,-0.0034211656933200193,0.05843655212626195
316,3.16,0.0056361147948386005,-0.03216779662677127,-0.00015214389305203552,0.01837577926994369,-0.0027846306874099273,0.06441843221347421
317,3.17,0.0033724539283291255,-0.036875910360765596,0.0012104695145186755,0.029927724816841868,-0.00288853369111631,0.07251098588079741
318,3.18,0.0005202506343285852,-0.04114603835904186,0.003199153108769646,0.039908530787830285,-0.006122798639235678,0.07664731630004955
319,3.19,-0.0023575160507279397,-0.04453464911104532,0.005482125547519026,0.04866136787951779,-0.011803687113123757,0.07769154777234145
320,3.2,-0.0049470715467547915,-0.04690596041095021,0.007792499020288767,0.05460003837440978,-0.01398203593403924,0.08133622994030043
321,3.21,-0.007035966453479835,-0.04815725811951763,0.00996498089565423,0.05898237290856428,-0.014223353584860706,0.08641905544220416
322,3.22,-0.009132441022434675,-0.04863085362446334,0.011800380755453551,0.062091272605232325,-0.017739487501623463,0.09010291795998454
323,3.23,-0.010583965471938477,-0.04832223106315561,0.01330851600042239,0.06453091478624201,-0.02297671097386566,0.09305155126642928
324,3.24,-0.010815859106180083,-0.04585040771119743,0.014886897575338315,0.06488744148344604,-0.025299733658821308,0.09339821699430588
325,3.25,-0.010533806832780197,-0.04336438335905969,0.01594499064023929,0.06425554800564469,-0.02623999342229536,0.0925102717419654
326,3.26,-0.010123578315782956,-0.04175182748012629,0.016245633753720207,0.06362365452784335,-0.027180253185769426,0.0916223264896249
327,3.27,-0.009632945861385637,-0.04050409165420443,0.015947838640352905,0.06299176105004199,-0.028120512949243486,0.0907343812372844
328,3.28,-0.009088033321021732,-0.039216318597123996,0.015184974847550759,0.06235986757224068,-0.029060772712717543,0.08984643598494392
329,3.29,-0.009646787627960078,-0.039953050127168425,0.013966852711480664,0.06253992093166723,-0.03278963556523445,0.08807350476077243
330,3.3,-0.013318108721446502,-0.04664890285174209,0.012208409026093743,0.06560541742302756,-0.046428452200488364,0.08315556874417421
331,3.31,-0.011378962653067922,-0.041356194656517214,0.010976173268125798,0.06603914787803505,-0.053583887888208316,0.0850481200420619
332,3.32,-0.006779771646793349,-0.02995807836347981,0.00990316778740453,0.06378256947282747,-0.054111721818641316,0.09390265584444432
333,3.33,-0.003958264334571848,-0.019204650405798707,0.008779662813360605,0.05723053609081605,-0.057964573926268026,0.09963311256518308
334,3.34,-0.002025970650643728,-0.009786308375822641,0.007340739912867145,0.04770338392663115,-0.06412040070909389,0.10319976908245436
335,3.35,-0.0004369574816656574,-0.0019313712693748188,0.0053448254287585765,0.038284890005496126,-0.06850500433830503,0.10689760693379716
336,3.36,0.0009062528991782002,0.004569017692764929,0.0030952952267072013,0.028952117524763617,-0.07149227449570203,0.110698934889479
337,3.37,0.0016984813770060747,0.010392483644036995,0.0007722577042793273,0.02175384690788245,-0.07618630742728244,0.11986690568725668
338,3.38,0.002440857581965906,0.015203872759417508,-0.0014247051387633947,0.015692843071925137,-0.08178970691359334,0.13189423432058395
339,3.39,0.0034995178287259426,0.01939447756618918,-0.0034643083818529635,0.011053357636021822,-0.08531316534284678,0.14247330052886029
340,3.4,0.004511369909355723,0.022805632078445836,-0.005187442871882815,0.0070905359403656155,-0.08784654112870385,0.15236297244624522
341,3.41,0.004496754222838944,0.026091626728813176,-0.006627805408868661,0.002524944020333339,-0.09409089490751073,0.15768177256143015
342,3.42,0.0043997359157472,0.02887402724951702,-0.007706853393025074,-0.0023932909331704976,-0.10250630904009436,0.16032644241477956
343,3.43,0.005047682630022247,0.0315803393356945,-0.00838126062701475,-0.008815939052141166,-0.10424764096678484,0.16401854818315745
344,3.44,0.005838297460604276,0.03374254003821049,-0.008750362418271256,-0.01608555438305486,-0.1022315418047558,0.16830034825693274
345,3.45,0.006225791287317502,0.035436270879188575,-0.00888127361903395,-0.020633810237314604,-0.10270798344732644,0.1716478796367777
346,3.46,0.006330825681267782,0.03675665892765019,-0.008833516575019709,-0.022421234841689317,-0.10571311878287926,0.17404759128603572
347,3.47,0.005857310252868271,0.037891494394369035,-0.008593208175670884,-0.0264095238912365,-0.10835820886195156,0.17380316768373755
348,3.48,0.004422359251080862,0.03937905200754965,-0.008148639126815117,-0.035545410749943336,-0.11016118975182654,0.16737438099724875
349,3.49,0.004616948838600353,0.03987201425729831,-0.00771883295831418,-0.04369367199533347,-0.11040375487841757,0.16333367365073995
350,3.5,0.005550032110556133,0.03956498798469707,-0.007315668434114662,-0.05085351721074957,-0.10908465540958116,0.16168295687217446
351,3.51,0.006164927745321094,0.03869656438994494,-0.007199756221755841,-0.05379417867123895,-0.10781879984288874,0.15887149343306564
352,3.52,0.0064685778296434595,0.03728370913125851,-0.007155794976249769,-0.052500439925671834,-0.10660638020203067,0.15489509711023386
353,3.53,0.006995735800489456,0.03483935418780024,-0.006974628825522631,-0.05131298056501096,-0.1053168897964524,0.14645421915113954
354,3.54,0.007171457323293563,0.031778506892561356,-0.006589568098090924,-0.050181401393606564,-0.10398687667875542,0.13566598023407142
355,3.55,0.00658254433204321,0.02826960629916308,-0.0060521246514314495,-0.04741139274702632,-0.10295475559774317,0.12365392879378947
356,3.56,0.005549171434698835,0.024568504908708547,-0.005395558905146411,-0.0429970456429915,-0.10222160089856897,0.11041365116060467
357,3.57,0.004350700350763798,0.020609667062677833,-0.004569468064841716,-0.0371280314148116,-0.1036395548316255,0.09933512296979333
358,3.58,0.0031165247879957397,0.016614806624419193,-0.0036701434378779837,-0.02978914244478343,-0.10723110586673104,0.09044094393406217
359,3.59,0.0018023516942754598,0.013163539187449906,-0.002554545719702716,-0.025739584428585774,-0.10634376608830944,0.07988951535452997
360,3.6,0.0005722703310663598,0.009918039695082538,-0.001433533255592652,-0.025003126116587542,-0.10094517097020918,0.0676688619233731
361,3.61,0.00047459157921608775,0.005545142422436223,-0.0007198621657815698,-0.0204658503111306,-0.0991886586666423,0.05685589158959287
362,3.62,0.00041000430847696755,0.0012943083271950862,-0.00022018450521065717,-0.014181563224561187,-0.09910619668900823,0.04668995002148758
363,3.63,0.00041249536633248347,-0.002838545758156185,0.00012909049287483329,-0.008414094193573191,-0.09776966741127173,0.04143383357768393
364,3.64,1.140022981759763e-05,-0.006533446775380742,0.000445984130953562,-0.002885499540958172,-0.09585350562357413,0.03844704850073472
365,3.65,-0.0005926687899698779,-0.010594222947086186,0.0006449942202579698,0.005675801905692283,-0.09262016520516893,0.03647268700636749
366,3.66,-0.001459441698199386,-0.014352532906882428,0.0008906768219861527,0.016203913198655863,-0.08853259123364733,0.035154915418673126
367,3.67,-0.002642124271398839,-0.01727031364627172,0.0012998162575514167,0.026732024491619447,-0.08444501726212572,0.033837143830978765
368,3.68,-0.0038792866926614564,-0.020738180939447043,0.0017449705602805207,0.03496444925974481,-0.08213033503908329,0.037121763306857146
369,3.69,-0.004979540786551909,-0.02428058465079999,0.0022148878202228345,0.04086695804447101,-0.08161497897705021,0.04507739704572485
370,3.7,-0.0047728196744998355,-0.027206085394293582,0.0025150600348244115,0.046122304445242686,-0.07827509821204666,0.05170561639808012
371,3.71,-0.004537867417106426,-0.029319532818344242,0.0028839753942254127,0.05103208062687865,-0.07342698451391838,0.05762502619690728
372,3.72,-0.004833271491786119,-0.03138063202794929,0.0033362873193860535,0.05598307016720416,-0.06872163364826697,0.0657260094918283
373,3.73,-0.005332856473819434,-0.0331772769607139,0.0038180016226063243,0.06097542170185465,-0.06415956048806075,0.07601643410951718
374,3.74,-0.005559917344714524,-0.0337212267939088,0.004641971117613142,0.06071169006367294,-0.06008747625157521,0.08813896141430244
375,3.75,-0.005725220997788594,-0.033612293024237544,0.005380753727097571,0.05726053449337212,-0.056312533892526724,0.10137252287873257
376,3.76,-0.005456432863675149,-0.033085332852535995,0.005809528135550893,0.05553583756246972,-0.05166274136854663,0.11672154514809525
377,3.77,-0.005239731455714915,-0.03246025729938979,0.005934636672941832,0.05464809496826159,-0.04658883811130718,0.13309610261094046
378,3.78,-0.004700122276246169,-0.0320155995248793,0.005948950559639593,0.05304471875620989,-0.039672054212272,0.14261792031128662
379,3.79,-0.004286724931452683,-0.03146744156397994,0.005727483609701151,0.05105971517174791,-0.031772513663104116,0.14848536375619406
380,3.8,-0.0035481718867118963,-0.03050881575373334,0.005423266963654111,0.04780282990624029,-0.02340814855652237,0.15647695808380985
381,3.81,-0.0030146331385907995,-0.029226537105988486,0.0049092716415311466,0.04383855199708856,-0.014785258244805697,0.16564995845792413
382,3.82,-0.0025877944023207774,-0.027116540546287662,0.004101733048015402,0.03937958412681029,-0.0075749610520419895,0.17230989304411307
383,3.83,-0.0023959314491067566,-0.02477227974852733,0.003191443195899874,0.034673419653281634,-0.0010705367255577202,0.1777140485053219
384,3.84,-0.0023640337397839322,-0.021122654910220254,0.0020797152492869142,0.0305869076741254,0.002585801460307429,0.1805999496386549
385,3.85,-0.0023260925413234033,-0.01767714287451999,0.0011139878200049306,0.026787861476650642,0.004920871167235089,0.18231759605598166
386,3.86,-0.0021737020320777125,-0.01495055691835456,0.0004375837709390607,0.02298881527917589,0.00725594087416275,0.1840352424733084
387,3.87,-0.001818578674473958,-0.01235464823674692,-2.1160595611288474e-05,0.01918976908170113,0.009591010581090409,0.18575288889063515
388,3.88,-0.0001677850758903803,-0.009191269404689045,-0.0002470213906080893,0.010576584732407851,0.01352806911635225,0.18563314800706746
389,3.89,0.004469840658428454,-0.004738220209681898,-0.000169053511511088,-0.01442078005519692,0.022917250793047315,0.1792601414041633
390,3.9,0.004600058705181521,8.761064777675596e-05,-0.0006301321809337988,-0.029943393727902338,0.03033874665217178,0.1732037055068642
391,3.91,0.002562409023800772,0.005025457296735326,-0.0012655192532375235,-0.035922791604829946,0.035778338169150666,0.16746612785940976
392,3.92,0.0014246858840858538,0.009577946221974132,-0.0016388655914264523,-0.04106355058389252,0.03994711942901806,0.15892850494800065
393,3.93,0.0009566824004127775,0.013892945616412604,-0.0017984483136269417,-0.04533004221518076,0.04279110176072018,0.14747188060129246
394,3.94,0.000668813356656994,0.01793226581866633,-0.0016145629023074095,-0.04804724399519173,0.04655519180252775,0.13622882423843294
395,3.95,0.0006090449123675895,0.02154206709882577,-0.0012733940726671132,-0.0499397088853257,0.05080908481474695,0.12509945699232045
396,3.96,0.0006406581440604794,0.024889291971540314,-0.0009038929058732337,-0.054023287376335334,0.05272393214833521,0.11111191572963852
397,3.97,0.0009169264896607976,0.02794124767498981,-0.0005914750765621166,-0.05911445825314913,0.05356315993627568,0.0958100316710159
398,3.98,0.0020081672335385044,0.031060172388023145,-0.0005518107143257611,-0.059793829191741775,0.0567043143576941,0.08251619702662608
399,3.99,0.003128063877934149,0.03389073429691432,-0.0006057920064954682,-0.05787435341636879,0.06120145829608421,0.0704052384633678
400,4.0,0.0036628260942100444,0.036269564859653984,-0.0006293305213689263,-0.055998148481467856,0.06325447607750175,0.05784091295613111
401,4.01,0.003901083050248444,0.03812463555133422,-0.0006880198177357391,-0.0541429490585489,0.0641210107512267,0.045056503792786036
402,4.02,0.004329456895170237,0.03896581495142054,-0.0008773178012410027,-0.04967757344650638,0.06678873406221837,0.03249523124531098
403,4.03,0.004540222425565475,0.039372079318530644,-0.001121566809864957,-0.04397198873206426,0.07031228103461087,0.0200399806833378
404,4.04,0.0024083149579327678,0.03740432295409832,-0.0010637350312185266,-0.039270978920642886,0.07263051313991313,0.012750093353409708
405,4.05,0.0005668971407271268,0.035573505009142116,-0.0011142431376773981,-0.035104029377009086,0.07430796596758169,0.008206258371226837
406,4.06,0.00035714280801722904,0.03507516138091039,-0.0014692762388084694,-0.030937079833375295,0.07598541879525028,0.0036624233890439686
407,4.07,0.0010389873756920024,0.03491963273632871,-0.0019865468577689215,-0.026770130289741498,0.07766287162291884,-0.0008814115931389012
408,4.08,0.0020791531577640052,0.03441479944064796,-0.002556277522712193,-0.022603180746107697,0.07934032445058742,-0.005425246575321771
409,4.09,0.003897291907071338,0.03328671574971464,-0.0031357694393859582,-0.017850390291767586,0.0812754877504262,-0.011655320199488077
410,4.1,0.02022776593043624,0.03437284090086516,-0.004363565223957296,-0.001629101021666482,0.08825562519065037,-0.05089542353523967
411,4.11,0.01745685239231745,0.02934388344457063,-0.004474567641485187,0.008520588257581698,0.09156226324175047,-0.07752504788088806
412,4.12,0.005310652345439808,0.021027462275218834,-0.003977664610381711,0.012373574429591696,0.09105920779314992,-0.09107666274627256
413,4.13,-0.0027463963478964737,0.012825386195035718,-0.0038949877413776562,0.02000014450121014,0.09051793063892556,-0.10125940451514356
414,4.14,-0.007757195805274833,0.004982975378791537,-0.003923041446146185,0.031403318547586774,0.0899384011894771,-0.10807057701055303
415,4.15,-0.011801649936057281,-0.0025228052639737625,-0.0036999447529594445,0.04334558787876314,0.0877339272619739,-0.11148798568269873
416,4.16,-0.014099179763899685,-0.008984020505671715,-0.003208312837388258,0.05557711976902381,0.08465755626665156,-0.1130844012277951
417,4.17,-0.01405616374816123,-0.015083548807138882,-0.002362842064364699,0.062198147879070735,0.07997674471087891,-0.11131808251337537
418,4.18,-0.012563928975661751,-0.020686322091346784,-0.0013754248517553924,0.06316134520372839,0.07367795845054295,-0.10616066343401674
419,4.19,-0.011388065307675372,-0.024686248739489464,-8.543057055093034e-07,0.05982008573338848,0.06701588126235868,-0.10358731305434392
420,4.2,-0.009732568272992518,-0.02785587659409196,0.0011119409500086439,0.054304570241975145,0.0601702995055623,-0.10231922073549976
421,4.21,-0.007187744204920626,-0.030348897053697466,0.0016733973066409835,0.04924478604818033,0.057377858529063124,-0.09403744859197308
422,4.22,-0.004347782695796857,-0.032774811113676625,0.001891058364650469,0.044415509523215616,0.056635485295527074,-0.08220817599202289
423,4.23,-0.00170392058330198,-0.03529014599836691,0.001970284233477928,0.042088967302679366,0.05676825694568453,-0.06592498044283376
424,4.24,0.0007074733563054133,-0.037842754678437895,0.0019463733689317369,0.04092562648070056,0.057307771633187725,-0.047571725201549266
425,4.25,0.0030846565900372004,-0.040769981432312474,0.002036851996039217,0.0415431043303084,0.056786540665000135,-0.027638571292676318
426,4.26,0.005049966236578121,-0.043308895410820794,0.0021149304072847217,0.04341300941462605,0.05551930070135227,-0.006594294645177454
427,4.27,0.006123604213915052,-0.04415306164570864,0.002104622253983025,0.039272752814936,0.05608970169979408,0.014063701752926636
428,4.28,0.006659635914633278,-0.044177424483668876,0.002039330717606822,0.03193309356580635,0.057638338172078925,0.03451606873233666
429,4.29,0.00688475441018116,-0.04382530439949624,0.0019471722268693775,0.02459343431667671,0.05918697464436375,0.054968435711746685
430,4.3,0.006903546529415237,-0.042201259251539225,0.0017471835481580786,0.01488615867769131,0.05849100820218515,0.07271987835466699
431,4.31,0.006689401605742478,-0.039604796721231,0.0015581933640066085,0.002550474128169701,0.055303196237113085,0.0874728903298784
432,4.32,0.0054138850377076,-0.035806538625593534,0.0011581691659615927,-0.005314843340328296,0.05545947406427286,0.09645011481633142
433,4.33,0.004137814334109295,-0.032045016753927,0.0010616671942293167,-0.01104635137777484,0.05721196316617056,0.10267042256823307
434,4.34,0.0037445048013524376,-0.028211454577383756,0.0012949849320748332,-0.016647024573504043,0.05837109028782313,0.11060353604044283
435,4.35,0.0036937952316777444,-0.024111922431887298,0.001735762523685375,-0.02211628598493869,0.058934238880109416,0.1202570081946458
436,4.36,0.003232841247632151,-0.019706991717177325,0.0026484511807471417,-0.02627133142009672,0.0605908364727124,0.12565271619853444
437,4.37,0.002500753175857154,-0.015093649389041482,0.003543232938780775,-0.02972523326048917,0.06283079690415941,0.12877687666693113
438,4.38,0.001695964769172976,-0.009415081639441472,0.0047834671891109765,-0.03613190753121648,0.0655278299751623,0.1323296397874337
439,4.39,0.0007996305583184635,-0.003617826939184065,0.005507232588306516,-0.04390462234562511,0.06843631847382574,0.1360806872707578
440,4.4,0.00029487018416422643,0.003055487849757668,0.005816495446436133,-0.05302933113033285,0.0716202850944132,0.13841973199777874
441,4.41,-0.00031385450665767406,0.009436311252053867,0.005460148967479672,-0.06284866109808558,0.07494578558509002,0.14003332450637807
442,4.42,-0.0011558321129022486,0.015721391926416042,0.0044738799935751875,-0.0681586631585725,0.07850106768999385,0.13719052964505282
443,4.43,-0.002109825739524072,0.021337176301402777,0.0030995272305660774,-0.07124865734470187,0.08216947463377769,0.13215379030777155
444,4.44,-0.004509255432420313,0.024754215968427577,0.0010756543408207359,-0.07129878304647791,0.08336791872941675,0.1316096129907172
445,4.45,-0.00629055144631116,0.028092050079434577,-0.0007837310966758554,-0.06992691243831207,0.08341095821665459,0.1331669761343209
446,4.46,-0.006623182101886137,0.03220421421112824,-0.0021080708428697185,-0.06855504183014623,0.08345399770389242,0.1347243392779246
447,4.47,-0.0040887647311248325,0.03792939143848085,-0.003160639540684989,-0.0643304035738924,0.08307514523599041,0.1384208526869203
448,4.48,0.0030866049906690075,0.046315989635716426,-0.004211062400863353,-0.051775594321712484,0.0814643550284424,0.14836375195514967
449,4.49,0.0021829837424452037,0.04808009576838761,-0.005015276138743292,-0.0436853003949425,0.07998279150652994,0.1530285989841237
450,4.5,-0.0014241946651882462,0.04731368895572829,-0.005276357702233338,-0.03848432959674039,0.07858486027713303,0.15427762205525972
451,4.51,-0.0047638466466795055,0.04677024944463407,-0.0049328136992609056,-0.034737961025759094,0.07539641208166661,0.1539220076902155
452,4.52,-0.006783373394283898,0.04628410681098009,-0.004150987862150377,-0.03173228486568076,0.07129622162185997,0.15274930206201526
453,4.53,-0.007399336698860531,0.045252949537402415,-0.0030454505285237698,-0.027130543049541718,0.06899702071065636,0.15022441391523927
454,4.54,-0.006785426039230221,0.043839514850415255,-0.001918584904466434,-0.02173304064030902,0.0675957505994231,0.1470253595404847
455,4.55,-0.0054417903567024195,0.04205835367544521,-0.0009915156535459512,-0.01632585685351044,0.06371586251060526,0.14211005506760235
456,4.56,-0.0036481631904037182,0.03960583185192458,-0.0003010119503489147,-0.010908980064518127,0.0573543803169534,0.13547643976003254
457,4.57,-0.0015872618355647853,0.03535065838818363,0.0004593396128035987,-0.0021342291779774853,0.053043610348699116,0.13125507334091188
458,4.58,0.0005819736133707582,0.030391214618709486,0.0009371753089491611,0.00861006962838486,0.04993567761625239,0.12844860207340095
459,4.59,0.002556404876908456,0.024618222504338566,0.001260691090217799,0.018220016195106305,0.04944908880838024,0.12710761203521442
460,4.6,0.004308436262235904,0.01875043270213781,0.0011810640587457803,0.0271796198478486,0.050465359859090515,0.12660680664140447
461,4.61,0.005646804756172287,0.012496168076284975,0.0009573822359547502,0.034186622974216783,0.051102113409264134,0.12418573464890192
462,4.62,0.006634239578842176,0.00640623937973725,0.00036838015403652374,0.040142225817152766,0.051534511382225735,0.12073067294941099
463,4.63,0.008027044609578066,0.00010281714433032878,-0.0005667994047449257,0.04625721678094572,0.055365159056173466,0.1224460772524902
464,4.64,0.009164809330074533,-0.006235423357511571,-0.0016258967179651547,0.0525321706975282,0.06260631219039763,0.12935059480078553
465,4.65,0.007641929993769685,-0.011508236964166347,-0.0029201158679106366,0.055774979557407005,0.06628145593685097,0.13393025422680674
466,4.66,0.0049327733265549616,-0.016338420114632192,-0.004116679002226021,0.0559698351048223,0.06637199870859108,0.13617293475429978
467,4.67,0.0033338424820495618,-0.021341695339601445,-0.004809694902376114,0.0561646906522376,0.06646254148033116,0.1384156152817928
468,4.68,0.0023768441161723737,-0.02641592636244084,-0.005054858168155283,0.05635954619965289,0.06655308425207128,0.14065829580928582
469,4.69,0.006397845030345222,-0.034085267691166043,-0.005727872678662244,0.05612421105677461,0.06858520338616944,0.1530044164411328
470,4.7,0.011619086333640508,-0.04211202820307532,-0.006274045902135793,0.055442378831021835,0.07263249439992725,0.17583694841422182
471,4.71,0.007095185863889401,-0.044126010295750376,-0.005082573456824307,0.055865793523042856,0.07740102029980413,0.1930090642031046
472,4.72,-6.834798914485095e-05,-0.04401292224471655,-0.0032111347735938973,0.05690929210867595,0.08257418531624547,0.20700547974752329
473,4.73,-0.006310784244342816,-0.04376338593425526,-0.0010383586149760207,0.05736078659876656,0.08588434183674679,0.2196250575621553
474,4.74,-0.011127664573007328,-0.04345594661167035,0.0010743142397722587,0.05721576059989356,0.08731727698781966,0.23085729376550465
475,4.75,-0.013452241623172894,-0.043426898203830964,0.002586538751024237,0.057070734601020565,0.08875021213889253,0.242089529968854
476,4.76,-0.00809938780906513,-0.046179541232238434,0.003989155083388884,0.05051639057209644,0.09800627170093308,0.25492548835709994
477,4.77,-0.005597988402321732,-0.045707436411731354,0.005321044930378688,0.040683584089150265,0.10767004088009904,0.26752003732742924
478,4.78,-0.00771891062765082,-0.04173562067948461,0.006162958037264525,0.03051177715763492,0.1140218999949362,0.2790987495007168
479,4.79,-0.00879281629128785,-0.03689495811215837,0.0063020106225384395,0.01996846172630552,0.12193339573742072,0.2896466585387644
480,4.8,-0.009289073529783065,-0.032421277990863126,0.005829573572512551,0.00924732979136854,0.13059138619581448,0.2997011904144917
481,4.81,-0.008548982356859863,-0.028308443462693966,0.005126629354787743,0.0018303353696878671,0.1407173323953082,0.3084544255104536
482,4.82,-0.007584968217770277,-0.024513259237566157,0.004184459719950019,-0.004007353595612241,0.15154492932887187,0.3165856692103525
483,4.83,-0.006400272224773874,-0.020104003611548384,0.0028237320331486937,-0.009297808342098996,0.1614194715371078,0.3173898854819145
484,4.84,-0.005217527877147207,-0.015632580020921404,0.0015595943857256763,-0.014279239728282609,0.17075582339896486,0.3140565267278363
485,4.85,-0.00455726392532716,-0.009999652569432088,-0.00033839789590023057,-0.020077471543894155,0.1714877280922195,0.3080002663817651
486,4.86,-0.0036946704689554124,-0.004605461714873469,-0.0016000442231932734,-0.026307451431190475,0.1676714551167143,0.3005047223754813
487,4.87,-0.0022785473993698294,-0.00013167268148536748,-0.001634544381316336,-0.0325374313184868,0.1638551821412091,0.2930091783691974
488,4.88,-0.00044600874041517916,0.004059291209912401,-0.0009265593537611792,-0.03876741120578312,0.1600389091657039,0.2855136343629135
489,4.89,0.0016506442077099089,0.008334662758475627,0.0001566124669780994,-0.04499739109307945,0.1562226361901987,0.2780180903566297
490,4.9,0.0030139891006475614,0.013673516067029918,0.0006005849723682193,-0.05009761909703978,0.14790558165781412,0.2680553982466816
491,4.91,0.004139634027309884,0.019472376103381817,0.0007799978106496929,-0.05401679537759447,0.13488337381448445,0.2555135296266438
492,4.92,0.005864683218655014,0.024700242692878502,0.0015799936829810602,-0.05734842530404561,0.1231370189024737,0.24329975613247196
493,4.93,0.007840421331343165,0.029446249657824046,0.002603427535157608,-0.06002961938042089,0.11280308103663868,0.23144919624792895
494,4.94,0.008534427731762712,0.03328467114409673,0.0042983120206573,-0.059194146289127225,0.09976165155485747,0.222846542011308
495,4.95,0.009508559360359398,0.03648344553627873,0.005696857841844363,-0.056343380057701765,0.08516864240390971,0.2161051620039429
496,4.96,0.01061023030149233,0.039196279480380736,0.00681374926652222,-0.05388843010980325,0.07229988126502418,0.2093439382320256
497,4.97,0.012259769993444115,0.04138659024768739,0.007010108534081255,-0.05161617350060367,0.06022696567160672,0.20257355535334776
498,4.98,0.01292466016678959,0.042804492197201005,0.00678849758420308,-0.04940177494547137,0.04768833567021469,0.19477591162603897
499,4.99,0.013652102712579372,0.043631505662874395,0.005688523636344248,-0.04721827129541778,0.034901024605138116,0.18642973361217036
500,5.0,0.014574488149078454,0.043807388448899295,0.0037941667078327836,-0.043967655647710005,0.02483747478565553,0.1815771477761257
501,5.01,0.015284544653730185,0.043346039414354165,0.0013431597379577088,-0.040195951376054695,0.016103983106788185,0.17843054139170206
502,5.02,0.014737956795249245,0.04157293508075556,-0.0013062813896932025,-0.03318395121739463,0.00932163903540882,0.17492813031588267
503,5.03,0.013558445224074558,0.039234222214377716,-0.003931323399666388,-0.02462245258209593,0.0034723271163167486,0.17125557464632124
504,5.04,0.011764408787368617,0.035577839023344444,-0.006687812302737826,-0.01769757826272256,-0.0021499790861287896,0.17256934960054418
505,5.05,0.009426605395266168,0.031734698630813865,-0.008931171366091862,-0.011562505596178987,-0.007662736940511399,0.1762894264347402
506,5.06,0.006341505500353157,0.028086034939694502,-0.010535443813682325,-0.004865574368372224,-0.013860953544268976,0.18091675806242424
507,5.07,0.0019984817700980286,0.02408226611190404,-0.011890502141083736,0.0038315528410951547,-0.022499378290466308,0.18877388365853567
508,5.08,-0.0022909582826653122,0.019141850734676683,-0.012393772175352624,0.013318868911306157,-0.03065043350392213,0.19795142993498074
509,5.09,-0.006411358630989983,0.013579680356458053,-0.012107479254450134,0.02359668998103284,-0.038313924197825984,0.2084499251656864
510,5.1,-0.009972103582539896,0.007561234608352547,-0.011111793172068195,0.030862632899484058,-0.042956245913026325,0.21772816688745286
511,5.11,-0.013006797500926263,0.0016960313029119236,-0.009409943149742382,0.03659970596487567,-0.046064981626222364,0.2263869915182201
512,5.12,-0.016164336506434424,-0.004186300845662202,-0.007143524681434049,0.040600375515497694,-0.050993739844753125,0.2309728465606799
513,5.13,-0.01870728327698129,-0.00979852511586804,-0.004649687612114088,0.0437368741990268,-0.05682828431238189,0.2335316718080304
514,5.14,-0.020594593032273567,-0.015258832747387369,-0.0017128160248088722,0.045466459090962544,-0.06071102790760272,0.23701801182645754
515,5.15,-0.021678203497255383,-0.020447219288725168,0.0009089278961913784,0.04642709357468748,-0.06352701241171782,0.2410112861475425
516,5.16,-0.02207370001197083,-0.02592625971262228,0.0031653875938160497,0.048432074387498365,-0.06765388690038668,0.2476830677256593
517,5.17,-0.021776032800964074,-0.030937110552394724,0.004739309404146295,0.05104098274919987,-0.07253882655689091,0.2559037840559486
518,5.18,-0.0204695632460934,-0.035290691328279736,0.0059502682609552885,0.05253709069513303,-0.0708370355175491,0.2651120711988431
519,5.19,-0.018726388701246384,-0.03879622944014018,0.006471001608085185,0.05342339779403524,-0.06552579762630405,0.27486153491706616
520,5.2,-0.016861805281055898,-0.041486860278277235,0.006491956356425554,0.053146154595605316,-0.061924430985914075,0.2841587862192394
521,5.21,-0.014837373585322312,-0.04333858822752589,0.005983409121657467,0.052227948206089225,-0.05926497853334005,0.2932069279522735
522,5.22,-0.011700263832457142,-0.04438340928874611,0.005170423453127748,0.050776026641886525,-0.05458766733327966,0.3050695646765895
523,5.23,-0.008635763697138596,-0.0446401221517357,0.004126160803787865,0.04905680693301489,-0.048899761109902164,0.31834177213269416
524,5.24,-0.006524862058863981,-0.043996076067250554,0.0030908628741996556,0.04444342234715922,-0.04457549445655761,0.3264667455866514
525,5.25,-0.004675349557120153,-0.04261438484699291,0.00212738075668683,0.037502905728700665,-0.04134769931027368,0.3304529454617577
526,5.26,-0.002334914272409853,-0.039729371633409484,0.0008219702977288652,0.026924773690217108,-0.0387516087440708,0.3265936502404597
527,5.27,0.00026740592345931777,-0.036545371956700524,-0.00018461748982314232,0.014648162866059581,-0.03645047426975555,0.3190711291292022
528,5.28,0.002988483500696957,-0.033528736961848306,-0.0006272677137452009,0.0023715520419020503,-0.0341493397954403,0.3115486080179447
529,5.29,0.0065637166612873355,-0.0292089990463003,-0.0010238237921660724,-0.007882930826541068,-0.03321760409471116,0.3069774929101117
530,5.3,0.010316680782669011,-0.024255245249119428,-0.0011815225516111265,-0.016103116463708808,-0.033663508283557624,0.3053755455268872
531,5.31,0.012461180277642907,-0.01950800360860044,-0.0013104557892704947,-0.023652564118796543,-0.03437202999107637,0.3016472081018988
532,5.32,0.014056389809534992,-0.0152005107665743,-0.0008584470849060176,-0.03084100389828085,-0.035221898983295065,0.2967743946338196
533,5.33,0.015162150916755074,-0.010941634933536979,0.00043449932550227235,-0.0352013548836112,-0.038067304529249626,0.2893765568733213
534,5.34,0.016110643582531954,-0.006552893335030573,0.00206503005512167,-0.0367336170747876,-0.042908246628940085,0.2794536948204037
535,5.35,0.017275309907964408,-0.00243060269830468,0.0034217492367631976,-0.03695518453762128,-0.048083343761309016,0.2729749961139581
536,5.36,0.01852022804980735,0.0018294307633573183,0.0044800395851902885,-0.03586605727211222,-0.053592595926356436,0.2699404607539844
537,5.37,0.01916378572601693,0.007689272962027722,0.005192490826399332,-0.03747603475803065,-0.05979190701319749,0.2573492178149168
538,5.38,0.019935608678850476,0.013537580014025651,0.005702903372446057,-0.0404040302063592,-0.0663281854050549,0.24009127483611015
539,5.39,0.02073964006551707,0.018557027564557394,0.006280803076166916,-0.043453807905800515,-0.07032706319296983,0.2271041446232916
540,5.4,0.02145435770499831,0.02311562714593809,0.0065013541608919465,-0.04656289220336736,-0.07309025518491277,0.21619685259762705
541,5.41,0.021863443861030733,0.02807402579568067,0.006471387139577451,-0.047676147745857635,-0.0739597480693554,0.20847312326165152
542,5.42,0.021707370831070497,0.03259522514245759,0.0059177272799311505,-0.047672100308786235,-0.07376911209764163,0.2025316130012171
543,5.43,0.021504591072227863,0.03585430444905103,0.005367496768410039,-0.04347161541815107,-0.07183952943394173,0.19524269111692735
544,5.44,0.020340810518807567,0.03841975617633561,0.004243515956803731,-0.0370323012220492,-0.06898220630997197,0.187234915523177
545,5.45,0.018690243909026433,0.03951768401219982,0.0024776417116759873,-0.032150031407228205,-0.06650958850752599,0.18234172559346298
546,5.46,0.016719818139183527,0.03926330166284151,0.0004497555860080091,-0.029759194541549863,-0.06465253923047191,0.18243219665607352
547,5.47,0.012482187662179504,0.04025135947410541,-0.0019118355714868264,-0.027368357675871514,-0.06279548995341783,0.182522667718684
548,5.48,0.0069270041796625995,0.041591664930972966,-0.004274563085579927,-0.02497752081019317,-0.06093844067636375,0.1826131387812945
549,5.49,-0.000605113074506624,0.044605027980498854,-0.004768324389494824,-0.019214809681706902,-0.0525605698683245,0.18531907443073875
550,5.5,-0.008510954615038811,0.04735050498310304,-0.004484531668323556,-0.00992570304759991,-0.03736305101069522,0.1907603322912906
551,5.51,-0.011845885360145301,0.0439264201681311,-0.0070207296629482795,-0.0001161303787391285,-0.02400799524670915,0.19764605310662467
552,5.52,-0.012981856051026973,0.037309848213191985,-0.010521191284277923,0.010227191436153341,-0.012542425130508322,0.20601310184176072
553,5.53,-0.015824745193438666,0.03191283146838989,-0.013055273548286499,0.02080548565943014,-0.0039985144937154365,0.21291478931600488
554,5.54,-0.01939717727490667,0.027081401912396625,-0.014513717715145785,0.03165024240472024,0.0012321869084266088,0.218154733354402
555,5.55,-0.022472174196455485,0.022009177783503982,-0.014861559974722164,0.038499160319753166,0.00714195565138408,0.22231163122145214
556,5.56,-0.02529489854431881,0.01706141516389629,-0.01389641404575024,0.04311307529012176,0.013431548899488116,0.2258627460514493
557,5.57,-0.02719097567669731,0.011690636316162777,-0.012015094864570577,0.045290740524974886,0.019780456662368214,0.23591682367692576
558,5.58,-0.028445932938789584,0.006237118134322291,-0.009388936086194538,0.0455758535487986,0.02617544172777158,0.2510225987689687
559,5.59,-0.02975906694950653,0.0014846915183822848,-0.006181979877282288,0.04688635531645334,0.02849403198168213,0.2563941666067957
560,5.6,-0.03040897246600913,-0.0032483878019529903,-0.002705832912173971,0.048708782798794335,0.02877748059807078,0.25690592782445204
561,5.61,-0.029910748126728275,-0.008477029119030031,0.0008051196310220705,0.047689913642087606,0.030489756913313636,0.2572897784784079
562,5.62,-0.02830992956044584,-0.01401894922244759,0.004020618965774266,0.043824059564773504,0.033633721443324334,0.25754546249145865
563,5.63,-0.025415707711080794,-0.019830951411593772,0.007001584095541507,0.04209942805918986,0.03554206348334437,0.26267616252902737
564,5.64,-0.021809142287223936,-0.02541541302230603,0.009281864600583514,0.041591301081970566,0.03674840453838149,0.27057653216936034
565,5.65,-0.019164959008721043,-0.028946094563028123,0.011006253498713902,0.04040873336105441,0.0378716718920756,0.2742373423810378
566,5.66,-0.015899407006650254,-0.03226833013707607,0.01184045958060487,0.038857710537698,0.03894955508203925,0.2755820302080794
567,5.67,-0.011243632653256501,-0.036304183215001895,0.011674695808933162,0.03730668771434159,0.04002743827200291,0.27692671803512103
568,5.68,-0.005820119062913493,-0.04037548621604976,0.010805609164907682,0.03575566489098518,0.04110532146196657,0.27827140586216265
569,5.69,-0.00012685635005480183,-0.043967938552047996,0.009473789495634289,0.03420464206762877,0.042183204651930234,0.2796160936892042
570,5.7,0.009697079204522664,-0.049438217326992925,0.009583360422747721,0.022616159214177232,0.045727883904271516,0.2607078087495017
571,5.71,0.017799744246011308,-0.05296941061370011,0.009044979573723425,0.006061459215790725,0.05049305567775928,0.23177899468305435
572,5.72,0.01836372962025789,-0.04943131255125806,0.005832251739830238,-0.0030201758338092967,0.05291840412335064,0.21032261196824548
573,5.73,0.017233616573430116,-0.04447202207979298,0.0022832915767039465,-0.00864934228133837,0.0542627815578086,0.19231840514103565
574,5.74,0.016791241957965684,-0.039979216372443394,-0.0007445267912525692,-0.015723892798179224,0.05164801778268313,0.17624403192796545
575,5.75,0.017097308718151624,-0.036094835487600646,-0.0029521869994288867,-0.023508740184279186,0.047087635769589374,0.16111802586755594
576,5.76,0.018167370493941373,-0.03245779229929818,-0.004596268338788081,-0.02789296818553737,0.04303843687832239,0.15088580211276625
577,5.77,0.01939844804482056,-0.02879287442755863,-0.005474661386687963,-0.03035353283351025,0.03927840420267464,0.1434218945424456
578,5.78,0.020308065972019305,-0.024779790402822695,-0.005946616455505168,-0.03011822415690882,0.03735883391048457,0.14105111210958962
579,5.79,0.020841605572666972,-0.020320466133732625,-0.005770805069808311,-0.02844274504211044,0.03642246245523829,0.14140114307480844
580,5.8,0.02116056051762629,-0.01541178436086544,-0.00497151597900192,-0.02901179973914547,0.035964609500500726,0.145946516411113
581,5.81,0.02094328498337749,-0.00997864508756916,-0.0037983868486971884,-0.030812983901660294,0.035769437705274146,0.15279490916549807
582,5.82,0.019879775777166625,-0.003571167545772587,-0.0021844415987011118,-0.0333147052811011,0.035228347416500404,0.16403878612841158
583,5.83,0.018272785681907277,0.0030411370323712994,-0.0006718639618440376,-0.036168221149979134,0.034513544415705005,0.17748997925613064
584,5.84,0.016584797736597955,0.009414451877720838,0.0006001403329898747,-0.03726454092423296,0.03858854481336791,0.18626557772654012
585,5.85,0.01452275348881827,0.01553054922595129,0.0014779429016631327,-0.03740675283596828,0.045264273209669116,0.19250246031991336
586,5.86,0.01250903746214167,0.02143560978729926,0.0019508144735380087,-0.03666102197228698,0.05110168241871282,0.20200856803199976
587,5.87,0.012057008286487817,0.027326456534078863,0.0022350505254893037,-0.03211256946026842,0.05334888895945407,0.22551552520917226
588,5.88,0.008884205543470925,0.031463872448820464,0.002215099782945472,-0.026544823236649945,0.059107655282467426,0.2432763920536593
589,5.89,0.004607494404181551,0.034962403220239364,0.0018775105213101888,-0.020499390681159628,0.06651209457731662,0.2583443856052106
590,5.9,0.0007453483815289593,0.0380921219293685,0.0013508572052689655,-0.015872500151669574,0.07429046042487537,0.2729670631123155
591,5.91,-0.0030167535074708185,0.040769085754396646,0.0006816773288062965,-0.012021254798035824,0.0822732857254625,0.2873462460769428
592,5.92,-0.0066614820155050415,0.042359040447014065,1.767238550027736e-05,-0.0092951082405632,0.08759106063045759,0.29965694752618016
593,5.93,-0.009992379570158081,0.043310654538157176,-0.000657506297947305,-0.007163145888398167,0.09150137615782952,0.3108752479795147
594,5.94,-0.011671559024048837,0.04378849946461981,-0.0013277999155479725,-0.004433756656580828,0.09811124356020692,0.3208132795564809
595,5.95,-0.012471472615475598,0.04352577229332394,-0.001914813936807056,-0.0011047859300373072,0.10743039874898032,0.3294664249780213
596,5.96,-0.014944090298347045,0.04258639597247554,-0.002612832149394676,-0.0012412999033378665,0.112847043601323,0.3314611487188968
597,5.97,-0.017240655659209122,0.040625570024784424,-0.003074523282612867,-0.002983275474488348,0.11645576516933145,0.3303712129571405
598,5.98,-0.017689699830432788,0.037338133592764985,-0.0032738946897140787,-0.0035945644802153924,0.11933177558474024,0.3279247827980468
599,5.99,-0.016873614566670966,0.03299092495368972,-0.003240299079384343,-0.002902338618807345,0.12136307809440708,0.32391451464159193
600,6.0,-0.01722850171001786,0.028033150728078927,-0.003106748704742071,-0.002514087911498405,0.11989084494963813,0.3225704067942982
601,6.01,-0.017239363381794676,0.022599912492981065,-0.002711006583269973,-0.0022949015055822733,0.11647002225787982,0.32270915872679623
602,6.02,-0.015861794212506067,0.016818955000806997,-0.001971823682911955,-0.0019256004192183735,0.11161657117241053,0.3188495254791941
603,6.03,-0.013579203888041971,0.010793865598736982,-0.001080852770590453,-0.0014028453976343569,0.1052986233164237,0.3109025642062317
604,6.04,-0.011716103969834933,0.004281283811933812,-1.5337972847315326e-05,-0.0018417397757234464,0.1012384881674457,0.3044463139382612
605,6.05,-0.00947289233667439,-0.00210452079424867,0.0009168731346842654,-0.002778683296448335,0.09834769985458096,0.29876211982527423
606,6.06,-0.0077533249553418705,-0.007645160991204678,0.0017034597134503095,-0.004030011179599497,0.0919604442627934,0.29154708514703603
607,6.07,-0.005323417731637684,-0.012840888463591226,0.0022003940727326927,-0.005427119165234036,0.08395187597492454,0.28362219934018
608,6.08,-0.0018644504430868243,-0.017862190923164146,0.002378801547803847,-0.006824227150868575,0.07594330768705568,0.27569731353332405
609,6.09,0.001389698914020966,-0.022381413425336973,0.0021054808448495946,-0.008601523984956543,0.06665679870460486,0.26668294451565755
610,6.1,0.004370246520595082,-0.026379228809685663,0.0016392919303119039,-0.01076191012448273,0.05608259963058471,0.2565707806304829
611,6.11,0.0069970117567620255,-0.030033307285821667,0.0014530919414546457,-0.012303561609602779,0.04713862288014477,0.25000545830464865
612,6.12,0.009340828971935538,-0.03310584086401936,0.0013872622617771202,-0.0133740505245277,0.039436050234837317,0.2461410336467777
613,6.13,0.010744525115526968,-0.035088590929971436,0.0011108071234417721,-0.013703737661053643,0.02905714474565865,0.2399965966008277
614,6.14,0.01192468138945573,-0.03633645072854703,0.0008613573906017392,-0.013626941802246214,0.017209717146237466,0.23260110118551675
615,6.15,0.011997635502205558,-0.037371308175172965,0.0007916237624637859,-0.01238723995577449,0.002971917459114428,0.2277704538849141
616,6.16,0.012078052590529211,-0.03764878286424356,0.0007901637770964637,-0.010552460744488916,-0.012489073387021585,0.22425227988261648
617,6.17,0.011944685147204911,-0.037138951522493066,0.0010240716402454184,-0.011185429270931286,-0.024511529671232556,0.22801943413521525
618,6.18,0.011885737125823932,-0.03565786037610806,0.0011555773348211054,-0.01298717781933912,-0.034905419777720686,0.2352370813160836
619,6.19,0.011234420404051119,-0.03297934161087925,0.001056725545130905,-0.013920991885776194,-0.04374098447435856,0.2456721518679263
620,6.2,0.010431944807956678,-0.029614848927563234,0.0008053216091575172,-0.014438623727613887,-0.051829318418914035,0.2576500052493781
621,6.21,0.00900322116035511,-0.026179783643656314,0.0004309908202882758,-0.014027457537146206,-0.05949150286401295,0.27252625291999394
622,6.22,0.00728331947500795,-0.022416717593180847,2.7634577940680244e-05,-0.012943437314308312,-0.0668449695910196,0.2895021995747068
623,6.23,0.005019758278434914,-0.017879656023544195,-0.0003852697583116996,-0.014766456528803444,-0.07390694415655394,0.30490954771804185
624,6.24,0.002706182181263522,-0.013047718887122617,-0.0007336384600005143,-0.018595465606849486,-0.08076777582952592,0.3192344913114437
625,6.25,0.0007202108571130955,-0.008058960857186697,-0.0009982785875622137,-0.018938093113132076,-0.08423723573695016,0.32739927074844305
626,6.26,-0.0010857580866728222,-0.0033044799602019457,-0.001152231237553252,-0.01759366166326084,-0.0860656119038415,0.3325831486697832
627,6.27,-0.0028820768020109654,0.000989533069964942,-0.0010770500965711087,-0.017797975457744426,-0.08827429098408984,0.33706899768501697
628,6.28,-0.004677226423388493,0.0049182593919461885,-0.0009545765617892446,-0.01882201815430969,-0.09068425900502156,0.3411853898958413
629,6.29,-0.006921165891857913,0.008640965399227138,-0.0008941740984754539,-0.01953832913178197,-0.0917974295017082,0.3436371749913046
630,6.3,-0.009212870735939137,0.012062840518311534,-0.0008591620917528288,-0.019944560707903587,-0.0916039092185944,0.34441165370009913
631,6.31,-0.010874436334040727,0.015146447959254147,-0.0007186023938638944,-0.01873180095617677,-0.09229997040009966,0.3411609288524183
632,6.32,-0.011977140636779675,0.017762696786438197,-0.0005813011810514351,-0.016543910872550856,-0.09353183301174482,0.33548579442794024
633,6.33,-0.012555968405460066,0.020104709185747242,-0.00048813731771353417,-0.01917043286998415,-0.0958912996144928,0.3319225158476428
634,6.34,-0.012721272184424093,0.02192440325066277,-0.00043211846244453454,-0.024880200399644337,-0.09897290630603102,0.32971171187621695
635,6.35,-0.012602465643710046,0.02327444963021065,-0.00019926899133249263,-0.02694883024300981,-0.0990746352868592,0.32794394329915444
636,6.36,-0.012151984779338914,0.02401906075220222,-2.3546120351954607e-05,-0.027008166850424942,-0.09753197489163447,0.3264206554580253
637,6.37,-0.011626297660266953,0.024231412114849103,-0.00012545499208110913,-0.0264402380495428,-0.09795223810852828,0.3226819463972913
638,6.38,-0.01071570932730218,0.023934395909637543,-0.00028545911009748663,-0.025530375942036318,-0.09944252519803552,0.3177355726173412
639,6.39,-0.009082700410397378,0.02308779486011629,-0.00041321759643598644,-0.022788652570335115,-0.10014724662371127,0.3134174563944617
640,6.4,-0.0071165819594087645,0.02192698178550283,-0.0004586006221388589,-0.019028088215404547,-0.1004150536885819,0.3094487632199748
641,6.41,-0.0045385230797194325,0.020184809351593787,-0.0004131010071260843,-0.014490993966286628,-0.0972985016691316,0.3095283133072837
642,6.42,-0.0020798563295723934,0.01844139052828901,-0.0002881297832242884,-0.00959481993866324,-0.09261696816026584,0.3114798354907901
643,6.43,-3.743075897130743e-05,0.01692157661067489,-0.00010303749258098755,-0.004698645911039854,-0.08793543465140012,0.3134313576742965
644,6.44,0.004214265463518365,0.01481159301313723,9.04076318979003e-05,-0.0027899542760278216,-0.08562107013678022,0.3141085326220493
645,6.45,0.007635727538906877,0.012852236460221812,0.00030039751986527755,-0.0024326474507917863,-0.08453596475651654,0.3141239453619921
646,6.46,0.00878677330610207,0.011376670756342844,0.0005230766908782378,-0.002075340625555751,-0.08345085937625282,0.3141393581019349
647,6.47,0.008687070921076154,0.010075538080136396,0.0007339419545775988,-0.0017180338003197158,-0.08236575399598912,0.31415477084187765
648,6.48,0.008046844041163632,0.008741183953331478,0.0009151534839872311,-0.0013607269750836805,-0.08128064861572543,0.3141701835818205
649,6.49,0.004957530751297921,0.0076482393134243085,0.0011415072311624832,-0.0005043254490556549,-0.07945978700112065,0.3088894185085653
650,6.5,-0.006277829990842535,0.007742891190919485,0.0016243933098244185,0.002507740422946288,-0.07446108462968108,0.280733672667668
651,6.51,-0.003107228969053924,0.0048714201436294595,0.001349785911490147,0.00693700343485451,-0.07257684838562503,0.2583722734911665
652,6.52,0.006845629261163262,0.0006338417205137741,0.0007511927343790157,0.012785732917557571,-0.07381206540446478,0.2418144993564256
653,6.53,0.014009537068948495,-0.003169750852502388,0.0005604796312117825,0.017329437220557187,-0.07415176515161838,0.22841058956122676
654,6.54,0.018648294300303604,-0.006283611589987349,0.0005479708996035172,0.021054447940520717,-0.0739296717201959,0.21698522281386096
655,6.55,0.020066708651523418,-0.008844529161019014,0.0005777298081305045,0.023329736239926784,-0.07989503782595131,0.20611628434966595
656,6.56,0.019919447992917907,-0.010787956637359578,0.0005906826546872911,0.02470053711812763,-0.08972078385080988,0.195594503641876
657,6.57,0.01936652233600776,-0.011940450344971371,0.0005283692117674454,0.021497208873647117,-0.09643553222090018,0.18050209332115355
658,6.58,0.018370518689142808,-0.01274049559479322,0.0004235782605424166,0.016195319565587757,-0.10172298845032728,0.16331272747414774
659,6.59,0.01606324694953277,-0.013478339532422084,0.00022580349151674875,0.014599374913604819,-0.10788996308290134,0.15011878941080967
660,6.6,0.013524224542112199,-0.014133866160813705,2.2894944443431476e-05,0.015026260773386582,-0.11453700874368873,0.13910569158616856
661,6.61,0.01065367796631837,-0.014376503866597124,-0.0004385252290516746,0.01510250736820166,-0.1253641156910313,0.1294228128363382
662,6.62,0.00804494226614538,-0.014600504669197338,-0.0007974343032747051,0.014989200245443469,-0.1384509414882464,0.12045904342767415
663,6.63,0.0052878100834859035,-0.015850885840113488,-0.001127748105708433,0.01955136252393303,-0.1481376710311597,0.11049125098440768
664,6.64,0.002932525257385553,-0.016825486853671804,-0.0012150839227143965,0.026278537334236664,-0.15624995951410736,0.10005853785284316
665,6.65,0.0010147854939453072,-0.01737148312424263,-0.00081808352760519,0.0301290547579111,-0.16343214202568326,0.1011024510628912
666,6.66,-0.0007476346541348952,-0.01728723872571533,-0.00031767422150391134,0.031946420067226165,-0.1699569480519458,0.11025776718821784
667,6.67,-0.009200285406926582,-0.018057330647426217,0.00017641898324085008,0.030580260209915614,-0.17929934534510306,0.12674678063783068
668,6.68,-0.009043385510842859,-0.015982139671680336,0.0007681614415717226,0.025507716664846424,-0.18561532259648306,0.1449133915229142
669,6.69,-0.0005918586111878163,-0.011472913344843433,0.0009532359342654842,0.020269586784268115,-0.18739147349046426,0.15836355528807933
670,6.7,-0.0019848608540925395,-0.009178923608686744,0.0011427534301006272,0.016037407091610945,-0.1883397576453821,0.17690749922539445
671,6.71,-0.008242770050971451,-0.00807140250283115,0.0011673585962355215,0.012814401786195162,-0.18845752164220125,0.2005615495533601
672,6.72,-0.011537284819554518,-0.005916106302931845,0.0004615664263714443,0.009228428277184756,-0.1834082517258478,0.2231407331714535
673,6.73,-0.013772373866002038,-0.003882991367165956,-0.0005747007927619397,0.005444854317568781,-0.17554604056718806,0.24513475769266665
674,6.74,-0.014762974747448872,-0.0025809559573345066,-0.0016525493746715433,0.005584209778929446,-0.16698951169915868,0.2647428124460748
675,6.75,-0.016001607300101063,-0.001683785858129662,-0.0026060257700090722,0.007563717090029852,-0.1581072950911532,0.2832316661610517
676,6.76,-0.018131455755377272,-0.0010086913958588422,-0.003274589088466531,0.009724435599893878,-0.15164125905023249,0.30176488562312426
677,6.77,-0.020384369287156805,-0.0003328384834709571,-0.003657745432730244,0.012028752372839815,-0.14708989128088046,0.32033326209683155
678,6.78,-0.021363832657044935,0.0009634895223156626,-0.003985060604288666,0.010704478885950846,-0.13870646910073245,0.3328565520680715
679,6.79,-0.021904664579778153,0.0022949730908335,-0.003996355077645016,0.007670278283827035,-0.1285172399060516,0.34253117173367625
680,6.8,-0.021675625999615374,0.0035373755871410148,-0.0038013171231557705,0.005329001998095488,-0.1216712185308954,0.3481905492167955
681,6.81,-0.021104254469054465,0.004684286970608662,-0.0032634536776993727,0.0033747956546878017,-0.1166927247157729,0.3516069983984764
682,6.82,-0.02031585872779007,0.006390231847614551,-0.002514005047557686,-0.0013157959367874625,-0.1119038787785694,0.35316068012109164
683,6.83,-0.019092628237334097,0.007908370642570089,-0.0015076761035545472,-0.007481121467741438,-0.1072172407312508,0.3537104511570883
684,6.84,-0.015477756557009312,0.009373514637358117,-0.0004437423782571639,-0.012716703630855622,-0.10192012505492706,0.3541544616247093
685,6.85,-0.011730092155010802,0.010380699342136307,0.0007305765434588592,-0.01746732531543134,-0.09630458008581122,0.35454330665891703
686,6.86,-0.00898677544107621,0.010774681339697976,0.0019969752554296833,-0.02221794700000705,-0.09068903511669536,0.3549321516931248
687,6.87,-0.007865824329759179,0.011918320778991855,0.003300295434050394,-0.019185835360698025,-0.07772453048718009,0.3534549552351378
688,6.88,-0.006030273554308605,0.012428673491849607,0.004376593296762149,-0.013736282308858604,-0.062477321480843485,0.35139813645257656
689,6.89,-0.001396390192918354,0.011536024318218848,0.005203851772294913,-0.008839449516530441,-0.04947265771343857,0.3455042085171671
690,6.9,0.004399730063779353,0.010148400323823565,0.0057279302098021834,-0.004492690278560246,-0.03869980074008615,0.33579154545518
691,6.91,0.009627514964216667,0.00944906768488821,0.006133622756701715,-0.0029682860339548017,-0.028426152720208712,0.33030006044695553
692,6.92,0.014113673538013061,0.009229468479562585,0.006272439793116687,-0.004274150455837903,-0.01865311339851856,0.3290415893612606
693,6.93,0.017524761454659667,0.009233132873298206,0.005994017707766738,-0.006266579580066904,-0.008064331229226337,0.32793047722218344
694,6.94,0.019758123962871573,0.009378756841110683,0.005283232355097732,-0.008657235757908133,0.00299760499181927,0.32690483746310844
695,6.95,0.021751087096466424,0.00996263525365476,0.004032768530274025,-0.01104868693248808,0.012515807710652378,0.3274605520607328
696,6.96,0.02286247332382246,0.0103660029920267,0.002621948350798307,-0.013440567878067284,0.021199476326995325,0.3288711383942466
697,6.97,0.02319020919021686,0.01039114342361374,0.0008803730063852043,-0.01333543959228455,0.028689311581354588,0.3221506180501512
698,6.98,0.022866121614317565,0.00994660262011576,-0.0006488737146667456,-0.01173082688971725,0.03546223538018204,0.31054726924024423
699,6.99,0.022110072142738937,0.008813040319228433,-0.002047052333104111,-0.009657443363318013,0.040635698523288515,0.2976973168734354
700,7.0,0.021086214880633503,0.007349942787433856,-0.0029331170002898895,-0.007341494054025466,0.04498151965789595,0.284202308644861
701,7.01,0.020361903647968936,0.005514999956724621,-0.0034547726120576156,-0.0035716768764216845,0.04845647338818235,0.2707338289441387
702,7.02,0.01952671433121614,0.003622677792402623,-0.003543410505177449,0.0011006223004741591,0.05139084005873625,0.25728181670884154
703,7.03,0.018262528046504016,0.0012369122860847702,-0.00320867302769669,0.006105706924814642,0.052342506484992855,0.2420718903912745
704,7.04,0.016758715517907974,-0.00099819770338707,-0.002657218051512392,0.011341094845271632,0.05192205040715878,0.2256454042435071
705,7.05,0.015077280909361349,-0.0028510589958279362,-0.0017319789145770236,0.013178985883076871,0.05026357586968195,0.21406519852166755
706,7.06,0.013314229464345274,-0.004209745384186135,-0.0009551020101375556,0.013465361592824824,0.04803974257459695,0.20469811576199606
707,7.07,0.01149705493148698,-0.005130524844367318,-0.0005481135194673283,0.01375173730257278,0.04581590927951195,0.1953310330023246
708,7.08,0.009601091257404505,-0.005873074463335874,-0.000434585101991407,0.014038113012320731,0.04359207598442695,0.18596395024265314
709,7.09,0.007572670734789812,-0.006643918605115101,-0.00040110765832139907,0.013256110660850064,0.04218245102919651,0.17741452223884993
710,7.1,0.0054115488597624405,-0.007491235269381157,-0.0004810489133303987,0.01133006545277109,0.04164469837162353,0.16974065703119395
711,7.11,0.00282887074676748,-0.008522093500766426,-0.0007307291807950953,0.011513050913124313,0.03937772571860574,0.16510133011601616
712,7.12,7.126226057690369e-05,-0.009625771564213795,-0.001099302058816051,0.01381606258981012,0.03537251768616848,0.16351236222634338
713,7.13,-0.0026840914385861244,-0.010971289827915542,-0.0018716102167824046,0.01850714130650135,0.028897545970745675,0.16093340050278473
714,7.14,-0.0053740794844493464,-0.012305401442854002,-0.0027460593731441357,0.025799845920933547,0.019731945788317717,0.15727591227486318
715,7.15,-0.008046803867670038,-0.01306527547662828,-0.0030824720834291934,0.0275811137334061,0.012483251461250558,0.159325466175125
716,7.16,-0.01030420324090385,-0.013332487852325672,-0.0031744757512548157,0.026838482581750464,0.0061123820782989025,0.1639884942443071
717,7.17,-0.012381484523796692,-0.013522735982061877,-0.0031575833520776694,0.028567372230230693,0.000449523219079582,0.16853493917969006
718,7.18,-0.014126603597709113,-0.013396185113587948,-0.0030296230816813617,0.03179760846345831,-0.0047832485529858216,0.17301056468690595
719,7.19,-0.016336029628627603,-0.01281302004522329,-0.002866758430928244,0.034355474318386696,-0.01276774192728089,0.1778321601013065
720,7.2,-0.01807807313409072,-0.011931028152244585,-0.0025828176533368103,0.03654408331954734,-0.022263444144318658,0.18284375757937388
721,7.21,-0.019371046438822873,-0.011115936568919488,-0.0019126729324309372,0.0382821696251185,-0.03174468851926774,0.1882958881441127
722,7.22,-0.019949347304751463,-0.010097153266831117,-0.0012084188003417822,0.03981451832680431,-0.04121933051476336,0.1939491944155835
723,7.23,-0.021250467230722745,-0.008754206384718332,-0.00035826612670042976,0.04213547352340767,-0.05093178309117382,0.19442774224419648
724,7.24,-0.02172202394703254,-0.007258898487910268,0.00033672855621764996,0.044827367137485134,-0.06075609510712944,0.19247222857322085
725,7.25,-0.02078743834631288,-0.006210983593553215,0.0004595392329081175,0.04467673614142842,-0.06585318199739304,0.19956562037662384
726,7.26,-0.0191608249234182,-0.004980474141535861,0.0005459021931075296,0.04319703508257638,-0.06873997548430255,0.2108899797235212
727,7.27,-0.017295904863337437,-0.003329762110100253,0.0008369254881152768,0.04171733402372434,-0.07162676897121206,0.2222143390704185
728,7.28,-0.015439020347800207,-0.0014657179678107136,0.0012601541795197856,0.040237632964872296,-0.07451356245812157,0.23353869841731575
729,7.29,-0.01371460550448696,0.00046440018277958206,0.0017537793591699093,0.038757931906020254,-0.07740035594503109,0.2448630577642131
730,7.3,-0.012843395246897937,0.0024081168816253704,0.0024082824770452187,0.036781472204460285,-0.08151608326436538,0.2557781757771972
731,7.31,-0.012268542456739286,0.00425754151816601,0.0030690229311702835,0.03430326131101944,-0.0868730955099177,0.26627993947803785
732,7.32,-0.010469284997692499,0.006351425050932284,0.00322586149448427,0.035405140025423575,-0.08552384124081715,0.2758081195480152
733,7.33,-0.008373859654567236,0.008077490842844046,0.0032897989398516046,0.0381563910189897,-0.08108496316406029,0.28488776284151834
734,7.34,-0.006041827214268708,0.009020493992023065,0.003501369386680525,0.040656364868150184,-0.0770862799781253,0.29551857303340306
735,7.35,-0.0037363324989578717,0.00951674664412189,0.00373514257917655,0.04290445778321085,-0.07352884942003457,0.30770427739695344
736,7.36,-0.002151543973159975,0.009624563440743463,0.003963990472952075,0.045950818997513326,-0.07071418124084362,0.3167399291491397
737,7.37,-0.0008876844490126028,0.009617247410425127,0.004092327494487024,0.049796726762937914,-0.0686434648118557,0.32262048417048805
738,7.38,0.0008223820285807723,0.010310190462634978,0.003788878261585562,0.04852200866704785,-0.06437775441493071,0.3305963147378387
739,7.39,0.002685051887521852,0.01117630310173278,0.003292009834854195,0.04324024110036079,-0.058394392766803624,0.34021176378058143
740,7.4,0.004938435829881946,0.012425905922783814,0.0028285831948258082,0.03881445339007703,-0.05046528560962565,0.3402313114944901
741,7.41,0.007012581094319207,0.013226286209261254,0.002376623208294539,0.034877931550882195,-0.04142401808525957,0.33476597894233423
742,7.42,0.009515562606500364,0.013564935644809387,0.0020813106874960447,0.02982151333087085,-0.03219888838593532,0.3344060644309915
743,7.43,0.01146431759097902,0.01315016878972715,0.0017176696722283925,0.02425106038456117,-0.022889365572747875,0.3363895472287234
744,7.44,0.01345497486284948,0.012462270400728812,0.0010586487841758995,0.025523526710819658,-0.011325073156324495,0.33357056149704
745,7.45,0.014727940426960281,0.011062257462860017,0.0004147496464580391,0.02941195822607444,-0.0022867204802773443,0.3313707879816108
746,7.46,0.015119709835182744,0.00906514713562306,-0.000134373848757686,0.03277099174327962,0.0031125337618271797,0.3320533101184247
747,7.47,0.016049451859466525,0.006593518263782438,-0.00041293961920344955,0.035781761842084966,0.01056462324123082,0.33248393880208776
748,7.48,0.017108233980952934,0.004144088499333419,-0.0006179862296767727,0.03844090906829371,0.020089350227103668,0.3326602441922159
749,7.49,0.018103638043628665,0.0025973063123167703,-0.000909484952554727,0.03821687455383403,0.031110774620697883,0.33677211542303803
750,7.5,0.0184714063135901,0.0015818509680706897,-0.0013848464525904592,0.036082702177934016,0.04312377659862618,0.34349133991656433
751,7.51,0.018274351408759396,0.0006892896561030435,-0.001958439266892544,0.03498210029683517,0.054810114564364534,0.3462077848326731
752,7.52,0.017463742833292037,-2.4360835185440084e-05,-0.0026416201755854714,0.03448332427346866,0.06630624310528344,0.3465934973366148
753,7.53,0.017104804647975095,-0.0002612452706035923,-0.0036984250838454223,0.03109915466703784,0.0754815359482604,0.3527790292274188
754,7.54,0.016304634672366373,-0.00048120453832895373,-0.004624357173299927,0.026165405414245703,0.08341044085262546,0.3620793119540201
755,7.55,0.015254661942608426,-0.000565564944680884,-0.005392770272153819,0.023931366688760603,0.09418782710750816,0.3665193127316418
756,7.56,0.01375347263215685,-0.000914477343163792,-0.005751358384341591,0.023205395689252502,0.10655638498961267,0.3682443430439981
757,7.57,0.01278726581026423,-0.002025745991199022,-0.006127687230853187,0.025445100981510496,0.1161261785073612,0.3646293191842164
758,7.58,0.011413711156189929,-0.0033172566779895952,-0.00599120645007393,0.029211898186465492,0.12425482673281375,0.35826458404870426
759,7.59,0.00929563499826311,-0.004672511616174232,-0.005632338624208463,0.02958177684770182,0.12983527869684702,0.350598945638975
760,7.6,0.006890606583842173,-0.00581852154014625,-0.004723185791864631,0.02836994508633896,0.13422921160437598,0.34232756639644674
761,7.61,0.00431925453574252,-0.006258135662049028,-0.003237059265471927,0.0244961683219642,0.13662104956640936,0.3307101812497405
762,7.62,0.0020099937243043767,-0.0066023210127398035,-0.0015455770932373699,0.019328994802782776,0.1380401014256536,0.31746702503220786
763,7.63,0.0001627208695596941,-0.007278136229394392,0.00022287988620543547,0.018079264041903773,0.1384200527960909,0.30766449013271713
764,7.64,-0.001311795052346733,-0.007990802127097787,0.0017585184926609625,0.019052282933854667,0.13821042050360013,0.2998141572976953
765,7.65,-0.0038323475270678475,-0.008510040322579383,0.0031538925967411974,0.01946531329428816,0.136827915020721,0.2930547027644652
766,7.66,-0.006435709431027311,-0.00886692974441966,0.00420557715450106,0.019317682733532647,0.1342711280546494,0.2873874363728927
767,7.67,-0.007264960906225103,-0.0091223223056103,0.004549018522572917,0.01917005217277713,0.13171434108857782,0.2817201699813203
768,7.68,-0.0032972602112826075,-0.009381818130657917,0.004505469260371242,0.01891227225872605,0.12761949000920805,0.2743326945322577
769,7.69,-0.00011206223326409165,-0.00946324365361681,0.004084070730327064,0.0185989288150225,0.12274878080257948,0.26607748010775306
770,7.7,-0.0024492517350983064,-0.009262957392457877,0.003546093892834907,0.01662650279417454,0.117849771536016,0.25895172509199604
771,7.71,-0.007369281415299578,-0.008846272411445038,0.002891670732615656,0.012977649545194724,0.11292216635042696,0.2529672372632848
772,7.72,-0.01099056897622263,-0.007974318479541182,0.001608369922469253,0.009806741687008009,0.10888153056983256,0.24869196739605806
773,7.73,-0.013617297759904036,-0.006904312853198121,0.0001512053968998632,0.007131697302724816,0.10576111651096452,0.2461899937513005
774,7.74,-0.015862480591587125,-0.0063599504611538,-0.0011260683248221655,0.0071610970159473345,0.10057498859053292,0.243092358941812
775,7.75,-0.017613941787750647,-0.006000170738310925,-0.002081701496594413,0.009928685148278582,0.09329737215379498,0.23939163068902256
776,7.76,-0.017898924002129578,-0.005598349925678286,-0.002552749422293738,0.010829315939839644,0.085669039030411,0.2403706784204247
777,7.77,-0.0172445338490151,-0.005187760236804175,-0.002761342375218742,0.008549709314749469,0.0774432834029565,0.2493214126823461
778,7.78,-0.01846026160041741,-0.004031830066787709,-0.002008828639249309,0.0063452636280553676,0.06868552116293551,0.2567753362729426
779,7.79,-0.019470886707133397,-0.002562182690681018,-0.0009774076402886394,0.004181147074256028,0.059642299935348114,0.2634261156004373
780,7.8,-0.01950021656191305,-0.0006601024805336178,0.0001741316005693307,-0.0008267472274747907,0.05321517000328823,0.2690841153674172
781,7.81,-0.01870951919602439,0.00111395343301656,0.0011011558520651948,-0.007383476922966252,0.04821286829304329,0.27420140757641515
782,7.82,-0.01816515393057122,0.0027135422483784907,0.002310148300831219,-0.012330110370013928,0.040808794065035216,0.2811959349651957
783,7.83,-0.017076094193763904,0.003933413886188881,0.003025883904783413,-0.016460534688103663,0.03218718476322434,0.28914209272540314
784,7.84,-0.016312947938370653,0.004909260855732594,0.002996810540686951,-0.01930072951271329,0.027919074832978917,0.29322052479004435
785,7.85,-0.014935735630496385,0.005577010721332223,0.0024909331271675723,-0.02138186937483082,0.0262121722839721,0.2950235350032914
786,7.86,-0.012388000258639374,0.005912765165817809,0.0017131437678942815,-0.023463009236948343,0.0245052697349653,0.29682654521653845
787,7.87,-0.009346852524195832,0.006076685393824112,0.0008660665008747904,-0.02554414909906587,0.02279836718595849,0.29862955542978553
788,7.88,-0.006203024331257365,0.0070467552140819015,0.00024242890912615353,-0.027331651010211875,0.017003812102429936,0.3002261965258417
789,7.89,-0.0032353196962506756,0.008626089497028228,-0.000121967103928029,-0.028676856158115063,0.005052166359133033,0.3015119909065303
790,7.9,-0.0006987432380247075,0.00875739826326518,-0.0005614558431194942,-0.03002206130601825,-0.006899479384163867,0.30279778528721885
791,7.91,0.0013999475869150907,0.008083022124926453,-0.0009494739088422318,-0.03136726645392145,-0.018851125127460767,0.3040835796679074
792,7.92,0.0018010943742543676,0.006920555498780318,-0.0024276654213242345,-0.032450601099002066,-0.024008774176444973,0.3028395396996085
793,7.93,0.002298623389769633,0.005748307805704405,-0.0033557564728513402,-0.03340796486239317,-0.025898221024136584,0.3003785415018205
794,7.94,0.0032922984495910605,0.004899155932057811,-0.00312791700069243,-0.031566204994654415,-0.02734630756522268,0.3025724235256738
795,7.95,0.00486099447931982,0.004319705113045202,-0.0021621778950330385,-0.028341402866621863,-0.028576318723977312,0.3070662740080611
796,7.96,0.007054997572229377,0.004260798320574655,-0.00042236674817905514,-0.029353050341512126,-0.027431984226370738,0.3069921079685062
797,7.97,0.0093773720896778,0.004361033438712343,0.0013517502395291032,-0.03296012952765924,-0.02483302319296087,0.30411937802524897
798,7.98,0.011993217171576018,0.004207226599678112,0.0029284251358026726,-0.03179419343216184,-0.019798293094743173,0.3073090805940433
799,7.99,0.014235647914413462,0.0040485617436374546,0.004026715721410358,-0.0276288979535239,-0.013232927461418268,0.3143084114097041
800,8.0,0.015842875923114605,0.003734116030852204,0.004786154931692986,-0.02347516479774773,-0.01064719295214539,0.3188755249098135
801,8.01,0.01680000261623677,0.0035883358400983487,0.00497454012518311,-0.019327602943130903,-0.010185556036691691,0.3221444610697206
802,8.02,0.01799717969839001,0.0034540608674327555,0.004725042596144206,-0.01523209070612749,-0.0037628886796042885,0.3273198391838021
803,8.03,0.018561974247192525,0.003524294681341929,0.004024328331172592,-0.011163427771646198,0.005734719801157443,0.3334786373327562
804,8.04,0.017479876143194205,0.002882597748102016,0.002684234819615281,-0.00865859430213098,0.01003684205500752,0.33665161538546995
805,8.05,0.016044576492786566,0.0025517431632844203,0.0012462417396019534,-0.006944387051127664,0.011712279161316294,0.3383150505470102
806,8.06,0.014949641263110432,0.0029421757137284648,1.2480770018402816e-05,-0.005230179800124349,0.01338771626762507,0.3399784857085504
807,8.07,0.014132567923560733,0.0035746195380519236,-0.0010121215310908026,-0.003515972549121035,0.015063153373933847,0.3416419208700906
808,8.08,0.013522805338210571,0.004122849166826023,-0.0018322511502421712,-0.0018017652981177198,0.016738590480242618,0.3433053560316308
809,8.09,0.014299190956905329,0.004457081369141959,-0.002264309847770445,0.0010950492837539206,0.020946402813433795,0.3430070973180219
810,8.1,0.023592173639965165,0.004896653213994874,-0.0012025173628981236,0.012925657996419574,0.04428458779726524,0.3278895754637445
811,8.11,0.021636103855879912,0.0036432679880441226,-0.002446309935496953,0.019932869326077317,0.059204920247019975,0.3170343274131836
812,8.12,0.01417539011697799,0.0015316160027958542,-0.0045411243024319654,0.02209928773017171,0.06567704124752803,0.3104567250213716
813,8.13,0.007927149145155412,-0.00019028874242692229,-0.005743965182500702,0.02409867005319311,0.06891114637762821,0.30289610807728473
814,8.14,0.003134794838656636,-0.001652605790795061,-0.005997133542893093,0.026004501747345227,0.0703317605600273,0.29478494164136226
815,8.15,2.0272681073343554e-05,-0.0031842459390323957,-0.005633518971537297,0.028847552219457468,0.07433430421062645,0.2843578519189246
816,8.16,-0.0019184981129721865,-0.0045921841652716185,-0.004705057349623197,0.032178378254433856,0.07968061319034964,0.27272543979877645
817,8.17,-0.0028033666853505383,-0.005998989540033492,-0.0033525117417332237,0.0356316772806668,0.08078880597380142,0.25945850639959656
818,8.18,-0.0030208320814399765,-0.00733718157808922,-0.0018767744534737983,0.03920858125668506,0.07761971170604341,0.2445419446330113
819,8.19,-0.0034506945220374513,-0.008857267258016846,0.00014605308592856238,0.04147810214566981,0.07847051949879451,0.2330447518815979
820,8.2,-0.003702992454744187,-0.00998199355150691,0.001759407485272177,0.04313407887068379,0.08120783437077952,0.22315224097480085
821,8.21,-0.0036680296171067934,-0.011064950358502442,0.003097352270551194,0.04625954436392856,0.08271883679586367,0.21071305878040436
822,8.22,-0.0035121879113362633,-0.011588081244272175,0.0036575707738422565,0.05006295462427908,0.08366408320825365,0.19709897650491012
823,8.23,-0.0030984131409871225,-0.011094654136055539,0.0036428451331902926,0.048606582427569,0.08510912843035462,0.18855187150934727
824,8.24,-0.002879224385904199,-0.010292462736171386,0.0030318694562099084,0.0443130369350553,0.08682376956212727,0.18273793898744187
825,8.25,-0.0031417807295407787,-0.009788968125422418,0.0019728826919641084,0.042704940464568485,0.08714083213573658,0.17656274860179827
826,8.26,-0.0037662523671052085,-0.009309194892360022,0.0006893304270270575,0.04247717698874952,0.08673953298262907,0.17020187003335507
827,8.27,-0.004310733111002083,-0.008910547206939356,-0.0010786422325090696,0.04489832534201379,0.08665855865623745,0.16978056564422594
828,8.28,-0.005181889116133907,-0.00835884174256378,-0.002577708540818363,0.04865149337969532,0.08673866140682078,0.17234600835518474
829,8.29,-0.006816922269914885,-0.007723789060940733,-0.0037400101697007415,0.05179806673846787,0.08726040519855134,0.17426738068130182
830,8.3,-0.008634221964717241,-0.006858569570708631,-0.004281137552949767,0.05465997018768483,0.08798940751003276,0.17588649605631915
831,8.31,-0.010203125315789924,-0.006182971460655503,-0.004355842091949977,0.05657666439640264,0.08476150181973653,0.1792909124774076
832,8.32,-0.011653580156306905,-0.005245338303684722,-0.003928626856683332,0.057946995744468974,0.07924636967993555,0.18372729319260347
833,8.33,-0.013428236392416377,-0.00398340416819959,-0.0032356120110605176,0.060569234968754215,0.07596887035382567,0.18409979481587588
834,8.34,-0.014977126179053273,-0.002402732966420437,-0.00223392424671807,0.06388806106579936,0.07393643520031437,0.1822110718860547
835,8.35,-0.016055018595883583,-0.00043282257906539787,-0.0009368567755443217,0.061827680679297815,0.07065870152635041,0.18468771914063156
836,8.36,-0.01667351273891192,0.001580276049515854,0.00043639199378569084,0.05689239217829676,0.06671542009318182,0.1894974313564264
837,8.37,-0.017138475491097385,0.003311983308702268,0.0020868157009303005,0.05662085827755285,0.06363167017514709,0.19064942951424088
838,8.38,-0.017173201045733735,0.004864950204842079,0.0034681180060699,0.058776575706697975,0.06099526347990442,0.18989777019593146
839,8.39,-0.01713809015876295,0.006300904992855424,0.004388835667236331,0.05900630238721132,0.055510120358133005,0.19205928105408504
840,8.4,-0.016560807449559713,0.007551136139436044,0.004860813764547464,0.05828310987819235,0.048615512726375,0.19566213619984596
841,8.41,-0.01617354756790071,0.0087119184519312,0.00526803571950079,0.056552926052523385,0.041350145380883135,0.199895827422626
842,8.42,-0.015064308941384353,0.009602055535800501,0.005291040856009763,0.054328330059607015,0.03390274258924162,0.2044392462734997
843,8.43,-0.01327270638777681,0.010087772618473424,0.0048697283849355524,0.0532480529472112,0.027166985250688863,0.209238897301733
844,8.44,-0.010864290740247187,0.010304000287997134,0.004166958481795567,0.052883835560246,0.020876541413833168,0.2141988861044188
845,8.45,-0.0084378302586602,0.01016661807329562,0.0033285367386353083,0.05314862151271557,0.013767432094328952,0.22133757041383875
846,8.46,-0.00564756889813053,0.009937170822871409,0.0024433712144665263,0.05370426861746546,0.006279758829791883,0.2294837181909823
847,8.47,-0.0028503345230707815,0.010099218306101224,0.0015058126785103636,0.05122862651183125,0.003468855485815496,0.23613548734456435
848,8.48,5.195498190231802e-05,0.01012798842888002,0.0006704320684632719,0.047032291784971016,0.0033126917377554336,0.2419389816908229
849,8.49,0.003326246131441735,0.009700768847989694,3.954129749814497e-05,0.04095983644863693,0.00484850448816284,0.24877913025477005
850,8.5,0.0064846461969982295,0.008967711435429331,-0.00041482239050165534,0.03299467767703214,0.008091248933086844,0.25666509591016584
851,8.51,0.008470481425001428,0.008705155842055041,-0.0008840325833399508,0.030701916894591175,0.005674337964855558,0.2641880817630359
852,8.52,0.009998097777043581,0.008144089343202335,-0.0011930982402044378,0.031301453863834684,0.0003716265541925338,0.27152598792496074
853,8.53,0.01200674113362922,0.006944496839835798,-0.0013537716622367586,0.03051932202908645,0.002111392804602202,0.2797135861399634
854,8.54,0.01369751492288503,0.005405689777683851,-0.0013509849546240837,0.0288907203045842,0.008165684556449566,0.2884217423471676
855,8.55,0.014002813006584762,0.0038835093762402133,-0.0011104706430130386,0.027307306233452285,0.008522882609467127,0.2928363371496315
856,8.56,0.01382046149616865,0.0023507295422022624,-0.0008055776717358318,0.025751178692382814,0.005439894972654019,0.2946582681687997
857,8.57,0.014347103463799851,0.0011937592024541064,-0.0005690258974027895,0.017133431408832778,0.0054820421224893254,0.2994156303343957
858,8.58,0.015019296136161032,0.0002061938918424557,-0.0003989273662970337,0.0014229247487403324,0.008663104970038648,0.3071213680210879
859,8.59,0.014275609732047041,-0.00020708260095706268,-0.00018654319107237565,-0.009472844426809249,0.008431497397677444,0.3147390964349917
860,8.6,0.013196829819011859,-0.000949620903117445,-5.2588947814846904e-05,-0.01769891538887144,0.006307616331173405,0.32230802505470363
861,8.61,0.013230619855654668,-0.0022500501492343,-0.00014465569932943772,-0.023452753528948097,0.00794240600291194,0.3322690346557368
862,8.62,0.0136521288024602,-0.003784086231639962,-0.00035631810771981354,-0.02664372709389106,0.01347365882284899,0.3447098186345552
863,8.63,0.012704441650241361,-0.005332716342670337,-0.0004841636269384572,-0.02999201618811992,0.01588300922355039,0.3556079502077686
864,8.64,0.011109829396247444,-0.0067283965784665205,-0.0005784218761933336,-0.033504895890337075,0.015026084390048431,0.3648920891986496
865,8.65,0.010506924842225427,-0.007641883016404782,-0.0007425961877029928,-0.0420607900554617,0.01795034176598129,0.3728516979249499
866,8.66,0.01029664177101345,-0.008207501426764059,-0.0009369571766833223,-0.05570223867293789,0.024687677244660124,0.3794756034059277
867,8.67,0.009400914118882837,-0.009004831137429609,-0.0011018317364620172,-0.06934368729041407,0.03142501272333895,0.3860995088869055
868,8.68,0.00814889313734347,-0.009707541626391977,-0.001242342240947097,-0.08298513590789026,0.03816234820201778,0.3927234143678833
869,8.69,0.007700224054079018,-0.007952894799885786,-0.0009237477694358999,-0.09878523995254704,0.04799299430721586,0.3977007587436807
870,8.7,0.007034658464199993,-0.006351600278760875,-0.0006903587805416782,-0.11578750972397092,0.059546320174372426,0.40176112521612617
871,8.71,0.006325304729367439,-0.005460469693750266,-0.0006356444212830634,-0.1266102402942242,0.07028567303921103,0.4031289903334442
872,8.72,0.005087474834084677,-0.005528048477043952,-0.000829555161293772,-0.1340879428628574,0.08058441659699955,0.4030393855433627
873,8.73,0.003647904776746075,-0.0060936756544652275,-0.0012599090480045587,-0.13948530966925365,0.09008783900964952,0.40588792783491023
874,8.74,0.001827530764344058,-0.00699534735218312,-0.0017644147353974046,-0.14381194322510735,0.0991819155799516,0.41024871244444855
875,8.75,0.00013261080088487146,-0.007030108164277071,-0.002066827978392469,-0.15048346803704554,0.1084946668089468,0.4052784043740671
876,8.76,-0.0016106825086232976,-0.0068899730650079745,-0.0022734042771255635,-0.15873066881591288,0.11795435892630307,0.3940379639711999
877,8.77,-0.0026889537177927176,-0.006057956490388847,-0.0026758373984856546,-0.1656900290564984,0.12789308524279872,0.37578855897219055
878,8.78,-0.003672812531956734,-0.005164284297011216,-0.002991639801321401,-0.17162844435977986,0.13821156939876988,0.3519827463998323
879,8.79,-0.005392293909317994,-0.0043969632450017206,-0.00315974176850084,-0.17611938294715182,0.14352872653485566,0.3323841905940805
880,8.8,-0.007259612043014856,-0.003990288050365895,-0.0030130320766685622,-0.17975912155373722,0.14590481428001942,0.3152597449688501
881,8.81,-0.008826728683367637,-0.003732141365117778,-0.0029301638482187495,-0.17810046123330014,0.1464847216172313,0.2936387572547003
882,8.82,-0.01000639141123721,-0.0035169108018082776,-0.0024741660021992615,-0.17372204165734545,0.1461426186723952,0.2697096171849792
883,8.83,-0.010532285879962988,-0.0036608817785869535,-0.0014476269405905712,-0.1674966368442163,0.14781019187126385,0.25323285391697553
884,8.84,-0.010673033690314387,-0.0033527572548439416,-0.00018151996674721678,-0.16030483533806442,0.1505292864035104,0.2406553921438537
885,8.85,-0.01074628189776813,-0.001716634386413402,0.0011574340186469689,-0.1549774638164576,0.1500628165491285,0.21963305940366054
886,8.86,-0.010543340987763146,0.0004538767395054445,0.0023723360178880843,-0.1507521380215946,0.1477133917709082,0.19361904875691688
887,8.87,-0.011504867716940705,0.0013938348362162916,0.0028405954024487753,-0.1374804479847803,0.14363967964143587,0.16389427408703547
888,8.88,-0.011730640559076137,0.002660364908827371,0.003195806043075626,-0.1197248137215486,0.13871130279732855,0.13233021255315788
889,8.89,-0.010280994602586793,0.004706236750393117,0.0033995966379499944,-0.09977039888083723,0.13216304034077148,0.1018726678905251
890,8.9,-0.007958227903816804,0.007094025064695206,0.0034536979846112774,-0.07711115048406478,0.12362207292474227,0.07277630678315243
891,8.91,-0.007112377680954382,0.007609073153267219,0.0041183637587992915,-0.05847703902928712,0.11508517629732705,0.046466270297634296
