,ts,ax,ay,az,wx,wy,wz
0,0.0,0.020481,-0.069552,-0.047455000000000004,-0.019135,0.009125,0.0003969999999999998
1,0.01,-0.012087,-0.00022699999999999804,-0.04314,-0.025528,0.010193,0.0036009999999999996
2,0.02,0.021011000000000002,-0.011906,-0.005483999999999999,-0.03511,0.00592,0.003601000000000001
3,0.03,0.10030899999999998,0.048635000000000005,0.056593,-0.038314999999999995,0.0037990000000000003,0.006789999999999999
4,0.04,0.095019,0.089219,0.142055,-0.034058,-0.00473,0.0036009999999999996
5,0.05,0.066742,0.066001,0.19528099999999998,-0.022338999999999998,-0.008987,0.0036009999999999996
6,0.06,0.063907,0.05600599999999999,0.221754,-0.010620000000000001,-0.010056,0.0046689999999999995
7,0.07,0.036668,0.032161,0.242846,0.004303,-0.014313,0.000397
8,0.08,-0.003644000000000001,-0.014606,0.18037999999999998,0.017075,-0.016449000000000002,0.001465
9,0.09,-0.027519,0.008292,0.131619,0.024536000000000002,-0.020706,0.0025329999999999997
10,0.1,-0.016794,0.004671,0.008371000000000003,0.025604000000000002,-0.019638,0.0014650000000000002
11,0.11,-0.009231,0.020023,0.027873000000000002,0.024536000000000002,-0.021774,0.0025329999999999997
12,0.12,-0.011161,-0.002208,0.015233000000000002,0.022415,-0.022841999999999998,0.001465
13,0.13,-0.0245,-0.040644,0.00031099999999999883,0.014953999999999999,-0.021774,-0.000656
14,0.14,-0.042467000000000005,-0.056516,-0.035134,0.012816999999999999,-0.021774,0.001465
15,0.15,-0.095742,-0.070707,-0.048043,0.00856,-0.01857,-0.0017239999999999998
16,0.16,-0.151112,-0.062959,-0.022871000000000002,0.006423999999999999,-0.017516999999999998,0.000397
17,0.17,-0.152372,-0.070186,-0.005394,0.005371,-0.012192,0.0003970000000000002
18,0.18,-0.160833,-0.008078999999999996,0.006169,0.003235,-0.00473,0.0036009999999999996
19,0.19,-0.130718,-0.010416,0.006481999999999999,0.002167,0.0005950000000000005,0.0036009999999999996
20,0.2,-0.066887,-0.0025330000000000005,0.03787,-0.0010220000000000001,0.008057,0.004669
21,0.21,-0.06646200000000001,0.010411,0.035708,-0.00209,0.013382,0.000397
22,0.22,-0.097127,0.017344,0.046938,-0.0010220000000000001,0.019775,-0.0017239999999999998
23,0.23,-0.059654,0.009904999999999999,0.013183,0.001099,0.024033000000000002,-0.002792
24,0.24,-0.046897,-0.01941400000000001,2.900000000000038e-05,3.0999999999999995e-05,0.02829,-0.005981
25,0.25,-0.049323,-0.002429999999999998,-0.031688,3.0999999999999995e-05,0.026169,-0.00386
26,0.26,-0.05519400000000001,-0.027776,-0.06634,-0.003159,0.02829,-0.002792
27,0.27,-0.015344999999999998,-0.0011040000000000008,-0.081561,-0.004227000000000001,0.029358,-0.00386
28,0.28,-0.0030139999999999998,-0.029826,-0.114203,-0.008484,0.026169,-0.0006560000000000001
29,0.29,0.024278,-0.042923,-0.100202,-0.008484,0.022964,0.000397
30,0.3,0.02588,-0.039272,-0.107563,-0.012740999999999999,0.020844,0.005737
31,0.31,0.039999,-0.020442,-0.070516,-0.017013999999999998,0.017639,0.0036009999999999996
32,0.32,0.028071,-0.009356999999999999,-0.051179,-0.019135,0.011245999999999999,0.0025329999999999997
33,0.33,0.019525,0.021461,-0.03085,-0.020203,0.009125,0.0046689999999999995
34,0.34,0.009776,0.028793,-0.007636999999999999,-0.017013999999999998,0.004868,0.0025329999999999997
35,0.35,0.022409000000000002,0.025366,-0.039593,-0.012740999999999999,0.0037990000000000003,0.0025329999999999997
36,0.36,-0.005998,0.009639,-0.040103,-0.010620000000000001,0.001663,0.0025329999999999997
37,0.37,0.006764,0.02307,-0.012868,-0.011687999999999999,-0.0004729999999999999,0.0036009999999999996
38,0.38,-0.0007640000000000008,0.0056170000000000005,-0.027808999999999997,-0.009552,-0.0004729999999999999,0.001465
39,0.39,0.005346,0.011042,-0.07914299999999999,-0.010620000000000001,-0.005797999999999999,0.0036009999999999996
40,0.4,-0.0015270000000000006,-0.002579999999999999,-0.058272000000000004,-0.009552,-0.003662,0.0003970000000000002
41,0.41,-0.015880000000000002,-0.0019010000000000001,-0.085632,-0.009552,-0.00473,0.002533
42,0.42,-0.035397000000000005,-0.009526999999999999,-0.08753999999999999,-0.009552,-0.00473,0.001465
43,0.43,-0.018432,-0.009233,-0.067665,-0.009552,-0.003662,0.001465
44,0.44,-0.035039,-0.008230000000000005,-0.015331999999999997,-0.007416,-0.006851,0.0025329999999999997
45,0.45,-0.021519,0.008423,0.009438000000000002,-0.009552,-0.00473,0.001465
46,0.46,-0.017405,0.041012,-0.035293,-0.010620000000000001,-0.006851,0.0025329999999999997
47,0.47,-0.01721,-0.006233,-0.016209,-0.009552,-0.00473,0.000397
48,0.48,-0.008178,-0.02924,-0.009478,-0.009552,-0.0004730000000000003,0.000397
49,0.49,0.020968999999999998,-0.015136000000000002,-0.006579000000000002,-0.011687999999999999,-0.003662,0.000397
50,0.5,0.000963,-0.007634000000000002,-0.031518,-0.014877000000000001,-0.0004729999999999999,0.001465
51,0.51,-0.015952,-0.007524000000000001,-0.032132,-0.020203,-0.00047300000000000006,0.001465
52,0.52,-0.00894,-0.035102999999999995,0.013697000000000004,-0.031921,0.006989,0.006789999999999999
53,0.53,0.049236,-0.057260000000000005,-0.055702,-0.04364,0.010193,0.014252
54,0.54,0.091593,-0.041533999999999995,-0.062623,-0.045776,0.008057,0.015319999999999999
55,0.55,0.135448,-0.081096,-0.11139500000000001,-0.046829,0.002731,0.019577
56,0.56,0.19708900000000001,-0.077691,-0.07562,-0.058548,0.011245999999999999,0.024902
57,0.57,0.193969,-0.045093,-0.105366,-0.071335,0.011245999999999999,0.027038999999999997
58,0.58,0.208578,0.0007259999999999992,-0.110805,-0.080917,0.008057,0.030227999999999998
59,0.59,0.234188,0.091262,-0.148333,-0.087311,0.009125,0.033431999999999996
60,0.6,0.184624,0.13263599999999998,-0.149857,-0.088379,0.008057,0.039825
61,0.61,0.25595500000000004,0.148501,-0.159689,-0.07986499999999999,0.011245999999999999,0.044083
62,0.62,0.292428,0.136651,-0.161351,-0.074524,0.012314,0.050476
63,0.63,0.25399099999999997,0.10798699999999999,-0.12104300000000001,-0.06601,0.018706999999999998,0.04834
64,0.64,0.283089,0.054875,-0.088648,-0.048964999999999995,0.026169,0.046204
65,0.65,0.29193800000000003,0.038251,-0.16789300000000001,-0.034058,0.037888,0.043015
66,0.66,0.26988,0.006857000000000002,-0.240563,-0.018066,0.050658999999999996,0.038757
67,0.67,0.19006099999999998,-0.01255,-0.32451199999999997,-0.0010220000000000003,0.055999999999999994,0.033431999999999996
68,0.68,0.137129,-0.045892,-0.421047,0.005371,0.062377999999999996,0.034485
69,0.69,0.22617199999999998,-0.060191999999999996,-0.40026,0.007492,0.065582,0.039825
70,0.7,0.29630100000000004,-0.072776,-0.432792,-0.004227000000000001,0.065582,0.046204
71,0.71,0.41288,-0.094456,-0.46686400000000006,-0.019135,0.064514,0.054733000000000004
72,0.72,0.500775,-0.08330599999999999,-0.476951,-0.036179,0.065582,0.053665
73,0.73,0.49363900000000005,-0.121169,-0.570873,-0.05215499999999999,0.068771,0.055800999999999996
74,0.74,0.48178699999999997,-0.134962,-0.579384,-0.067078,0.075165,0.053665
75,0.75,0.40998100000000004,-0.12301,-0.597857,-0.07559199999999999,0.07836900000000001,0.049408
76,0.76,0.375763,-0.148705,-0.579882,-0.083054,0.085815,0.039825
77,0.77,0.349602,-0.15812,-0.497615,-0.09584,0.093277,0.032364
78,0.78,0.33619899999999997,-0.212912,-0.5394369999999999,-0.10328699999999999,0.09967000000000001,0.027038999999999997
79,0.79,0.332728,-0.26508899999999996,-0.538909,-0.120331,0.11138900000000002,0.022781
80,0.8,0.337379,-0.231067,-0.56924,-0.13525399999999999,0.115646,0.020645
81,0.81,0.336987,-0.179707,-0.563994,-0.15123,0.125229,0.017440999999999998
82,0.82,0.32522,-0.105725,-0.610526,-0.16508499999999998,0.133759,0.019577
83,0.83,0.35432199999999997,-0.068289,-0.575451,-0.172531,0.13908399999999999,0.017440999999999998
84,0.84,0.326612,-0.043412,-0.562006,-0.178925,0.145477,0.017440999999999998
85,0.85,0.315125,-0.003640000000000001,-0.480641,-0.177856,0.15399200000000002,0.012115
86,0.86,0.303211,0.001961,-0.443309,-0.171463,0.157196,0.006790000000000001
87,0.87,0.318625,0.031653,-0.39635,-0.164017,0.16145299999999999,0.0046689999999999995
88,0.88,0.332423,0.074412,-0.406132,-0.153366,0.163589,0.001465
89,0.89,0.403733,0.09648999999999999,-0.423518,-0.142715,0.162521,-0.008118
90,0.9,0.3708,0.130273,-0.42177200000000004,-0.13205,0.16145299999999999,-0.014511000000000001
91,0.91,0.387719,0.132114,-0.42128699999999997,-0.11714200000000001,0.162521,-0.02623
92,0.92,0.308159,0.126863,-0.45930699999999997,-0.102234,0.162521,-0.039017
93,0.93,0.242459,0.078691,-0.432267,-0.09690900000000001,0.16145299999999999,-0.05285599999999999
94,0.94,0.215329,0.034628,-0.354975,-0.09690900000000001,0.160385,-0.06350700000000001
95,0.95,0.120172,-0.066491,-0.257112,-0.106491,0.16145299999999999,-0.072037
96,0.96,0.024887,-0.177122,-0.187341,-0.119278,0.17424,-0.07843
97,0.97,-0.14788900000000002,-0.385221,-0.09033300000000001,-0.13525399999999999,0.189148,-0.084824
98,0.98,-0.3161,-0.60824,0.095764,-0.15123,0.22216799999999998,-0.09120199999999999
99,0.99,-0.580225,-0.895617,0.293671,-0.173599,0.270111,-0.090149
100,1.0,-0.9751209999999999,-1.176764,0.521228,-0.19278,0.341476,-0.084824
101,1.01,-1.450042,-1.452261,0.619476,-0.206619,0.42244,-0.076294
102,1.02,-2.1580060000000003,-1.7734880000000002,0.489058,-0.223663,0.508728,-0.061386
103,1.03,-2.6772720000000003,-1.819466,0.121261,-0.249237,0.589691,-0.041138
104,1.04,-3.0816369999999997,-1.470712,-0.388516,-0.28225700000000004,0.641891,-0.018768
105,1.05,-2.936315,-0.850677,-0.950242,-0.322739,0.664261,0.004669
106,1.06,-2.214612,0.10585700000000003,-1.355484,-0.387726,0.652542,0.040878
107,1.07,-1.302837,1.318234,-1.616058,-0.472946,0.603546,0.055800999999999996
108,1.08,-0.42503100000000005,2.356302,-1.665248,-0.550705,0.534302,0.040878
109,1.09,0.490832,3.035786,-1.4817690000000001,-0.581604,0.475708,0.006790000000000001
110,1.1,1.204874,3.145057,-1.059713,-0.55603,0.41711400000000004,-0.044341999999999986
111,1.11,1.851979,2.842534,-0.8728040000000001,-0.466553,0.337219,-0.132751
112,1.12,1.741832,2.23886,-1.0110370000000002,-0.360016,0.25945999999999997,-0.250992
113,1.13,1.396526,1.482577,-1.177921,-0.275864,0.173172,-0.346878
114,1.14,0.656671,0.558045,-1.166825,-0.219406,0.100739,-0.404404
115,1.15,-0.004620999999999986,-0.308692,-1.118973,-0.202362,0.042145,-0.42677299999999996
116,1.16,-0.795921,-1.0025389999999998,-1.174858,-0.2258,-0.005798000000000001,-0.447006
117,1.17,-1.296784,-1.473588,-1.149589,-0.257751,-0.044144,-0.45233199999999996
118,1.18,-1.5993870000000001,-1.623955,-1.130193,-0.275864,-0.066513,-0.44487
119,1.19,-1.481451,-1.4325729999999999,-1.161473,-0.272675,-0.07823200000000001,-0.412918
120,1.2,-0.937059,-1.1544860000000001,-1.259774,-0.262024,-0.086746,-0.375641
121,1.21,-0.321841,-0.8126399999999999,-1.3945,-0.253494,-0.11338800000000002,-0.33515900000000004
122,1.22,0.199023,-0.48366499999999996,-1.572574,-0.243912,-0.157059,-0.30426
123,1.23,0.372854,-0.22860100000000003,-1.754152,-0.235382,-0.195404,-0.268036
124,1.24,0.75489,-0.126001,-1.8920150000000002,-0.23219299999999998,-0.23909,-0.231827
125,1.25,0.62157,-0.134892,-2.0269310000000003,-0.224731,-0.306198,-0.224365
126,1.26,0.451133,-0.201728,-2.043888,-0.21621700000000002,-0.360519,-0.21585100000000002
127,1.27,0.08867699999999999,-0.247565,-2.105872,-0.201294,-0.409531,-0.221176
128,1.28,-0.25563,-0.209209,-2.202968,-0.177856,-0.440414,-0.231827
129,1.29,-0.521039,-0.184979,-2.246356,-0.148041,-0.453201,-0.23608400000000002
130,1.3,-0.731214,-0.160004,-2.1785810000000003,-0.11821,-0.455338,-0.23075900000000002
131,1.31,-1.037987,-0.134077,-2.2039779999999998,-0.10968,-0.444687,-0.220108
132,1.32,-1.145303,-0.071176,-2.305803,-0.113953,-0.432968,-0.209457
133,1.33,-1.094401,0.079542,-2.39315,-0.12779200000000002,-0.43508900000000006,-0.20306400000000002
134,1.34,-0.9693879999999999,0.158322,-2.347634,-0.138443,-0.442551,-0.19985999999999998
135,1.35,-0.824225,0.26218,-2.262393,-0.139511,-0.458527,-0.196671
136,1.36,-0.702926,0.33213400000000004,-2.154467,-0.126724,-0.479828,-0.192413
137,1.37,-0.723428,0.316999,-2.078116,-0.11714200000000001,-0.505402,-0.193481
138,1.38,-0.749306,0.292254,-1.916691,-0.110748,-0.5256350000000001,-0.195602
139,1.39,-0.7482770000000001,0.195403,-1.8368080000000002,-0.11821,-0.554398,-0.19453399999999998
140,1.4,-0.7919039999999999,0.194714,-1.7057470000000001,-0.143768,-0.576767,-0.19134500000000002
141,1.41,-0.984635,0.312733,-1.592071,-0.17466700000000002,-0.606598,-0.175369
142,1.42,-1.248499,0.6649470000000001,-1.552992,-0.199173,-0.6204529999999999,-0.148727
143,1.43,-1.602573,1.298222,-1.600374,-0.20768699999999998,-0.623642,-0.102921
144,1.44,-1.9174200000000001,1.9737259999999999,-1.6416119999999998,-0.204498,-0.634293,-0.060318
145,1.45,-2.027562,2.6421580000000002,-1.5980370000000002,-0.17999300000000001,-0.656662,-0.015579000000000003
146,1.46,-1.803245,3.0109310000000002,-1.470127,-0.12460299999999999,-0.686493,0.031296
147,1.47,-1.61104,3.091154,-1.4357520000000001,-0.037247,-0.7131350000000001,0.063248
148,1.48,-1.4503489999999999,2.911255,-1.592774,0.07034299999999999,-0.722717,0.09840399999999999
149,1.49,-1.633688,2.618246,-1.783523,0.16514600000000002,-0.719513,0.13888499999999998
150,1.5,-1.685123,2.459294,-1.791757,0.21202100000000002,-0.704605,0.16658
151,1.51,-1.9516080000000002,2.543905,-1.561181,0.200302,-0.688629,0.162323
152,1.52,-1.9610880000000002,2.724669,-1.112643,0.152374,-0.637497,0.14421099999999998
153,1.53,-2.18034,2.622584,-0.522813,0.108688,-0.552277,0.125046
154,1.54,-2.360615,2.30615,0.288643,0.101242,-0.43615699999999996,0.10586500000000001
155,1.55,-2.196263,1.8717099999999998,0.95534,0.110825,-0.321106,0.087753
156,1.56,-1.867572,1.391614,1.29751,0.12573199999999998,-0.22311399999999998,0.068573
157,1.57,-1.440949,0.5378310000000001,1.5347879999999998,0.154495,-0.159195,0.052597000000000005
158,1.58,-1.098529,-0.3392930000000001,1.78905,0.189651,-0.096344,0.040878
159,1.59,-0.636904,-1.3209030000000002,1.813494,0.215225,-0.0271,0.045151
160,1.6,0.16515600000000005,-2.0698529999999997,1.488549,0.24078400000000003,0.0027309999999999986,0.076035
161,1.61,0.833361,-2.3695060000000003,1.018449,0.280197,-0.033493,0.12397799999999999
162,1.62,1.281317,-2.439411,0.692187,0.331329,-0.122971,0.18575999999999998
163,1.63,1.6066639999999999,-2.234437,0.408493,0.357971,-0.175171,0.264587
164,1.64,2.026103,-1.81075,0.324691,0.334534,-0.192215,0.346619
165,1.65,2.356696,-1.108479,0.07469800000000001,0.267426,-0.20606999999999998,0.410538
166,1.66,2.365431,-0.41933400000000004,-0.11984000000000002,0.179001,-0.224167,0.43928500000000004
167,1.67,2.010127,0.11265599999999999,-0.29535700000000004,0.110825,-0.212448,0.448883
168,1.68,1.436882,0.27969099999999997,-0.338462,0.06501799999999999,-0.169846,0.466995
169,1.69,0.79967,0.211017,-0.258695,0.024536000000000002,-0.132553,0.503204
170,1.7,0.347505,-0.08512400000000002,-0.030033000000000008,-0.005295,-0.11550899999999999,0.543686
171,1.71,-0.11561399999999998,-0.61077,0.219642,-0.003159000000000001,-0.10485799999999999,0.56926
172,1.72,-0.57195,-1.255773,0.37551,0.025604,-0.091019,0.5820310000000001
173,1.73,-0.935177,-1.865172,0.353141,0.06501799999999999,-0.06012000000000001,0.5948180000000001
174,1.74,-1.171697,-2.332617,0.313311,0.079926,-0.012191999999999998,0.61293
175,1.75,-1.0173459999999999,-2.72854,0.238069,0.07034299999999999,0.04747,0.624649
176,1.76,-0.7831199999999999,-2.887394,0.049992000000000016,0.043716000000000005,0.10818499999999999,0.6289060000000001
177,1.77,-0.422983,-2.4996099999999997,-0.224309,0.005371000000000001,0.167847,0.622513
178,1.78,-0.13580799999999998,-2.000953,-0.5041439999999999,-0.036179,0.238159,0.603348
179,1.79,0.189157,-1.539992,-0.8150970000000001,-0.061752,0.293549,0.573517
180,1.8,0.362955,-1.278667,-0.967066,-0.080917,0.337219,0.543686
181,1.81,0.554608,-1.227478,-1.106516,-0.08519,0.368118,0.5149229999999999
182,1.82,0.624467,-1.129677,-1.175355,-0.081985,0.380905,0.47871400000000003
183,1.83,0.640358,-1.043595,-1.347808,-0.072403,0.391556,0.436096
184,1.84,0.660879,-1.072648,-1.422632,-0.056427,0.41711400000000004,0.393478
185,1.85,0.680429,-1.0859290000000001,-1.4648450000000002,-0.030853,0.45546000000000003,0.353012
186,1.86,0.8323389999999999,-1.197558,-1.507898,-0.008484,0.48742700000000005,0.311462
187,1.87,0.9698200000000001,-1.267513,-1.657992,0.00856,0.5023350000000001,0.268845
188,1.88,1.275543,-1.239303,-1.823618,0.021347,0.490616,0.207062
189,1.89,1.1800329999999999,-1.039878,-1.7928959999999998,0.020279,0.47677600000000003,0.162323
190,1.9,0.8695780000000001,-0.801838,-1.848999,0.027739999999999997,0.471451,0.13037100000000001
191,1.91,0.354937,-0.5074,-1.930875,0.046906,0.479965,0.109055
192,1.92,-0.11206300000000002,-0.104164,-1.936591,0.068207,0.500214,0.088821
193,1.93,-0.411341,0.432137,-2.013706,0.08313,0.5374909999999999,0.060059
194,1.94,-0.67957,1.12341,-2.087792,0.079926,0.590759,0.031296
195,1.95,-0.810319,2.0242970000000002,-2.0690779999999998,0.06288099999999999,0.649338,-0.013443000000000005
196,1.96,-0.677085,2.875728,-2.0535240000000003,0.038391,0.703674,-0.058182000000000005
197,1.97,0.043136000000000015,3.674316,-2.003857,0.010695999999999999,0.748413,-0.08161900000000001
198,1.98,1.069901,4.133439,-1.795677,0.007492,0.747345,-0.082687
199,1.99,1.9260150000000003,4.226718,-1.433454,0.047974,0.714325,-0.068832
200,2.0,2.564202,4.201397,-1.200804,0.145981,0.671722,-0.039017
201,2.01,2.731657,4.073118,-1.426461,0.285522,0.619522,-0.018768
202,2.02,2.2243209999999998,3.745085,-2.035229,0.43998699999999996,0.567322,-0.024094
203,2.03,1.5741040000000002,2.982173,-2.714419,0.5742189999999999,0.5470729999999999,-0.037949000000000004
204,2.04,1.419141,2.375157,-2.6254060000000004,0.602982,0.52684,-0.025162
205,2.05,1.5728,2.068858,-1.3471819999999999,0.5145569999999999,0.508728,0.005736999999999999
206,2.06,1.344932,2.369141,0.5202309999999999,0.355835,0.47677600000000003,0.046204
207,2.07,2.281432,2.725714,1.825971,0.23866300000000001,0.432037,0.086685
208,2.08,2.45759,2.335698,3.470138,0.217346,0.313782,0.080292
209,2.09,1.622175,1.501355,4.531157,0.265289,0.22323600000000002,0.085617
210,2.1,0.9593709999999999,0.5424859999999999,4.716321,0.380341,0.138016,0.12397799999999999
211,2.11,0.359583,-0.282106,4.017139,0.5262760000000001,0.014450000000000003,0.160187
212,2.12,0.0022719999999999962,-1.040411,3.385999,0.609375,-0.069702,0.198547
213,2.13,-0.332615,-1.256216,2.445926,0.578476,-0.141083,0.218781
214,2.14,-0.591585,-0.877699,1.934525,0.449585,-0.182632,0.218781
215,2.15,-0.787623,-0.106101,1.8323939999999999,0.304703,-0.183685,0.184692
216,2.16,-0.873735,0.716942,1.732907,0.197113,-0.158127,0.090958
217,2.17,-1.123656,1.5201120000000001,1.5143280000000001,0.136398,-0.116577,-0.043274
218,2.18,-1.116945,2.035284,1.258491,0.11508199999999999,-0.098465,-0.197739
219,2.19,-0.729816,2.173453,1.116168,0.117218,-0.121902,-0.368179
220,2.2,-0.492691,1.578989,1.1123129999999999,0.105499,-0.16026300000000002,-0.531158
221,2.21,-0.189669,0.5221140000000001,1.140626,0.085251,-0.196472,-0.636627
222,2.22,0.06551600000000002,-0.636547,1.0671030000000001,0.071411,-0.23909,-0.687759
223,2.23,0.125873,-1.827667,0.879655,0.059691999999999995,-0.269974,-0.690948
224,2.24,0.089005,-2.815579,0.651418,0.037323,-0.298737,-0.657928
225,2.25,0.06464099999999999,-3.659266,0.456945,0.004303,-0.332825,-0.611053
226,2.26,-0.08577,-4.0341260000000005,0.264129,-0.031921,-0.3797,-0.576965
227,2.27,0.034655,-4.139943,0.252701,-0.041504,-0.43508900000000006,-0.543945
228,2.28,-0.108799,-3.960846,0.13969600000000001,-0.040436,-0.4841,-0.540756
229,2.29,-0.378861,-3.7347650000000003,-0.02001600000000001,-0.038314999999999995,-0.5288390000000001,-0.535431
230,2.3,-0.675868,-3.4199040000000003,-0.24289000000000002,-0.053223,-0.554398,-0.5269010000000001
231,2.31,-0.809824,-3.1884919999999997,-0.399018,-0.070267,-0.5629270000000001,-0.518387
232,2.32,-0.8754879999999999,-3.084478,-0.450517,-0.105423,-0.5863649999999999,-0.491745
233,2.33,-0.9101239999999999,-2.9653419999999997,-0.383283,-0.140579,-0.606598,-0.4534
234,2.34,-0.864247,-2.784659,-0.321849,-0.15975999999999999,-0.6279140000000001,-0.402267
235,2.35,-0.893474,-2.5128630000000003,-0.40962,-0.16188,-0.628967,-0.339417
236,2.36,-1.072471,-2.421,-0.5001720000000001,-0.152298,-0.618317,-0.263779
237,2.37,-1.34609,-2.396977,-0.705118,-0.138443,-0.593811,-0.193481
238,2.38,-1.7212009999999998,-2.321238,-0.920933,-0.11821,-0.582108,-0.119965
239,2.39,-1.997916,-2.118035,-1.170621,-0.09477200000000001,-0.593811,-0.049667
240,2.4,-2.182239,-1.823109,-1.449443,-0.061752,-0.6193850000000001,0.024902000000000004
241,2.41,-2.151675,-1.4145590000000001,-1.581333,-0.027663999999999998,-0.6332399999999999,0.097336
242,2.42,-1.7056950000000002,-0.777928,-1.5530329999999999,-0.0020900000000000016,-0.648148,0.163391
243,2.43,-1.084755,0.061236999999999986,-1.538494,0.014954000000000004,-0.674774,0.211319
244,2.44,-0.538402,0.980558,-1.4248969999999999,0.039458999999999994,-0.71846,0.235825
245,2.45,-0.06095500000000001,1.796992,-1.0844479999999999,0.077805,-0.752548,0.24968
246,2.46,0.237046,2.280934,-0.212749,0.09378099999999999,-0.703537,0.24861100000000003
247,2.47,0.080621,2.339073,0.618286,0.058624,-0.569321,0.213455
248,2.48,-1.148305,2.187937,1.203876,0.019211000000000002,-0.383957,0.16125499999999998
249,2.49,-2.559155,3.435246,0.3113360000000001,0.05223099999999999,-0.251862,0.04194600000000001
250,2.5,-3.576879,4.853026,-1.417146,0.150238,-0.199677,-0.171097
251,2.51,-2.771611,5.03828,-2.771921,0.30256700000000003,-0.260391,-0.310654
252,2.52,-1.43241,4.453087,-2.931984,0.425079,-0.354141,-0.358597
253,2.53,0.031658999999999986,3.437681,-2.07103,0.415497,-0.426575,-0.35965
254,2.54,0.380141,2.39589,-0.345492,0.247177,-0.48196400000000006,-0.323441
255,2.55,-1.679776,2.4327490000000003,1.817304,0.021347,-0.46385200000000004,-0.282959
256,2.56,-2.435622,2.560718,3.437131,-0.11288499999999999,-0.418045,-0.245667
257,2.57,-1.280928,1.9329439999999998,5.027439,-0.121399,-0.395676,-0.228622
258,2.58,0.13947499999999996,1.641256,5.668584,-0.05748000000000001,-0.34028600000000003,-0.269104
259,2.59,0.11280600000000003,1.001135,5.421875,0.06395,-0.163452,-0.385223
260,2.6,-0.233197,0.486196,4.182081,0.194977,0.138016,-0.48855600000000005
261,2.61,-0.5172329999999999,0.138793,2.795498,0.235458,0.399002,-0.54715
262,2.62,-0.246171,0.11558099999999999,1.863691,0.13533,0.534302,-0.5396880000000001
263,2.63,-0.10908,0.39964299999999997,1.674937,-0.011687999999999995,0.572647,-0.458725
264,2.64,-0.13423,1.08517,1.624671,-0.097961,0.604599,-0.32663000000000003
265,2.65,-0.42223599999999994,1.793942,1.660309,-0.116074,0.603546,-0.15193199999999998
266,2.66,-0.35684899999999997,2.550817,1.60337,-0.04364,0.5811609999999999,0.07284500000000001
267,2.67,-0.075239,2.822147,1.5894629999999998,0.095917,0.571579,0.310394
268,2.68,0.192173,2.126081,1.451043,0.253571,0.570511,0.51918
269,2.69,0.455797,0.6205350000000001,1.1532790000000002,0.362228,0.576904,0.66832
270,2.7,0.699109,-1.0635,0.736301,0.387787,0.58223,0.759933
271,2.71,0.5858270000000001,-2.541238,0.300273,0.331329,0.586487,0.796158
272,2.72,0.390572,-3.7232849999999997,-0.006001000000000006,0.226944,0.5960850000000001,0.799347
273,2.73,0.453083,-4.577475,-0.17854,0.10975599999999999,0.602478,0.7791140000000001
274,2.74,0.42537200000000003,-5.165055000000001,-0.185363,3.100000000000325e-05,0.5939479999999999,0.718399
275,2.75,0.48148500000000005,-5.462292,-0.113125,-0.07347100000000001,0.595016,0.649155
276,2.76,0.41556000000000004,-5.294616,-0.059265,-0.120331,0.614197,0.588425
277,2.77,0.462451,-4.744528,-0.012028999999999998,-0.154419,0.62059,0.5607300000000001
278,2.78,0.8820110000000001,-3.478077,-0.06815,-0.171463,0.622711,0.511734
279,2.79,1.0892979999999999,-2.701206,-0.131854,-0.18212899999999999,0.610992,0.46592700000000004
280,2.8,1.356875,-2.037881,-0.156385,-0.210892,0.5939479999999999,0.40307600000000005
281,2.81,1.440294,-1.7290889999999999,-0.16745,-0.24498000000000003,0.580109,0.323181
282,2.82,1.470977,-1.513595,-0.209456,-0.26521300000000003,0.561996,0.237961
283,2.83,1.396444,-1.369346,-0.375575,-0.263077,0.536423,0.149536
284,2.84,1.5239610000000001,-1.357169,-0.6298,-0.23326100000000002,0.485291,0.073914
285,2.85,1.7232939999999999,-1.464394,-0.8476670000000001,-0.177856,0.405396,0.007858000000000004
286,2.86,1.9564709999999998,-1.5551110000000001,-1.2093559999999999,-0.10968,0.316986,-0.051788
287,2.87,2.1751009999999997,-1.5075040000000002,-1.6394229999999999,-0.054291,0.232834,-0.099731
288,2.88,2.1827509999999997,-1.214828,-2.008341,-0.009551999999999998,0.156128,-0.140213
289,2.89,1.800841,-0.729092,-2.2463029999999997,0.035187,0.10180700000000001,-0.16684000000000002
290,2.9,1.281708,-0.120046,-2.333939,0.086319,0.084747,-0.182816
291,2.91,0.526306,0.5189159999999999,-2.299503,0.117218,0.100739,-0.181763
292,2.92,-0.25634,0.9501930000000001,-1.876539,0.119354,0.15293900000000002,-0.163651
293,2.93,-1.071748,1.1636870000000001,-1.245763,0.09378099999999999,0.21365399999999998,-0.160446
294,2.94,-1.661716,1.268254,-0.675195,0.037323,0.263718,-0.17643699999999998
295,2.95,-1.7193450000000001,1.656034,-0.347152,-0.023392,0.270111,-0.164719
296,2.96,-0.890517,2.440603,-0.323077,-0.07347100000000001,0.23176599999999997,-0.102921
297,2.97,-0.142198,3.353711,-0.545387,-0.072403,0.209396,-0.012374999999999995
298,2.98,0.29079600000000005,4.33306,-0.9136989999999999,0.008559999999999998,0.24881,0.08136
299,2.99,0.260805,4.9538709999999995,-1.386633,0.16835,0.369186,0.134628
300,3.0,-0.35915299999999994,4.786038,-1.7720939999999998,0.356903,0.533234,0.14846800000000002
301,3.01,-0.831557,4.068021,-1.805351,0.447449,0.671722,0.162323
302,3.02,-0.011306999999999956,3.196854,-0.7471700000000001,0.419754,0.744156,0.21559099999999998
303,3.03,0.9766969999999999,2.7210970000000003,1.052022,0.331329,0.735626,0.24754299999999999
304,3.04,1.7634290000000001,2.51463,2.2736560000000003,0.24504099999999998,0.730301,0.276306
305,3.05,2.960255,1.783152,3.456669,0.235458,0.62059,0.310394
306,3.06,2.680365,0.761083,4.356476,0.264221,0.462921,0.35620100000000005
307,3.07,1.8459759999999998,-0.08905000000000003,4.757752,0.318558,0.330826,0.42863500000000004
308,3.08,1.634858,-0.49263,3.7956190000000003,0.41017200000000004,0.218979,0.515991
309,3.09,1.20224,-0.594871,2.379426,0.471954,0.070908,0.574585
310,3.1,0.777482,-0.6261399999999999,1.700705,0.41017200000000004,-0.05479400000000001,0.59375
311,3.11,0.208128,0.10324299999999992,1.6579959999999998,0.252502,-0.125107,0.5607300000000001
312,3.12,-0.081847,1.38837,1.7744490000000002,0.079926,-0.16026300000000002,0.48936499999999994
313,3.13,-0.099811,2.712828,1.8167919999999997,-0.036179,-0.200729,0.365784
314,3.14,0.11360799999999999,3.727596,1.785577,-0.071335,-0.208191,0.17404199999999995
315,3.15,0.606228,4.146547,1.668838,-0.030853,-0.22630300000000003,-0.07415799999999999
316,3.16,1.27494,3.934945,1.504795,0.059692,-0.295547,-0.348999
317,3.17,1.5997270000000001,2.2511759999999996,1.57077,0.189651,-0.42336999999999997,-0.6930850000000001
318,3.18,1.3191979999999999,0.623003,1.438685,0.23866300000000001,-0.486221,-0.835831
319,3.19,0.9022879999999999,-1.136896,1.022681,0.22587600000000002,-0.5341640000000001,-0.878433
320,3.2,0.5927819999999999,-2.613689,0.60715,0.154495,-0.5916899999999999,-0.84967
321,3.21,0.340886,-3.760807,0.308083,0.051162999999999986,-0.6641239999999999,-0.7868189999999999
322,3.22,-0.054546999999999964,-4.728519,0.262734,-0.028732,-0.733368,-0.7090609999999999
323,3.23,-0.354865,-5.288028,0.171227,-0.067078,-0.777039,-0.630234
324,3.24,-0.645868,-5.347346,0.136907,-0.089447,-0.805801,-0.579102
325,3.25,-1.165129,-5.106812000000001,0.06612,-0.091568,-0.812195,-0.553528
326,3.26,-1.308492,-4.722042,-0.016614000000000004,-0.09690900000000001,-0.80687,-0.521576
327,3.27,-1.672122,-4.212461,-0.186094,-0.120331,-0.783432,-0.5056
328,3.28,-2.037045,-3.723042,-0.20166800000000001,-0.17040999999999998,-0.740829,-0.45553599999999994
329,3.29,-1.708811,-3.487211,-0.180746,-0.211945,-0.691818,-0.39801
330,3.3,-1.6239379999999999,-3.326481,-0.161075,-0.249237,-0.646011,-0.336227
331,3.31,-1.6058350000000001,-3.076407,-0.175053,-0.260956,-0.598083,-0.259521
332,3.32,-1.491059,-2.942302,-0.278273,-0.24710100000000002,-0.535233,-0.175369
333,3.33,-1.811152,-2.803945,-0.395905,-0.206619,-0.47131300000000004,-0.09227
334,3.34,-1.951746,-2.650084,-0.567779,-0.152298,-0.41699200000000003,-0.009186
335,3.35,-1.988421,-2.496274,-0.810337,-0.09477200000000001,-0.38716100000000003,0.055800999999999996
336,3.36,-1.8586639999999999,-2.255303,-1.075259,-0.045776,-0.378632,0.09414700000000001
337,3.37,-1.838338,-1.8561020000000001,-1.225055,-0.017013999999999998,-0.367981,0.132492
338,3.38,-1.471298,-1.208322,-1.315742,-0.009552,-0.347748,0.18043499999999998
339,3.39,-0.863072,-0.227077,-1.525552,-0.018066,-0.344543,0.224106
340,3.4,-0.367809,0.862282,-1.75737,-0.037247,-0.399933,0.252869
341,3.41,0.14002799999999999,1.788836,-1.6427,-0.055359000000000005,-0.460663,0.265656
342,3.42,0.67774,2.410311,-1.021565,-0.072403,-0.48516800000000004,0.265656
343,3.43,0.829938,2.674888,-0.31948499999999996,-0.10968,-0.442551,0.237961
344,3.44,0.10856100000000002,2.583034,0.394009,-0.15123,-0.33815,0.18575999999999998
345,3.45,-0.8463149999999999,3.183563,0.15384600000000004,-0.142715,-0.249741,0.103729
346,3.46,-1.76951,4.330123,-1.103106,-0.06601,-0.22311399999999998,-0.057114
347,3.47,-1.65733,4.907646,-2.599972,0.075668,-0.304062,-0.212646
348,3.48,-0.3713420000000001,4.761044,-3.5919269999999996,0.23971599999999998,-0.44573999999999997,-0.297867
349,3.49,0.41893800000000003,4.051991,-3.3390809999999997,0.338791,-0.5852970000000001,-0.331955
350,3.5,0.832033,2.775644,-2.003725,0.27807600000000005,-0.6641239999999999,-0.35220300000000004
351,3.51,-0.208873,1.855218,0.10608499999999997,0.075668,-0.717392,-0.346878
352,3.52,-2.479765,2.227936,2.131232,-0.130997,-0.685425,-0.311722
353,3.53,-2.2021450000000002,2.919458,3.2948269999999997,-0.240707,-0.683304,-0.27975500000000003
354,3.54,-1.165189,2.705679,4.903208,-0.23751799999999998,-0.682236,-0.313843
355,3.55,0.035996999999999946,2.5488869999999997,5.4229769999999995,-0.16508499999999998,-0.571442,-0.394806
356,3.56,-0.099905,1.830466,5.409969,-0.045776,-0.388229,-0.508789
357,3.57,-0.724642,0.801638,4.584319,0.10336300000000001,-0.120834,-0.598282
358,3.58,-0.701746,0.352785,3.097587,0.188583,0.11350999999999999,-0.629166
359,3.59,-0.872455,0.2767,1.557226,0.13105799999999998,0.287155,-0.552475
360,3.6,-0.906544,0.56553,1.575821,0.034119,0.375565,-0.438492
361,3.61,-1.128974,1.1167040000000001,1.7048,-0.047897,0.432037,-0.30532800000000004
362,3.62,-1.325791,1.621913,1.787823,-0.048964999999999995,0.45333900000000005,-0.134888
363,3.63,-0.8374940000000001,2.042365,1.6230200000000001,0.031998,0.470383,0.085617
364,3.64,-0.319212,2.118668,1.570314,0.159821,0.48317,0.308258
365,3.65,0.112256,1.426644,1.443606,0.287659,0.5066069999999999,0.49681099999999995
366,3.66,0.519393,0.18354099999999995,1.251592,0.362228,0.533234,0.644882
367,3.67,0.773717,-1.3152709999999999,0.9553719999999999,0.368622,0.55986,0.743958
368,3.68,0.9063620000000001,-2.648476,0.611568,0.301514,0.577972,0.801483
369,3.69,0.891948,-3.7630790000000003,0.349247,0.19072,0.576904,0.821716
370,3.7,0.864648,-4.667925,0.23531300000000002,0.07034300000000003,0.567322,0.797226
371,3.71,0.682844,-5.302487,0.24456999999999998,-0.034058,0.551346,0.7397
372,3.72,0.52722,-5.539185,0.331049,-0.110748,0.551346,0.67897
373,3.73,0.530517,-5.300921,0.287068,-0.16188,0.555603,0.626785
374,3.74,0.732168,-4.75036,0.127494,-0.19278,0.55986,0.5948180000000001
375,3.75,0.992007,-3.897239,-0.069918,-0.213013,0.536423,0.5607300000000001
376,3.76,1.3274920000000001,-3.0489290000000002,-0.271869,-0.210892,0.512985,0.5362239999999999
377,3.77,1.57331,-2.311845,-0.500798,-0.224731,0.478897,0.492554
378,3.78,1.8772669999999998,-1.9275229999999999,-0.508662,-0.271606,0.45333900000000005,0.432907
379,3.79,2.006168,-1.6836970000000002,-0.573709,-0.3302,0.424576,0.35620100000000005
380,3.8,1.889113,-1.619008,-0.534177,-0.380264,0.390488,0.257126
381,3.81,1.715375,-1.485726,-0.637862,-0.39198299999999997,0.342545,0.163391
382,3.82,1.62999,-1.47238,-0.7511,-0.362152,0.287155,0.080292
383,3.83,1.614843,-1.428972,-1.0419459999999998,-0.301437,0.224304,0.009995000000000004
384,3.84,1.797396,-1.461976,-1.446947,-0.240707,0.14866600000000002,-0.042206
385,3.85,1.8930330000000002,-1.462332,-1.862539,-0.195969,0.07304400000000001,-0.080551
386,3.86,1.773134,-1.27945,-2.143615,-0.172531,0.012314,-0.095474
387,3.87,1.311991,-0.8443780000000001,-2.288727,-0.168274,-0.020706,-0.09440599999999999
388,3.88,0.549012,-0.22399000000000008,-2.301533,-0.154419,-0.023895,-0.095474
389,3.89,-0.231697,0.410925,-2.3074049999999997,-0.137375,0.011245999999999999,-0.083755
390,3.9,-0.669049,0.956986,-2.020773,-0.129929,0.064514,-0.07310499999999999
391,3.91,-1.129674,1.346977,-1.4362270000000001,-0.13205,0.115646,-0.079498
392,3.92,-1.598367,1.63696,-0.8268639999999999,-0.153366,0.164642,-0.095474
393,3.93,-1.478913,2.065577,-0.553002,-0.175735,0.19128399999999998,-0.095474
394,3.94,-0.707494,2.596634,-0.47060799999999997,-0.185318,0.192352,-0.056061
395,3.95,0.14206199999999994,3.303299,-0.584932,-0.155487,0.187027,0.009995
396,3.96,0.649109,3.982735,-0.8894120000000001,-0.057479999999999996,0.22323600000000002,0.073914
397,3.97,0.6491600000000001,4.569486,-1.315744,0.103363,0.316986,0.127167
398,3.98,0.069496,4.793628,-1.326697,0.257828,0.44055200000000005,0.160187
399,3.99,-0.27832199999999996,4.647611,-0.896033,0.343048,0.536423,0.213455
400,4.0,0.14391199999999998,4.270695,0.775828,0.300446,0.557739,0.257126
401,4.01,0.426979,4.41222,2.152416,0.184326,0.558792,0.299744
402,4.02,2.280841,4.177148000000001,3.431654,0.076736,0.45120200000000005,0.374313
403,4.03,3.6217940000000004,2.85129,4.737012,0.061828999999999995,0.270111,0.445679
404,4.04,3.447223,1.18117,5.4608099999999995,0.16835,0.08048999999999999,0.480835
405,4.05,2.300464,0.06747900000000001,4.698105,0.387787,-0.003661999999999999,0.50853
406,4.06,1.690003,-0.247221,2.563385,0.613632,-0.05372600000000001,0.51918
407,4.07,1.3943159999999999,-0.9215180000000001,1.296398,0.711639,-0.199677,0.482971
408,4.08,0.410574,-1.110892,1.0519690000000002,0.631744,-0.289154,0.405197
409,4.09,-0.40675100000000003,-0.32565,0.836838,0.445312,-0.265717,0.30188000000000004
410,4.1,-0.722182,0.8516219999999999,0.8912629999999999,0.22799699999999998,-0.269974,0.158066
411,4.11,-1.111075,2.0139720000000003,0.985883,0.043716000000000005,-0.29341100000000003,0.011063000000000005
412,4.12,-0.942817,2.851841,0.9782770000000001,-0.06387299999999999,-0.279572,-0.13914499999999996
413,4.13,0.013405000000000002,3.2700970000000003,0.9241879999999999,-0.10968,-0.32217399999999996,-0.31279
414,4.14,0.706279,3.11025,1.041491,-0.09902999999999999,-0.434036,-0.48748800000000003
415,4.15,1.081568,2.2313959999999997,1.334007,-0.055359000000000005,-0.5288390000000001,-0.614258
416,4.16,1.339859,1.0432620000000001,1.493541,-0.006348,-0.587433,-0.680298
417,4.17,1.177345,-0.420749,1.5180879999999999,0.023468,-0.631104,-0.700546
418,4.18,0.6763939999999999,-1.917571,1.456659,0.009628,-0.659866,-0.680298
419,4.19,0.22748000000000002,-3.049715,1.431225,-0.027663999999999998,-0.681168,-0.631302
420,4.2,-0.146021,-3.819894,1.3925049999999999,-0.058548,-0.720581,-0.583359
421,4.21,-0.538582,-4.193341,1.3208010000000001,-0.061752,-0.755737,-0.546082
422,4.22,-0.8595370000000001,-4.151617,1.1280620000000001,-0.041504,-0.7845,-0.513062
423,4.23,-1.043891,-3.858796,0.8496540000000001,-0.015944999999999997,-0.796219,-0.49600200000000005
424,4.24,-1.507509,-3.5271239999999997,0.552978,-0.00209,-0.8036800000000001,-0.482162
425,4.25,-1.63478,-3.248065,0.20580500000000002,-0.010620000000000001,-0.795151,-0.445938
426,4.26,-1.6674639999999998,-3.110318,0.054188,-0.057479999999999996,-0.775986,-0.390549
427,4.27,-1.518741,-3.0698939999999997,-0.122511,-0.12886,-0.7536010000000001,-0.323441
428,4.28,-1.6686779999999999,-3.1123380000000003,-0.159178,-0.198105,-0.716324,-0.261658
429,4.29,-1.596832,-3.106008,-0.29745900000000003,-0.24710100000000002,-0.665192,-0.184952
430,4.3,-1.3676540000000001,-2.971148,-0.510675,-0.270538,-0.61087,-0.112518
431,4.31,-1.585229,-2.909965,-0.656638,-0.279068,-0.533096,-0.016647
432,4.32,-1.853334,-2.905744,-0.767262,-0.267349,-0.478775,0.036621
433,4.33,-2.002215,-2.878899,-0.9619270000000001,-0.24177600000000002,-0.42976400000000003,0.08136
434,4.34,-1.873476,-2.655688,-1.309788,-0.198105,-0.406326,0.11438
435,4.35,-1.7750240000000002,-2.426148,-1.616733,-0.149094,-0.39888,0.14421099999999998
436,4.36,-1.496246,-2.0778,-1.590698,-0.11181600000000001,-0.362656,0.177231
437,4.37,-1.123726,-1.509957,-1.502999,-0.106491,-0.341354,0.211319
438,4.38,-0.830285,-0.795326,-1.495927,-0.129929,-0.348801,0.231567
439,4.39,-0.42918,-0.0014730000000000019,-1.294961,-0.185318,-0.380768,0.25393699999999997
440,4.4,0.192876,0.721583,-0.648885,-0.267349,-0.399933,0.285889
441,4.41,0.622253,1.4935450000000001,0.07912199999999997,-0.355759,-0.389282,0.302933
442,4.42,0.272437,2.077413,1.043506,-0.405823,-0.32856799999999997,0.302933
443,4.43,-0.934657,3.5709230000000005,0.8264440000000001,-0.355759,-0.23481799999999997,0.194275
444,4.44,-2.587213,4.929868,-0.36919700000000016,-0.214081,-0.168777,-0.03369099999999998
445,4.45,-2.6738779999999998,5.396138,-1.8520740000000002,0.004303,-0.20606999999999998,-0.222244
446,4.46,-1.71459,4.956308,-2.778564,0.23439000000000002,-0.31045500000000004,-0.30958600000000003
447,4.47,-1.1003379999999998,3.920582,-2.528143,0.356903,-0.39355500000000004,-0.344742
448,4.48,-0.48668599999999995,2.508245,-1.479558,0.321747,-0.42976400000000003,-0.361786
449,4.49,-1.077618,1.550024,0.4364509999999999,0.17686500000000002,-0.440414,-0.35646100000000003
450,4.5,-2.68704,1.983441,1.841488,0.01921100000000001,-0.358398,-0.346878
451,4.51,-2.788049,2.2873259999999997,3.0949259999999996,-0.08091700000000003,-0.288086,-0.353271
452,4.52,-1.3343690000000001,2.1651700000000003,4.421856,-0.141647,-0.250809,-0.401199
453,4.53,0.08103399999999994,2.2349200000000002,5.052559,-0.138443,-0.175171,-0.478958
454,4.54,0.356734,1.872105,5.026285,-0.070267,-0.015381000000000006,-0.621704
455,4.55,0.17840999999999999,1.155453,4.359871,0.066086,0.225372,-0.736755
456,4.56,0.17998599999999998,0.5904510000000001,3.38475,0.181137,0.452271,-0.778305
457,4.57,0.7370750000000001,0.496846,2.434134,0.17793299999999998,0.541748,-0.749542
458,4.58,1.028944,0.775569,1.790588,0.11296099999999999,0.501266,-0.6462100000000001
459,4.59,0.8717239999999999,1.28336,1.499765,0.084198,0.49382,-0.470444
460,4.6,0.361867,1.908357,1.3713950000000001,0.087387,0.501266,-0.275497
461,4.61,0.200903,2.4962470000000003,1.281588,0.137451,0.494888,-0.058182000000000005
462,4.62,0.02545,2.859593,1.191267,0.243988,0.485291,0.165512
463,4.63,-0.334867,2.430819,1.266347,0.37606799999999996,0.534302,0.36473099999999997
464,4.64,-0.593766,1.2305360000000003,1.269116,0.48472600000000005,0.607803,0.525574
465,4.65,-0.68587,-0.3030360000000001,1.1968159999999999,0.532669,0.689819,0.648087
466,4.66,-0.675904,-1.8103630000000002,0.839376,0.508163,0.766525,0.7397
467,4.67,-0.904494,-3.242717,0.467801,0.43147299999999994,0.828308,0.786575
468,4.68,-1.076085,-4.338215,0.220241,0.320679,0.87944,0.798294
469,4.69,-1.440707,-5.033273,0.172792,0.21629299999999999,0.928452,0.783371
470,4.7,-1.244332,-5.339748,0.21897600000000003,0.126801,0.989166,0.773788
471,4.71,-0.877389,-5.136342,0.212515,0.045837,1.04776,0.751419
472,4.72,-0.220166,-4.5933779999999995,0.10088899999999999,-0.020203,1.0807799999999999,0.7322390000000001
473,4.73,0.418363,-3.9706129999999997,-0.02342899999999999,-0.040436,1.095688,0.7205199999999999
474,4.74,1.057052,-3.333849,-0.172868,-0.067078,1.093567,0.708801
475,4.75,1.74482,-2.77339,-0.26672399999999996,-0.134186,1.083969,0.677917
476,4.76,2.369247,-2.341558,-0.359452,-0.21621700000000002,1.057343,0.617188
477,4.77,2.6341069999999998,-1.949772,-0.467204,-0.305695,1.0243229999999999,0.521317
478,4.78,2.639882,-1.662666,-0.480919,-0.370682,0.982773,0.404144
479,4.79,2.713193,-1.484424,-0.613821,-0.39624000000000004,0.9177860000000001,0.29441799999999996
480,4.8,2.633252,-1.4483979999999999,-0.763573,-0.37493899999999997,0.829376,0.196411
481,4.81,2.5095110000000003,-1.5460200000000002,-0.8717959999999999,-0.33552600000000005,0.735626,0.112259
482,4.82,2.381903,-1.644267,-1.057401,-0.304626,0.645081,0.056870000000000004
483,4.83,2.305784,-1.56615,-1.1544,-0.297165,0.5630649999999999,0.019577
484,4.84,2.114992,-1.279231,-1.38132,-0.296112,0.482101,-0.012375000000000002
485,4.85,1.6087360000000002,-0.84554,-1.597558,-0.28225700000000004,0.411789,-0.037949000000000004
486,4.86,1.198568,-0.21131399999999997,-1.655807,-0.228989,0.348938,-0.057114
487,4.87,0.600119,0.380123,-1.745336,-0.143768,0.308456,-0.084824
488,4.88,0.061370000000000015,1.090768,-1.9858169999999997,-0.018066,0.290344,-0.123169
489,4.89,-0.321229,1.204505,-1.813979,0.003235,0.309525,-0.132751
490,4.9,-0.846081,1.18917,-1.399714,-0.045776,0.342545,-0.139145
491,4.91,-1.151456,1.280214,-1.04606,-0.12779200000000002,0.36705,-0.139145
492,4.92,-0.83594,1.7396610000000001,-0.6145430000000001,-0.198105,0.357468,-0.11358599999999999
493,4.93,-0.256792,2.68046,-0.464779,-0.21727,0.316986,-0.051788
494,4.94,0.302871,3.7205550000000005,-0.6146510000000001,-0.172531,0.28929099999999996,0.021713
495,4.95,0.541345,4.471983,-0.9728479999999999,-0.053222999999999986,0.308456,0.080292
496,4.96,0.230735,4.703653,-1.562826,0.13105799999999998,0.385162,0.11119100000000001
497,4.97,-0.657569,4.127461,-2.158605,0.332397,0.5161899999999999,0.099472
498,4.98,-0.71018,3.090785,-2.346691,0.44426000000000004,0.6397550000000001,0.09414700000000001
499,4.99,-0.302476,2.257648,-1.4287040000000002,0.44212299999999993,0.690887,0.115448
500,5.0,0.895651,2.026954,0.998149,0.322815,0.658936,0.132492
501,5.01,2.327938,2.168612,2.238433,0.258896,0.5971529999999999,0.168716
502,5.02,2.936201,1.600611,3.664767,0.257828,0.490616,0.23049899999999998
503,5.03,2.008528,0.623224,4.48243,0.29512,0.376633,0.296555
504,5.04,1.331009,-0.19375000000000006,4.674305,0.40589899999999995,0.282898,0.384964
505,5.05,1.088899,-0.560472,3.5292730000000003,0.5507810000000001,0.178497,0.469116
506,5.06,0.711946,-0.955793,2.108309,0.627472,0.029357999999999995,0.5202479999999999
507,5.07,0.180043,-1.064756,1.112895,0.5507810000000001,-0.091019,0.543686
508,5.08,-0.295281,-0.567739,0.808636,0.352646,-0.140015,0.5362239999999999
509,5.09,-0.436841,0.42139399999999994,1.0014370000000001,0.126801,-0.163452,0.47871400000000003
510,5.1,-0.350355,1.753903,1.1086790000000002,-0.030853,-0.184753,0.360458
511,5.11,0.13239800000000002,3.165108,0.8889040000000001,-0.093704,-0.208191,0.17511
512,5.12,1.174139,4.2906,0.816322,-0.091568,-0.27636700000000003,-0.07203699999999999
513,5.13,2.1632119999999997,4.510669,1.041304,-0.013809000000000002,-0.40313699999999997,-0.328766
514,5.14,2.498035,3.486143,1.432733,0.094849,-0.523514,-0.5609890000000001
515,5.15,2.480301,1.847034,1.609212,0.200302,-0.628967,-0.728241
516,5.16,2.193159,0.05275200000000002,1.223116,0.252502,-0.7131350000000001,-0.818787
517,5.17,1.7779040000000002,-1.729916,0.70168,0.218414,-0.799408,-0.831573
518,5.18,1.12045,-3.117677,0.455654,0.13000499999999998,-0.877182,-0.811325
519,5.19,0.521555,-4.084012,0.33066599999999996,0.037323,-0.950684,-0.775116
520,5.2,-0.042318,-4.53755,0.32348499999999997,-0.030853,-1.015671,-0.7399600000000001
521,5.21,-0.7157,-4.614698000000001,0.412455,-0.063873,-1.064667,-0.719711
522,5.22,-1.237876,-4.3774370000000005,0.387825,-0.059615999999999995,-1.099823,-0.6984100000000001
523,5.23,-1.79887,-4.010667,0.273903,-0.059615999999999995,-1.122192,-0.683502
524,5.24,-2.064595,-3.769182,0.190555,-0.083054,-1.11261,-0.638748
525,5.25,-1.965016,-3.5689379999999997,0.04054800000000002,-0.138443,-1.089172,-0.579102
526,5.26,-1.783697,-3.4189870000000004,-0.048899,-0.21621700000000002,-1.059341,-0.493881
527,5.27,-1.575511,-3.239134,-0.24297,-0.287582,-1.012466,-0.389481
528,5.28,-1.500885,-3.259059,-0.29912,-0.323807,-0.9645229999999999,-0.292542
529,5.29,-1.599344,-3.177275,-0.46327399999999996,-0.34191900000000003,-0.9016879999999999,-0.20306400000000002
530,5.3,-1.894204,-3.026349,-0.5707720000000001,-0.33552600000000005,-0.842026,-0.119965
531,5.31,-2.168876,-2.776752,-0.771777,-0.324875,-0.785568,-0.041138
532,5.32,-2.211434,-2.468734,-0.8338629999999999,-0.29504400000000003,-0.7450869999999999,0.02597
533,5.33,-1.8983400000000001,-2.074493,-1.043763,-0.24177600000000002,-0.714188,0.08136
534,5.34,-1.564789,-1.6068870000000002,-1.34069,-0.177856,-0.682236,0.12397799999999999
535,5.35,-1.4383700000000001,-1.07142,-1.503555,-0.130997,-0.654541,0.181503
536,5.36,-1.098776,-0.489075,-1.289647,-0.09690900000000001,-0.602341,0.22303800000000001
537,5.37,-1.04338,0.211177,-1.179462,-0.078796,-0.58316,0.24754299999999999
538,5.38,-1.100344,0.8864709999999999,-1.082441,-0.086243,-0.555466,0.23263499999999998
539,5.39,-0.688006,1.438407,-0.8796209999999999,-0.138443,-0.535233,0.197479
540,5.4,-0.16931899999999994,1.897355,-0.5098010000000001,-0.202362,-0.494751,0.171906
541,5.41,-0.05207899999999999,1.9587880000000002,0.22667199999999998,-0.235382,-0.409531,0.14846800000000002
542,5.42,-0.769279,2.42718,0.32156999999999997,-0.218338,-0.27317800000000003,0.104797
543,5.43,-1.663675,3.5953129999999995,-0.646822,-0.12460299999999999,-0.195404,-0.024094
544,5.44,-1.627277,4.435886,-2.1244080000000003,0.022415000000000008,-0.22630300000000003,-0.179626
545,5.45,-0.8707360000000001,4.500604,-3.044694,0.18219000000000002,-0.352005,-0.274429
546,5.46,0.371264,4.233187,-2.808383,0.27807600000000005,-0.46173100000000006,-0.321304
547,5.47,1.2975860000000001,3.692858,-1.9057970000000002,0.266357,-0.563995,-0.355392
548,5.48,0.524447,2.744262,0.0151349999999999,0.132126,-0.614059,-0.342606
549,5.49,-1.087799,2.899407,1.4756340000000001,-0.035109999999999995,-0.602341,-0.30532800000000004
550,5.5,-1.888161,3.122161,2.981961,-0.155487,-0.578903,-0.30958600000000003
551,5.51,-1.0559530000000001,2.899307,4.517649,-0.202362,-0.555466,-0.375641
552,5.52,-0.35623499999999997,2.565753,5.351193,-0.16508499999999998,-0.48196400000000006,-0.517319
553,5.53,-0.47394200000000003,1.7021689999999998,5.308607,-0.028732000000000008,-0.325378,-0.702667
554,5.54,-0.742538,0.334773,4.474026,0.175812,-0.11338800000000002,-0.810257
555,5.55,-0.368868,-0.563138,3.060407,0.315353,0.075165,-0.826248
556,5.56,0.112231,-0.681836,1.9561549999999999,0.298309,0.16677899999999998,-0.771912
557,5.57,0.450247,-0.35827,1.4389459999999998,0.187531,0.15506,-0.647278
558,5.58,0.250232,0.701548,1.406384,0.078873,0.115646,-0.46725500000000003
559,5.59,-0.012649999999999995,2.102251,1.362954,0.05011,0.11671400000000001,-0.259521
560,5.6,-0.247736,3.121911,1.406,0.10975599999999999,0.147598,-0.053925
561,5.61,-0.362553,3.5938190000000003,1.354324,0.24078400000000003,0.190216,0.14314300000000002
562,5.62,-0.22204699999999997,3.2720759999999998,1.211159,0.398453,0.261581,0.335968
563,5.63,-0.305286,2.055319,1.120443,0.509232,0.340424,0.493622
564,5.64,-0.35592399999999996,0.4461550000000001,1.059606,0.558243,0.43096899999999994,0.623581
565,5.65,-0.350013,-1.092485,0.833139,0.524155,0.5161899999999999,0.7013550000000001
566,5.66,-0.585828,-2.5483130000000003,0.587735,0.426147,0.577972,0.741821
567,5.67,-0.8436600000000001,-3.6328080000000003,0.420811,0.303635,0.6312409999999999,0.75354
568,5.68,-0.9533739999999999,-4.286565,0.44558400000000004,0.175812,0.6876979999999999,0.741821
569,5.69,-0.8194,-4.750351,0.57313,0.082062,0.75267,0.7237239999999999
570,5.7,-0.704743,-4.915971,0.711889,0.025604000000000002,0.825119,0.697083
571,5.71,-0.362681,-4.692332,0.620599,-0.005295000000000001,0.90181,0.700287
572,5.72,0.211344,-3.9502040000000003,0.382123,-0.026595999999999998,0.95401,0.70668
573,5.73,0.731563,-3.2334669999999996,0.161936,-0.045776,0.9817049999999999,0.683243
574,5.74,1.128929,-2.7862669999999996,-0.026839,-0.061752,1.0083469999999999,0.659805
575,5.75,1.425163,-2.49915,-0.23751799999999998,-0.115005,1.02005,0.623581
576,5.76,1.583209,-2.339563,-0.253803,-0.202362,1.009399,0.5607300000000001
577,5.77,1.644295,-2.360981,-0.28175500000000003,-0.266281,0.9710540000000001,0.485092
578,5.78,1.665935,-2.394591,-0.371942,-0.314209,0.9103389999999999,0.404144
579,5.79,1.832209,-2.3736189999999997,-0.479364,-0.337646,0.833633,0.327438
580,5.8,1.854439,-2.3993740000000003,-0.587918,-0.342972,0.754807,0.25393699999999997
581,5.81,2.054595,-2.327639,-0.823486,-0.34404,0.683426,0.198547
582,5.82,2.1854270000000002,-2.270293,-1.031642,-0.360016,0.62059,0.153809
583,5.83,2.29182,-2.043955,-1.310301,-0.382385,0.553467,0.11651600000000001
584,5.84,2.338167,-1.635851,-1.5937139999999999,-0.407959,0.48317,0.083496
585,5.85,2.246869,-0.995656,-1.636115,-0.409027,0.411789,0.040878
586,5.86,1.8024779999999998,-0.268895,-1.6305129999999999,-0.360016,0.357468,-0.0017239999999999966
587,5.87,1.235133,0.5636479999999999,-1.638812,-0.262024,0.326569,-0.027298000000000003
588,5.88,0.80995,1.283566,-1.766268,-0.164017,0.318054,-0.043274
589,5.89,0.441834,1.5841690000000002,-1.60933,-0.080917,0.335098,-0.050735
590,5.9,-0.440694,1.457606,-1.1229719999999999,-0.038314999999999995,0.346817,-0.09440599999999999
591,5.91,-1.16601,1.325922,-0.673995,-0.055359000000000005,0.358521,-0.149796
592,5.92,-1.008738,1.535847,-0.48940200000000006,-0.108627,0.340424,-0.16684000000000002
593,5.93,0.9042690000000001,2.640577,-0.30156,-0.12886,0.18808,-0.05925
594,5.94,1.350834,3.4983839999999997,-0.9040370000000001,-0.060684,0.177429,0.033431999999999996
595,5.95,1.297299,4.0860080000000005,-1.656379,0.055435000000000005,0.204071,0.113327
596,5.96,0.582925,4.403928,-2.093769,0.187531,0.263718,0.16658
597,5.97,-0.683397,4.371948000000001,-1.927356,0.24078400000000003,0.345749,0.214523
598,5.98,-0.767336,3.749885,-0.3261069999999999,0.21095300000000003,0.432037,0.298676
599,5.99,-0.393071,3.7181370000000005,1.020368,0.19072,0.469315,0.31572
600,6.0,1.074141,3.475449,2.0491919999999997,0.22587600000000002,0.459732,0.32211300000000004
601,6.01,1.676606,2.6693119999999997,2.948339,0.300446,0.376633,0.337021
602,6.02,1.917689,1.348532,3.9636980000000004,0.356903,0.2733,0.40094
603,6.03,1.510189,-0.08367999999999998,4.428999999999999,0.434662,0.199799,0.487228
604,6.04,1.256635,-1.008873,3.6835160000000005,0.5635680000000001,0.15931700000000001,0.558609
605,6.05,0.45637,-1.516584,2.575989,0.657303,0.083694,0.622513
606,6.06,-0.353988,-1.732229,1.7735470000000002,0.64772,0.024033000000000002,0.659805
607,6.07,-0.959155,-1.348732,1.215076,0.533737,0.020844,0.657669
608,6.08,-1.147564,-0.278721,0.862083,0.351578,0.049606,0.577774
609,6.09,-1.1584940000000001,1.004346,0.9269870000000001,0.155563,0.029358,0.422241
610,6.1,-0.781135,2.158562,0.909335,-0.0020899999999999946,-0.006851000000000001,0.226242
611,6.11,-0.04753400000000002,3.058953,0.755691,-0.080917,-0.043075999999999996,0.0067900000000000035
612,6.12,1.1240379999999999,3.316822,0.807479,-0.091568,-0.120834,-0.23608400000000002
613,6.13,2.086447,2.82314,0.9280290000000001,-0.041504,-0.25293000000000004,-0.46405
614,6.14,2.670721,1.532831,1.181246,3.099999999999978e-05,-0.389282,-0.6462100000000001
615,6.15,2.797164,-0.19405700000000006,1.159149,0.00856,-0.493683,-0.748474
616,6.16,2.642953,-1.799122,0.8061510000000001,-0.021271,-0.565063,-0.761261
617,6.17,2.212046,-2.9036169999999997,0.40363699999999997,-0.09584,-0.640686,-0.751678
618,6.18,1.457185,-3.5726620000000002,0.188921,-0.18212899999999999,-0.7099300000000001,-0.730362
619,6.19,0.29964500000000005,-3.807324,0.199276,-0.23858600000000002,-0.759995,-0.710129
620,6.2,-0.685983,-3.7115519999999997,0.15141400000000002,-0.250305,-0.814331,-0.6866909999999999
621,6.21,-1.682465,-3.4243309999999996,0.26616799999999996,-0.226868,-0.855881,-0.67923
622,6.22,-2.354781,-3.103296,0.227503,-0.194901,-0.8942260000000001,-0.666458
623,6.23,-2.6770509999999996,-2.7390369999999997,0.232481,-0.177856,-0.899551,-0.650467
624,6.24,-2.74173,-2.561557,0.114751,-0.202362,-0.867584,-0.621704
625,6.25,-2.2440599999999997,-2.53673,-0.085136,-0.25563,-0.829239,-0.568451
626,6.26,-1.7599509999999998,-2.551935,-0.20842199999999997,-0.307831,-0.790894,-0.5151819999999999
627,6.27,-1.306936,-2.473975,-0.453301,-0.34191900000000003,-0.762131,-0.45233199999999996
628,6.28,-0.930063,-2.4226900000000002,-0.694551,-0.35257,-0.740829,-0.384155
629,6.29,-0.915875,-2.268551,-0.929365,-0.353638,-0.720581,-0.31811500000000004
630,6.3,-1.295701,-2.271775,-0.918883,-0.351501,-0.687561,-0.248871
631,6.31,-1.8540900000000002,-2.256337,-0.9924360000000001,-0.34829699999999997,-0.635361,-0.179626
632,6.32,-2.298684,-2.150727,-1.113648,-0.333389,-0.5810390000000001,-0.114639
633,6.33,-2.616029,-1.883543,-1.2531290000000002,-0.305695,-0.532028,-0.056061
634,6.34,-2.6834119999999997,-1.430839,-1.548507,-0.26521300000000003,-0.49687200000000004,-0.008118
635,6.35,-2.590596,-0.991027,-1.7291130000000001,-0.201294,-0.465988,0.041946
636,6.36,-2.1244,-0.42908100000000005,-1.9000740000000003,-0.12779200000000002,-0.428696,0.087753
637,6.37,-1.9774029999999998,0.169771,-2.046859,-0.063873,-0.408463,0.12397799999999999
638,6.38,-1.753334,0.454427,-2.066791,-0.04364,-0.380768,0.135696
639,6.39,-1.1033950000000001,0.654946,-1.707209,-0.080917,-0.35626199999999997,0.136765
640,6.4,-0.5928720000000001,0.856124,-0.933971,-0.167206,-0.331757,0.14209000000000002
641,6.41,-0.43326000000000003,1.123091,-0.237605,-0.25882,-0.266785,0.135696
642,6.42,-0.823206,1.250277,0.689623,-0.325928,-0.152802,0.126099
643,6.43,-1.8052,2.170846,0.7200880000000001,-0.308884,-0.028168000000000002,0.08136
644,6.44,-2.999831,3.868644,-0.3811450000000001,-0.199173,0.068771,-0.077362
645,6.45,-3.046679,4.912358,-1.7496349999999998,-0.047897,0.07304400000000001,-0.26698299999999997
646,6.46,-1.505418,5.374875,-2.178607,0.08845499999999999,0.010193,-0.406525
647,6.47,0.6001050000000001,5.146833999999999,-1.9494259999999999,0.186462,-0.095276,-0.476837
648,6.48,2.121641,4.099761,-0.814894,0.204575,-0.170914,-0.491745
649,6.49,1.818818,2.87984,0.497911,0.117218,-0.249741,-0.459793
650,6.5,0.00974699999999995,2.474568,1.59407,0.016022,-0.30300900000000003,-0.425705
651,6.51,-1.028502,2.276227,2.517378,-0.029785000000000002,-0.304062,-0.405457
652,6.52,-0.629149,1.9513880000000001,3.5617699999999997,-0.037247,-0.316849,-0.409729
653,6.53,-0.253948,1.5020280000000001,4.084554,0.009627999999999994,-0.317917,-0.47363299999999997
654,6.54,-0.5095350000000001,0.749132,4.268129,0.099106,-0.241211,-0.581238
655,6.55,-0.16918500000000009,-0.15357000000000004,3.921396,0.194977,-0.069702,-0.655792
656,6.56,0.964365,-0.6850569999999999,2.8122130000000003,0.22799699999999998,0.069839,-0.6866909999999999
657,6.57,1.340286,-0.82075,1.921182,0.17686500000000002,0.07304400000000001,-0.678177
658,6.58,1.485472,-0.644461,1.630309,0.099106,0.020844,-0.5705720000000001
659,6.59,1.5282959999999999,0.15886,1.26108,0.045837,0.032562,-0.40333600000000003
660,6.6,1.2970629999999999,1.143605,1.017132,0.029861000000000002,0.051726999999999995,-0.208389
661,6.61,0.621261,1.961873,0.960037,0.039458999999999994,0.062377999999999996,-0.025162000000000004
662,6.62,-0.196654,2.339681,0.935033,0.09378099999999999,0.120972,0.151672
663,6.63,-0.6556,2.350142,0.791853,0.174744,0.224304,0.342346
664,6.64,-0.9200729999999999,1.572816,0.828467,0.233337,0.331894,0.504272
665,6.65,-0.9696739999999999,0.20467799999999992,0.970308,0.248245,0.42776499999999995,0.619324
666,6.66,-1.1947729999999999,-1.187503,1.026827,0.23120100000000002,0.5055390000000001,0.681107
667,6.67,-1.1276700000000002,-2.354011,0.8468100000000001,0.192856,0.564117,0.7226560000000001
668,6.68,-0.283179,-3.6915150000000003,0.444266,0.084198,0.636566,0.725845
669,6.69,0.27774899999999997,-4.147511,0.37592,0.040512,0.66745,0.702408
670,6.7,0.888725,-4.310048,0.384166,0.0032350000000000018,0.691956,0.680038
671,6.71,1.219802,-4.201423999999999,0.24962399999999998,-0.026595999999999998,0.710068,0.6608729999999999
672,6.72,1.5137559999999999,-3.6324980000000004,0.103826,-0.056427,0.7185819999999999,0.64595
673,6.73,1.7311419999999997,-3.027915,-0.10355,-0.092636,0.7207180000000001,0.617188
674,6.74,1.96775,-2.306548,-0.197191,-0.138443,0.711136,0.573517
675,6.75,2.0325189999999997,-1.837188,-0.251608,-0.20875500000000002,0.703674,0.5149229999999999
676,6.76,1.876766,-1.670136,-0.307094,-0.26521300000000003,0.690887,0.443558
677,6.77,1.6523599999999998,-1.7001439999999999,-0.405037,-0.303558,0.6685180000000001,0.35939
678,6.78,1.49069,-1.7268540000000001,-0.5515359999999999,-0.31955,0.619522,0.273117
679,6.79,1.548152,-1.699689,-0.720893,-0.31101999999999996,0.555603,0.192154
680,6.8,1.800143,-1.645245,-0.94421,-0.29184,0.478897,0.120773
681,6.81,2.0908759999999997,-1.6604279999999998,-1.144255,-0.268402,0.403275,0.060059
682,6.82,2.383643,-1.617242,-1.281833,-0.248169,0.32338,0.009995000000000004
683,6.83,2.62842,-1.549792,-1.481324,-0.234314,0.256256,-0.03688000000000001
684,6.84,2.641673,-1.361969,-1.7472590000000001,-0.226868,0.19660899999999998,-0.079498
685,6.85,2.387406,-0.9966780000000001,-1.986403,-0.21514899999999998,0.13589500000000002,-0.122101
686,6.86,1.9181990000000002,-0.43652399999999997,-2.180698,-0.19278,0.085815,-0.171097
687,6.87,1.399678,0.16963499999999998,-2.358425,-0.157623,0.051726999999999995,-0.220108
688,6.88,0.856118,0.582702,-2.35787,-0.11714200000000001,0.041076999999999995,-0.268036
689,6.89,0.287022,0.760335,-2.067393,-0.097961,0.046402,-0.294678
690,6.9,-0.491109,0.882692,-1.577801,-0.106491,0.071976,-0.303192
691,6.91,-0.9270370000000001,1.085879,-1.176041,-0.152298,0.094345,-0.307465
692,6.92,-0.846521,1.454616,-0.765513,-0.205566,0.067703,-0.296799
693,6.93,-0.06152799999999997,2.076807,-0.32595699999999994,-0.23858600000000002,-0.005797999999999998,-0.26271100000000003
694,6.94,0.783617,2.948404,-0.12956700000000002,-0.20982399999999998,-0.08888200000000003,-0.20413199999999998
695,6.95,1.219279,3.768608,-0.41111099999999995,-0.105423,-0.10166900000000001,-0.11891199999999999
696,6.96,1.239131,4.186735,-1.067901,0.060760000000000015,-0.038818,-0.05285599999999999
697,6.97,0.684948,4.50786,-1.392815,0.22267199999999998,0.038956,0.013184
698,6.98,0.067332,4.3162709999999995,-1.36297,0.31749,0.123108,0.084564
699,6.99,0.249548,3.86965,-0.322619,0.287659,0.119904,0.158066
700,7.0,0.31611300000000003,3.664029,0.993958,0.197113,0.131622,0.19001800000000002
701,7.01,1.711423,3.6702120000000003,2.092736,0.152374,0.117783,0.21026599999999998
702,7.02,2.792741,2.9242310000000002,3.267435,0.169418,0.0005949999999999982,0.221985
703,7.03,3.0127349999999997,1.488629,4.352864,0.23120100000000002,-0.135757,0.269913
704,7.04,3.061577,0.016545000000000143,4.626032,0.355835,-0.236954,0.337021
705,7.05,2.357576,-1.080562,3.8239199999999998,0.531601,-0.32643099999999997,0.36898800000000004
706,7.06,1.441022,-1.6970419999999997,2.260348,0.667953,-0.37756300000000004,0.396683
707,7.07,1.150656,-2.137993,1.218533,0.692459,-0.4319,0.40947
708,7.08,0.542878,-2.0247029999999997,0.659416,0.599777,-0.4841,0.378571
709,7.09,-0.150381,-1.001902,0.324027,0.43040500000000004,-0.48196400000000006,0.32424899999999995
710,7.1,-0.39016100000000004,0.194883,0.317353,0.24504099999999998,-0.47450299999999995,0.23049899999999998
711,7.11,-0.398801,1.408173,0.45226099999999997,0.108688,-0.5160520000000001,0.090958
712,7.12,0.056346000000000014,2.76405,0.403852,0.033066000000000005,-0.565063,-0.050735
713,7.13,1.015081,3.4684410000000003,0.48448900000000006,0.023468,-0.673706,-0.208389
714,7.14,1.816168,3.1385970000000003,0.80273,0.056503,-0.8367,-0.37350500000000003
715,7.15,2.187077,2.026482,1.180777,0.099106,-0.982635,-0.508789
716,7.16,2.2187419999999998,0.533558,1.405761,0.09697,-1.0849,-0.584427
717,7.17,2.1995310000000003,-0.829809,1.535514,0.066086,-1.148819,-0.5929409999999999
718,7.18,1.8278009999999998,-1.8911790000000002,1.549207,0.039458999999999994,-1.191437,-0.579102
719,7.19,1.545882,-2.532549,1.5204030000000002,0.030930000000000003,-1.23085,-0.5609890000000001
720,7.2,1.032885,-2.765201,1.323046,0.039458999999999994,-1.2809139999999999,-0.548203
721,7.21,0.663714,-2.74213,1.1207770000000001,0.068207,-1.337372,-0.563126
722,7.22,0.024253000000000025,-2.539149,0.9330450000000001,0.11615,-1.395966,-0.6057279999999999
723,7.23,-0.45324200000000003,-2.370572,0.6083890000000001,0.150238,-1.448166,-0.637695
724,7.24,-0.922581,-2.217031,0.364611,0.148102,-1.472656,-0.661133
725,7.25,-1.225366,-2.266351,0.145728,0.101242,-1.47905,-0.667511
726,7.26,-1.520082,-2.437964,0.051879000000000015,0.016021999999999998,-1.464142,-0.63237
727,7.27,-1.400342,-2.8015209999999997,0.045862,-0.064941,-1.442841,-0.572708
728,7.28,-1.220294,-2.963116,-0.074018,-0.115005,-1.408752,-0.501343
729,7.29,-1.1364889999999999,-3.004112,-0.309029,-0.140579,-1.361877,-0.42677299999999996
730,7.3,-1.1428479999999999,-2.938789,-0.329464,-0.144836,-1.299026,-0.350067
731,7.31,-1.108026,-2.984382,-0.4721,-0.149094,-1.237244,-0.273376
732,7.32,-1.252666,-2.9893419999999997,-0.6119359999999999,-0.171463,-1.1807860000000001,-0.207321
733,7.33,-1.397549,-2.766167,-0.792816,-0.199173,-1.136032,-0.147675
734,7.34,-1.299811,-2.331602,-1.0093290000000001,-0.21621700000000002,-1.10408,-0.09440599999999999
735,7.35,-1.098962,-1.883443,-1.156642,-0.20343,-1.0870360000000001,-0.041138
736,7.36,-0.732693,-1.497157,-1.3743379999999998,-0.173599,-1.064667,0.023834
737,7.37,-0.258966,-1.105783,-1.538137,-0.129929,-1.032715,0.086685
738,7.38,0.346147,-0.726607,-1.665254,-0.10116599999999999,-1.0199280000000002,0.136765
739,7.39,0.202807,-0.253012,-1.6427939999999999,-0.084122,-1.016724,0.163391
740,7.4,-0.07973700000000003,0.126842,-1.447576,-0.089447,-0.9432219999999999,0.15274000000000001
741,7.41,-0.363648,0.660341,-1.150041,-0.152298,-0.8377690000000001,0.110123
742,7.42,-0.429461,1.157016,-0.727372,-0.249237,-0.755737,0.044083
743,7.43,-0.560192,1.38133,-0.01835200000000004,-0.307831,-0.685425,-0.009186
744,7.44,-1.003051,1.588049,0.575947,-0.28118899999999997,-0.567184,-0.023025999999999998
745,7.45,-1.778736,2.781016,0.329939,-0.191711,-0.426575,-0.093338
746,7.46,-2.262432,4.0360510000000005,-0.8322960000000001,-0.06282,-0.36904899999999996,-0.23822
747,7.47,-1.583494,4.358372,-1.9635369999999999,0.12361099999999998,-0.443619,-0.341553
748,7.48,-0.218398,4.132068,-2.238457,0.303635,-0.549072,-0.35965
749,7.49,1.6399169999999998,3.676917,-1.883575,0.38246199999999997,-0.662003,-0.329834
750,7.5,3.6850699999999996,3.1276639999999998,-0.884518,0.294052,-0.789825,-0.28828400000000004
751,7.51,3.582479,3.130558,0.4575170000000001,0.11508199999999999,-0.9059450000000001,-0.264847
752,7.52,1.280254,3.3506449999999997,1.943644,-0.006348,-0.872925,-0.29361
753,7.53,0.322973,3.211172,3.200831,-0.036179,-0.8239139999999999,-0.368179
754,7.54,0.30330100000000004,2.656859,4.406217,-0.003159000000000002,-0.813263,-0.459793
755,7.55,0.384785,1.870966,4.900326000000001,0.06288099999999999,-0.786636,-0.6046600000000001
756,7.56,-0.074374,0.6590380000000001,4.786943,0.12468,-0.705673,-0.761261
757,7.57,0.530433,-0.330365,4.0520629999999995,0.134262,-0.622574,-0.853943
758,7.58,0.7340270000000001,-0.5024,2.838157,0.09059099999999999,-0.625778,-0.8763120000000001
759,7.59,0.560008,-0.11203200000000002,2.055505,0.047974,-0.625778,-0.7804409999999999
760,7.6,0.935241,0.388096,1.573025,-0.0010219999999999986,-0.5863649999999999,-0.584427
761,7.61,1.532949,1.2729840000000001,1.33631,-0.045776,-0.603409,-0.354324
762,7.62,1.7786279999999999,2.172437,1.273142,-0.039383,-0.654541,-0.13063
763,7.63,1.183769,2.543489,1.322067,0.046906,-0.670517,0.069641
764,7.64,0.9738319999999999,2.389665,1.3195299999999999,0.206696,-0.599152,0.251801
765,7.65,0.607688,1.8459580000000002,1.0662209999999999,0.357971,-0.533096,0.382828
766,7.66,0.384338,0.861116,0.8648129999999999,0.453842,-0.467056,0.482971
767,7.67,0.228183,-0.25798000000000004,0.710557,0.47834799999999994,-0.413788,0.543686
768,7.68,0.24276399999999998,-1.457532,0.3048,0.43679799999999996,-0.37651100000000004,0.56926
769,7.69,0.263565,-2.546251,-0.020059999999999998,0.357971,-0.333893,0.562866
770,7.7,0.37940300000000005,-3.462067,-0.25261100000000003,0.283401,-0.290222,0.521317
771,7.71,0.489967,-4.104334,-0.46969700000000003,0.198181,-0.251862,0.46592700000000004
772,7.72,0.58485,-4.492998,-0.529192,0.10975599999999999,-0.20925900000000003,0.41372700000000007
773,7.73,0.644942,-4.520848,-0.576612,0.037323,-0.15599100000000002,0.3871
774,7.74,0.826982,-4.2672349999999994,-0.660316,-0.030853,-0.11232,0.383896
775,7.75,0.955141,-3.8029889999999997,-0.758158,-0.09902999999999999,-0.097412,0.394547
776,7.76,1.2420959999999999,-3.046622,-0.8476870000000001,-0.17040999999999998,-0.10379000000000001,0.40307600000000005
777,7.77,1.483103,-2.423006,-0.7692359999999999,-0.242844,-0.120834,0.395615
778,7.78,1.501655,-1.9162400000000002,-0.625911,-0.29823299999999997,-0.125107,0.36898800000000004
779,7.79,1.579118,-1.587464,-0.583874,-0.34617600000000004,-0.1315,0.327438
780,7.8,1.6193469999999999,-1.462624,-0.49763900000000005,-0.37493899999999997,-0.149597,0.272049
781,7.81,1.7546580000000003,-1.448857,-0.523703,-0.370682,-0.177307,0.221985
782,7.82,1.8637970000000001,-1.424143,-0.5865600000000001,-0.34510799999999997,-0.218842,0.172974
783,7.83,2.090112,-1.4269459999999998,-0.6818529999999999,-0.31101999999999996,-0.264648,0.120773
784,7.84,2.345472,-1.466752,-0.750595,-0.28225700000000004,-0.31045500000000004,0.065384
785,7.85,2.656747,-1.424503,-0.8696389999999999,-0.26947,-0.353073,0.015319999999999999
786,7.86,2.884604,-1.420515,-0.9942719999999999,-0.267349,-0.389282,-0.033691000000000006
787,7.87,2.894021,-1.066287,-1.2334180000000001,-0.266281,-0.421249,-0.076294
788,7.88,2.698253,-0.48762799999999995,-1.456512,-0.24710100000000002,-0.44573999999999997,-0.11891199999999999
789,7.89,2.28551,0.296556,-1.731038,-0.190643,-0.458527,-0.171097
790,7.9,1.7391869999999998,0.969514,-1.8771970000000002,-0.106491,-0.46492,-0.225433
791,7.91,1.138814,1.463207,-1.859938,-0.008483999999999992,-0.437225,-0.27975500000000003
792,7.92,0.401708,1.744188,-1.590338,0.0746,-0.385025,-0.319183
793,7.93,-0.6456069999999999,1.6876740000000001,-1.261844,0.139587,-0.300873,-0.346878
794,7.94,-1.169677,1.6855360000000001,-1.072308,0.161957,-0.212448,-0.36392199999999997
795,7.95,-0.9547040000000001,1.666306,-0.9062959999999999,0.148102,-0.17836,-0.347931
796,7.96,-0.14526099999999995,1.594283,-0.70424,0.111893,-0.218842,-0.30426
797,7.97,0.76639,1.851,-0.7744810000000001,0.09697,-0.268906,-0.23501599999999997
798,7.98,1.206066,2.31803,-1.1618110000000001,0.13533,-0.265717,-0.139145
799,7.99,1.377692,2.956844,-1.535087,0.21202100000000002,-0.199677,-0.044342
800,8.0,1.350093,3.8243160000000005,-1.5903049999999999,0.282333,-0.147476,0.056870000000000004
801,8.01,1.35942,4.1104970000000005,-1.084098,0.321747,-0.120834,0.162323
802,8.02,1.868214,3.867633,-0.09704200000000003,0.312164,-0.147476,0.24754299999999999
803,8.03,2.372897,3.546161,1.003642,0.279129,-0.163452,0.29441799999999996
804,8.04,2.6426990000000004,3.24113,2.200304,0.279129,-0.169846,0.335968
805,8.05,3.00537,2.634826,3.6253660000000005,0.321747,-0.259323,0.43183900000000003
806,8.06,2.967219,1.587754,4.8598099999999995,0.38246199999999997,-0.41272,0.557541
807,8.07,2.722686,0.408572,5.114565,0.479401,-0.579971,0.6757810000000001
808,8.08,1.5219120000000002,-1.253703,3.7862160000000005,0.681808,-0.783432,0.727982
809,8.09,0.375094,-1.545024,2.575857,0.728683,-0.8494870000000001,0.712006
810,8.1,0.10785499999999999,-1.463562,1.9256119999999999,0.6903229999999999,-0.871857,0.664062
811,8.11,-0.138016,-0.902741,1.481133,0.592331,-0.855881,0.555405
812,8.12,-0.382477,0.359725,0.9428860000000001,0.49858100000000005,-0.798355,0.380707
813,8.13,-0.043773000000000006,1.7898779999999999,0.499891,0.43147299999999994,-0.759995,0.179367
814,8.14,0.730421,3.018966,0.33624899999999996,0.363297,-0.794083,-0.04646299999999999
815,8.15,1.8398419999999998,4.076687000000001,0.18266,0.34944200000000003,-0.87825,-0.26698299999999997
816,8.16,2.902925,4.5243709999999995,0.276052,0.370743,-1.017792,-0.432098
817,8.17,3.254356,3.6648769999999997,0.613801,0.43147299999999994,-1.146698,-0.569519
818,8.18,2.994453,1.667389,1.0763340000000001,0.47834799999999994,-1.262802,-0.661133
819,8.19,2.433826,-0.429534,1.254208,0.469818,-1.358673,-0.700546
820,8.2,2.264393,-2.050407,1.203559,0.41868599999999995,-1.443893,-0.678177
821,8.21,2.105073,-3.002337,0.954074,0.352646,-1.545105,-0.640884
822,8.22,1.9345430000000001,-3.2997339999999995,0.6362909999999999,0.271683,-1.6473689999999999,-0.612122
823,8.23,1.437251,-3.2066790000000003,0.47471,0.198181,-1.742172,-0.598282
824,8.24,1.186647,-3.185835,0.522858,0.163025,-1.812485,-0.610001
825,8.25,0.565413,-3.119151,0.651817,0.14491300000000001,-1.8678740000000003,-0.649414
826,8.26,-0.08768199999999997,-2.9297779999999998,0.679141,0.09697,-1.893448,-0.685623
827,8.27,-0.712504,-3.023305,0.734395,-0.074524,-1.8806610000000001,-0.680298
828,8.28,-1.049181,-3.190169,0.8399110000000001,-0.210892,-1.832718,-0.649414
829,8.29,-1.277043,-3.2053119999999997,0.7700060000000001,-0.315277,-1.760284,-0.601471
830,8.3,-1.276292,-2.9814,0.699033,-0.389847,-1.6793209999999998,-0.535431
831,8.31,-1.304757,-2.816005,0.713827,-0.434586,-1.590912,-0.456589
832,8.32,-1.285251,-2.494043,0.6633399999999999,-0.444183,-1.51207,-0.377762
833,8.33,-1.460857,-2.214382,0.6416430000000001,-0.43885799999999997,-1.416199,-0.301071
834,8.34,-1.680405,-2.015062,0.620442,-0.41435200000000005,-1.30542,-0.23501599999999997
835,8.35,-1.833172,-1.865546,0.373449,-0.384521,-1.190369,-0.171097
836,8.36,-1.9613919999999998,-1.809366,0.16889,-0.350433,-1.069992,-0.10719300000000001
837,8.37,-2.121579,-1.757998,-0.133022,-0.306763,-0.9389649999999999,-0.048599
838,8.38,-2.059714,-1.7449430000000001,-0.532474,-0.25135799999999997,-0.810074,0.007858
839,8.39,-1.7357330000000002,-1.669183,-0.894407,-0.18850699999999998,-0.701416,0.06219500000000001
840,8.4,-1.367513,-1.496161,-1.266176,-0.140579,-0.604477,0.10054
841,8.41,-0.7543449999999999,-1.308449,-1.687775,-0.120331,-0.5256350000000001,0.14314300000000002
842,8.42,-0.361452,-1.0868,-2.110579,-0.140579,-0.477707,0.178299
843,8.43,-0.373786,-0.626747,-1.793875,-0.18425,-0.42764300000000005,0.193222
844,8.44,-0.367516,-0.187154,-1.531066,-0.25242600000000004,-0.392487,0.18575999999999998
845,8.45,-0.15134099999999998,0.471246,-1.18471,-0.33552600000000005,-0.39035,0.164459
846,8.46,0.703407,1.426175,-0.9837540000000001,-0.428192,-0.447876,0.168716
847,8.47,1.748963,2.242693,-0.475318,-0.473999,-0.519257,0.20813
848,8.48,1.935141,2.8839040000000002,0.32986,-0.443115,-0.49261499999999997,0.24008200000000002
849,8.49,0.897623,3.7636800000000004,0.411951,-0.339783,-0.410599,0.165512
850,8.5,-0.27204300000000003,4.549452,-0.62456,-0.18212899999999999,-0.365845,0.00039699999999999463
851,8.51,-0.42696999999999996,4.711712,-1.875003,0.0032350000000000018,-0.401001,-0.155121
852,8.52,-0.008606999999999976,4.432862,-2.435984,0.179001,-0.46278400000000003,-0.241409
853,8.53,1.532715,3.930252,-2.694381,0.259964,-0.5469510000000001,-0.25845300000000004
854,8.54,2.533379,3.251162,-2.016296,0.20883200000000002,-0.659866,-0.259521
855,8.55,2.078792,3.0651759999999997,-0.873129,0.071411,-0.740829,-0.259521
856,8.56,0.592911,3.210697,0.32071700000000003,-0.040436,-0.768524,-0.255264
857,8.57,-0.5150390000000001,3.03001,1.6065040000000002,-0.07666,-0.746155,-0.272308
858,8.58,-0.544846,2.6011439999999997,2.937007,-0.080917,-0.734436,-0.313843
859,8.59,-0.898739,1.597327,4.043734,-0.068146,-0.715256,-0.392685
860,8.6,-1.258773,0.13138100000000008,4.419057,-0.027663999999999998,-0.60553,-0.482162
861,8.61,-1.0668,-1.4016799999999998,3.860299,-0.009552,-0.47663900000000003,-0.554596
862,8.62,-0.302663,-2.2458549999999997,2.83517,-0.041504,-0.419113,-0.6046600000000001
863,8.63,0.194735,-2.32401,1.8355759999999999,-0.10968,-0.41485600000000006,-0.615326
864,8.64,0.47819700000000004,-1.7708970000000002,1.282719,-0.157623,-0.391418,-0.533295
865,8.65,0.702401,-0.6402260000000001,1.079675,-0.17466700000000002,-0.374374,-0.377762
866,8.66,1.1318190000000001,0.759808,1.1518329999999999,-0.16188,-0.360519,-0.181763
867,8.67,1.06293,2.203176,1.14431,-0.10116599999999999,-0.358398,0.015319999999999999
868,8.68,0.46525500000000003,3.126429,1.193255,-0.01061999999999999,-0.32217399999999996,0.18043499999999998
869,8.69,0.117895,3.0989709999999997,1.157983,0.11828599999999999,-0.232697,0.3349
870,8.7,-0.018300999999999998,2.2726439999999997,0.918802,0.226944,-0.16452,0.493622
871,8.71,0.463524,0.787395,0.661257,0.247177,-0.14640799999999998,0.62146
872,8.72,0.7061649999999999,-0.6737569999999999,0.6020840000000001,0.202438,-0.1315,0.6768489999999999
873,8.73,0.528265,-1.8258189999999999,0.431831,0.136398,-0.116577,0.700287
874,8.74,0.380998,-2.6103419999999997,0.24408600000000003,0.08313,-0.10485799999999999,0.6992189999999999
875,8.75,0.324676,-3.134407,0.077043,0.033066000000000005,-0.088882,0.6853640000000001
876,8.76,0.304219,-3.430443,0.02426,0.005371000000000001,-0.065445,0.6512760000000001
877,8.77,0.224131,-3.509286,-0.019826,-0.010620000000000001,-0.014313,0.623581
878,8.78,0.16228900000000002,-3.4303449999999995,-0.15930999999999998,-0.011687999999999999,0.054932000000000016,0.617188
879,8.79,0.239723,-3.128993,-0.395935,-0.018066,0.11671400000000001,0.624649
880,8.8,0.389044,-2.6587970000000003,-0.660219,-0.044708,0.16571,0.634232
881,8.81,0.817232,-2.216644,-0.9054409999999999,-0.09477200000000001,0.182755,0.632111
882,8.82,1.1126989999999999,-1.8732400000000002,-1.000226,-0.166138,0.184891,0.6076050000000001
883,8.83,1.312829,-1.8402599999999998,-0.900848,-0.23858600000000002,0.181686,0.566055
884,8.84,1.425098,-1.970682,-0.89155,-0.286514,0.184891,0.510666
885,8.85,1.4701469999999999,-2.039206,-0.947155,-0.313156,0.175308,0.44781499999999996
886,8.86,1.517663,-1.975573,-1.103301,-0.324875,0.15399200000000002,0.3871
887,8.87,1.743755,-1.8490799999999998,-1.191026,-0.325928,0.109253,0.332764
888,8.88,2.0228919999999997,-1.73525,-1.409299,-0.321671,0.054932000000000016,0.280563
889,8.89,2.294127,-1.622132,-1.53564,-0.321671,-0.007919000000000002,0.235825
890,8.9,2.689926,-1.4476149999999999,-1.660827,-0.31955,-0.069702,0.19534300000000002
891,8.91,2.839927,-1.20062,-1.691475,-0.305695,-0.12403900000000001,0.160187
892,8.92,2.7644610000000003,-0.725662,-1.7834349999999999,-0.26947,-0.170914,0.12290999999999999
893,8.93,2.342013,-0.085839,-1.951081,-0.193848,-0.190079,0.08989
894,8.94,1.702104,0.461167,-2.106786,-0.09690900000000001,-0.187958,0.050476
895,8.95,0.934667,0.889299,-2.115481,-0.008483999999999992,-0.15066500000000002,0.021713
896,8.96,0.227498,1.156052,-1.8588040000000001,0.051163,-0.08142100000000001,-0.007050000000000002
897,8.97,-0.529121,1.171522,-1.201597,0.058624,-0.022841999999999998,-0.041138
898,8.98,-1.13773,1.1808969999999999,-0.685333,0.0021670000000000023,0.016571000000000002,-0.079498
899,8.99,-0.571643,1.204194,-0.278358,-0.089447,-0.008986999999999998,-0.096542
900,9.0,0.79995,1.793048,-0.04862600000000001,-0.16508499999999998,-0.10166900000000001,-0.074158
901,9.01,1.88392,2.945836,-0.368761,-0.16508499999999998,-0.167709,-0.009186
902,9.02,2.4415810000000002,4.290299,-1.049947,-0.067078,-0.148544,0.099472
903,9.03,2.2382400000000002,5.189573,-1.5683790000000002,0.101242,-0.080368,0.18895
904,9.04,1.046239,5.438092,-1.509427,0.249313,-0.019638000000000003,0.242218
905,9.05,-0.17070200000000002,5.013184,-1.10646,0.303635,0.036819,0.297607
906,9.06,-0.43339799999999995,4.118123000000001,-0.049931999999999976,0.252502,0.055999999999999994,0.354065
907,9.07,0.3037030000000001,3.753875,1.0675139999999999,0.187531,0.070908,0.3871
908,9.08,1.8824830000000001,3.5454779999999997,2.234723,0.179001,0.052795,0.379639
909,9.09,2.714802,2.893969,3.3636239999999997,0.23866300000000001,-0.045212,0.350876
910,9.1,2.842031,1.7154189999999998,4.430057,0.314285,-0.194351,0.337021
911,9.11,2.740266,0.311267,4.7435339999999995,0.398453,-0.307266,0.363663
912,9.12,1.542111,-1.160231,3.285561,0.5486449999999999,-0.475571,0.378571
913,9.13,0.37200300000000003,-1.4246299999999998,2.224373,0.590195,-0.511795,0.394547
914,9.14,-0.18715199999999999,-1.403837,1.82865,0.559296,-0.493683,0.42012
915,9.15,-0.462726,-1.238183,1.457914,0.481537,-0.48303199999999996,0.384964
916,9.16,-1.0875920000000001,-0.58312,1.321568,0.363297,-0.46173100000000006,0.289093
917,9.17,-1.575922,0.223243,1.2781209999999998,0.23652600000000001,-0.41272,0.15274000000000001
918,9.18,-1.6428169999999997,1.045232,1.2456559999999999,0.13000499999999998,-0.37651100000000004,-0.013442999999999995
919,9.19,-1.2319120000000001,1.649961,1.045461,0.054367,-0.37756300000000004,-0.19134500000000002
920,9.2,-0.384492,2.059453,0.829831,0.010695999999999999,-0.41272,-0.348999
921,9.21,0.435726,1.872296,0.784936,-0.014877000000000001,-0.47450299999999995,-0.470444
922,9.22,1.1329719999999999,1.1213440000000001,0.911632,-0.030853,-0.536301,-0.568451
923,9.23,1.295105,-0.17787099999999995,1.15872,-0.051102,-0.5725100000000001,-0.631302
924,9.24,1.133722,-1.447154,1.2759459999999998,-0.07347100000000001,-0.5863649999999999,-0.6462100000000001
925,9.25,0.791743,-2.386519,1.293433,-0.081985,-0.5852970000000001,-0.62384
926,9.26,0.407063,-2.931753,1.243248,-0.080917,-0.5725100000000001,-0.598282
927,9.27,-0.103649,-3.07153,1.036371,-0.059615999999999995,-0.5852970000000001,-0.58017
928,9.28,-0.618035,-2.974749,0.802124,-0.027663999999999998,-0.594879,-0.5716399999999999
929,9.29,-1.1453520000000001,-2.7891529999999998,0.593709,0.007492,-0.597015,-0.5748439999999999
930,9.3,-1.534972,-2.516702,0.329665,0.037323,-0.5810390000000001,-0.566315
931,9.31,-1.7515720000000001,-2.3862900000000002,0.07569900000000003,0.044785000000000005,-0.553345,-0.551407
932,9.32,-1.926384,-2.3824009999999998,-0.174173,0.012817000000000002,-0.513931,-0.51944
933,9.33,-1.8255860000000002,-2.412556,-0.328565,-0.045776,-0.46385200000000004,-0.471512
934,9.34,-1.6007870000000002,-2.482726,-0.39612800000000004,-0.10968,-0.41485600000000006,-0.402267
935,9.35,-1.250712,-2.558842,-0.440974,-0.154419,-0.37330599999999997,-0.32663000000000003
936,9.36,-1.15196,-2.524648,-0.514256,-0.175735,-0.334961,-0.257385
937,9.37,-1.147169,-2.478509,-0.603,-0.187454,-0.287018,-0.19134500000000002
938,9.38,-1.336647,-2.4594400000000003,-0.664125,-0.186386,-0.23481799999999997,-0.127426
939,9.39,-1.659882,-2.438684,-0.71418,-0.187454,-0.184753,-0.066711
940,9.4,-1.8784,-2.376865,-0.7765989999999999,-0.185318,-0.133621,-0.009186
941,9.41,-1.990863,-2.249002,-0.9209799999999999,-0.175735,-0.10166900000000001,0.049408
942,9.42,-1.862609,-2.082236,-1.202286,-0.15975999999999999,-0.08142100000000001,0.109055
943,9.43,-1.557293,-1.7495169999999998,-1.5385,-0.12779200000000002,-0.08142100000000001,0.171906
944,9.44,-1.416661,-1.387591,-1.5929200000000001,-0.080917,-0.077164,0.242218
945,9.45,-1.027126,-0.801771,-1.814485,-0.03299,-0.077164,0.31359899999999996
946,9.46,-0.8881690000000001,-0.284609,-1.9700919999999997,-0.004227000000000001,-0.108063,0.355133
947,9.47,-0.81647,0.191891,-2.031775,-0.003159,-0.16026300000000002,0.365784
948,9.48,-0.24414299999999997,0.509731,-1.779638,-0.026595999999999998,-0.227371,0.36791999999999997
949,9.49,0.615598,0.730417,-1.229244,-0.068146,-0.31045500000000004,0.382828
950,9.5,1.302017,1.142862,-0.5796970000000001,-0.120331,-0.365845,0.392426
951,9.51,1.387932,1.233306,0.462344,-0.150162,-0.37011700000000003,0.384964
952,9.52,0.543837,1.708662,1.081002,-0.143768,-0.30300900000000003,0.355133
953,9.53,-0.822311,3.031212,0.23132,-0.067078,-0.235886,0.219849
954,9.54,-1.7221099999999998,3.898129,-1.183715,0.049042,-0.212448,0.03129599999999999
955,9.55,-1.735468,4.449864,-1.971711,0.173676,-0.24441500000000002,-0.132751
956,9.56,-0.4496549999999999,4.713754,-2.005001,0.243988,-0.304062,-0.277634
957,9.57,0.517003,4.181065,-1.0553649999999999,0.254639,-0.312592,-0.390549
958,9.58,-0.22481999999999994,3.1365220000000003,0.217236,0.185394,-0.24334699999999998,-0.45233199999999996
959,9.59,-1.354924,2.630404,1.3351819999999999,0.056503,-0.19328299999999998,-0.507721
960,9.6,-1.679071,2.846041,2.212592,-0.080917,-0.17836,-0.5269010000000001
961,9.61,-1.4533,3.093929,3.493703,-0.18318199999999998,-0.134689,-0.5748439999999999
962,9.62,-1.1868459999999998,3.284511,4.6290379999999995,-0.191711,-0.054794,-0.673904
963,9.63,-1.301217,2.658659,5.317838,-0.074524,0.125229,-0.847549
964,9.64,-0.766497,0.8348879999999999,5.163851,0.143845,0.32338,-0.931702
965,9.65,0.14646800000000001,-0.844872,3.989907,0.332397,0.44055200000000005,-0.931702
966,9.66,0.872924,-1.6915639999999998,2.730721,0.357971,0.45120200000000005,-0.8816379999999999
967,9.67,1.491528,-1.8545630000000002,1.9486080000000001,0.292984,0.388351,-0.748474
968,9.68,1.5697020000000002,-1.495638,1.7035189999999998,0.22799699999999998,0.286087,-0.5588529999999999
969,9.69,1.219174,-0.4705039999999999,1.490417,0.205627,0.22216799999999998,-0.357529
970,9.7,0.597022,1.011714,1.344211,0.23759499999999997,0.22323600000000002,-0.148727
971,9.71,-0.22055300000000005,2.292455,1.231536,0.314285,0.264786,0.017440999999999998
972,9.72,-0.89487,2.838331,1.2386780000000002,0.425079,0.353195,0.153809
973,9.73,-1.261439,2.535973,1.194295,0.5486449999999999,0.48635900000000004,0.299744
974,9.74,-0.9986430000000001,1.540316,0.9387409999999999,0.601913,0.606735,0.44142200000000004
975,9.75,-0.770921,0.027376999999999985,0.991434,0.565689,0.693024,0.534103
976,9.76,-0.8241229999999999,-1.279293,1.061175,0.49964899999999995,0.753738,0.576706
977,9.77,-0.819694,-2.32516,0.989907,0.427216,0.797424,0.599075
978,9.78,-0.654038,-3.199877,0.9023370000000001,0.348373,0.824051,0.6054689999999999
979,9.79,-0.546478,-3.837525,0.901006,0.258896,0.848557,0.606537
980,9.8,-0.197991,-4.112197,0.9287790000000001,0.181137,0.8932950000000001,0.622513
981,9.81,0.20108,-4.101866,0.894093,0.11508199999999999,0.951874,0.633163
982,9.82,0.6566529999999999,-3.645308,0.805733,0.06076,0.9923549999999999,0.6427609999999999
983,9.83,1.126602,-2.857264,0.657396,-0.017014000000000005,1.021118,0.634232
984,9.84,1.4655049999999998,-2.047308,0.65085,-0.10328699999999999,1.0392299999999999,0.604416
985,9.85,1.58504,-1.410364,0.709935,-0.17040999999999998,1.056274,0.563934
986,9.86,1.6597790000000001,-1.1455030000000002,0.7427199999999999,-0.21727,1.062668,0.5128020000000001
987,9.87,1.5525520000000002,-1.088808,0.6608510000000001,-0.226868,1.0456239999999999,0.454208
988,9.88,1.445816,-1.1366049999999999,0.522622,-0.22154200000000002,1.005142,0.392426
989,9.89,1.320646,-1.122574,0.26104299999999997,-0.204498,0.9337770000000001,0.338089
990,9.9,1.235943,-1.4174799999999999,0.095011,-0.185318,0.8560030000000001,0.288025
991,9.91,1.221326,-1.6590630000000002,-0.195237,-0.167206,0.780365,0.250748
992,9.92,1.323827,-1.7267240000000001,-0.520242,-0.185318,0.714325,0.212387
993,9.93,1.517577,-1.731285,-0.629911,-0.231125,0.646149,0.18043499999999998
994,9.94,1.677615,-1.5821459999999998,-0.7521979999999999,-0.278,0.579041,0.141022
995,9.95,1.835927,-1.440359,-0.8525360000000001,-0.315277,0.5161899999999999,0.09628300000000001
996,9.96,1.990055,-1.3741079999999999,-0.96041,-0.34617600000000004,0.465057,0.05687
997,9.97,1.871846,-1.2917,-1.105699,-0.369614,0.42244,0.014252
998,9.98,1.391402,-1.0839809999999999,-1.315237,-0.371735,0.40007,-0.029419
999,9.99,1.001477,-0.860136,-1.458026,-0.347244,0.384094,-0.05499299999999999
1000,10.0,0.542304,-0.4255829999999999,-1.384024,-0.289719,0.368118,-0.085876
1001,10.01,0.314075,-0.06655899999999998,-1.35648,-0.219406,0.361725,-0.099731
1002,10.02,0.051385,0.22959899999999997,-1.175363,-0.16188,0.38302600000000003,-0.1008
1003,10.03,-0.446258,0.15374000000000002,-0.778939,-0.12460299999999999,0.411789,-0.112518
1004,10.04,-0.903668,0.092348,-0.441643,-0.12353499999999999,0.442688,-0.139145
1005,10.05,-0.9740690000000001,0.287661,-0.196964,-0.15123,0.43948400000000004,-0.155121
1006,10.06,-0.20053,0.7878890000000001,-0.080225,-0.168274,0.39474499999999996,-0.145538
1007,10.07,0.9158290000000001,1.399825,0.017431,-0.149094,0.296738,-0.119965
1008,10.08,1.6582869999999998,2.221412,-0.293101,-0.07559199999999999,0.208328,-0.06777999999999999
1009,10.09,2.099472,3.168101,-0.99421,0.035187,0.18808,0.030228
1010,10.1,1.712607,3.774597,-1.603299,0.179001,0.237091,0.12397799999999999
1011,10.11,0.09325899999999998,4.06516,-1.736229,0.291916,0.33615100000000003,0.170853
1012,10.12,-0.869991,3.856618,-1.07441,0.331329,0.412857,0.207062
1013,10.13,-1.8405779999999998,3.7655629999999998,0.06948500000000002,0.285522,0.436295,0.252869
1014,10.14,-1.184057,3.761311,1.075977,0.249313,0.411789,0.345551
1015,10.15,-0.10307500000000004,3.5386889999999998,2.179421,0.265289,0.31910700000000003,0.42437700000000006
1016,10.16,0.886376,3.167467,2.8180669999999997,0.313232,0.204071,0.503204
1017,10.17,1.394837,2.329872,3.6013040000000003,0.344116,0.054932000000000016,0.61293
1018,10.18,1.806699,1.195178,3.817022,0.403778,-0.005797999999999999,0.737564
1019,10.19,2.0674040000000002,0.06393899999999997,3.5804129999999996,0.5177609999999999,-0.06225599999999999,0.778046
1020,10.2,1.1834879999999999,-0.712749,3.1527119999999997,0.601913,-0.03775,0.7673949999999999
1021,10.21,-0.3821450000000002,-1.149053,2.6851380000000002,0.63707,0.069839,0.683243
1022,10.22,-1.467824,-1.1068559999999998,1.971725,0.622147,0.21044899999999997,0.575653
1023,10.23,-2.102911,-0.685551,1.44792,0.539062,0.324432,0.44142200000000004
1024,10.24,-2.4882009999999997,-0.0005539999999999988,1.352937,0.409103,0.376633,0.28376799999999996
1025,10.25,-2.4119580000000003,1.022362,1.227333,0.268478,0.379837,0.11651600000000001
1026,10.26,-1.5859889999999999,2.1103509999999996,0.994976,0.15876800000000002,0.3564,-0.039017
1027,10.27,-0.33323,2.788192,0.70653,0.114014,0.279694,-0.189209
1028,10.28,1.0915,2.708739,0.9233399999999999,0.155563,0.13908399999999999,-0.32663000000000003
1029,10.29,2.0036419999999997,1.955186,1.1165100000000001,0.263153,-0.02496300000000001,-0.458725
1030,10.3,2.826741,0.944368,0.957285,0.35051,-0.17836,-0.532227
1031,10.31,3.024252,-0.33862600000000004,0.697325,0.360092,-0.32217399999999996,-0.559921
1032,10.32,2.7380150000000003,-1.504438,0.5221939999999999,0.294052,-0.434036,-0.550339
1033,10.33,2.233225,-2.341177,0.429073,0.200302,-0.536301,-0.521576
1034,10.34,1.547534,-2.781775,0.277123,0.104431,-0.6172489999999999,-0.494949
1035,10.35,0.8063859999999999,-2.9186349999999996,0.356144,0.051163,-0.692886,-0.48855600000000005
1036,10.36,-0.092034,-2.816036,0.507173,0.053299,-0.749344,-0.5056
1037,10.37,-1.061134,-2.705157,0.589871,0.087387,-0.773849,-0.51944
1038,10.38,-1.844525,-2.613356,0.6495380000000001,0.12361099999999998,-0.76532,-0.522644
1039,10.39,-2.3601240000000003,-2.587214,0.521537,0.121475,-0.740829,-0.511993
1040,10.4,-2.559991,-2.647434,0.383085,0.069275,-0.700348,-0.489624
1041,10.41,-2.4967200000000003,-2.556094,0.206923,-0.017013999999999998,-0.636429,-0.44168100000000005
1042,10.42,-2.17137,-2.418761,0.118656,-0.09584,-0.589554,-0.37243699999999996
1043,10.43,-1.923427,-2.3359229999999997,0.0010249999999999981,-0.158691,-0.523514,-0.29361
1044,10.44,-1.768982,-2.17128,-0.17842,-0.190643,-0.454269,-0.209457
1045,10.45,-1.7667810000000002,-2.0565759999999997,-0.345964,-0.20982399999999998,-0.372238,-0.139145
1046,10.46,-1.86543,-2.0167770000000003,-0.556091,-0.218338,-0.295547,-0.070969
1047,10.47,-2.0451099999999998,-2.0122709999999997,-0.656594,-0.23751799999999998,-0.225235,-0.014511000000000001
1048,10.48,-2.135726,-1.9898150000000001,-0.694465,-0.266281,-0.163452,0.036621
1049,10.49,-2.2900110000000002,-1.9278490000000001,-0.773385,-0.301437,-0.105927,0.083496
1050,10.5,-2.342132,-1.664009,-0.810174,-0.322739,-0.047333,0.13037100000000001
1051,10.51,-2.1662790000000003,-1.303956,-0.877969,-0.315277,0.003799,0.167648
1052,10.52,-1.9778080000000002,-0.9220659999999999,-0.821174,-0.274796,0.061325,0.19961500000000001
1053,10.53,-1.6444779999999999,-0.566854,-0.720684,-0.206619,0.109253,0.219849
1054,10.54,-1.147314,-0.363151,-0.735741,-0.126724,0.131622,0.231567
1055,10.55,-0.746197,-0.212648,-0.8498379999999999,-0.064941,0.124176,0.243286
1056,10.56,-0.356653,-0.236922,-0.9416709999999999,-0.038314999999999995,0.096466,0.261398
1057,10.57,0.15468700000000002,-0.151692,-0.9593879999999999,-0.050033999999999995,0.048538,0.291214
1058,10.58,0.732386,-0.050365,-0.758583,-0.10116599999999999,-0.004729999999999997,0.316788
1059,10.59,1.162483,0.336671,-0.41517600000000005,-0.205566,-0.029236,0.314651
1060,10.6,0.937125,0.71048,0.215426,-0.31955,-0.034561,0.291214
1061,10.61,0.010719000000000034,1.457881,0.567072,-0.388779,0.0016629999999999993,0.258194
1062,10.62,-0.8400059999999999,2.727265,-0.108674,-0.37600700000000004,-0.005797999999999999,0.156998
1063,10.63,-1.266369,3.7420129999999996,-1.147227,-0.297165,-0.07077,0.002532999999999993
1064,10.64,-1.1024459999999998,4.062982,-1.972443,-0.197037,-0.16026300000000002,-0.14447000000000002
1065,10.65,-0.258108,4.117312,-2.218585,-0.130997,-0.23802199999999998,-0.27017199999999997
1066,10.66,0.190341,3.590435,-1.9950919999999999,-0.07986499999999999,-0.304062,-0.360718
1067,10.67,0.014158000000000004,2.4571810000000003,-1.5443639999999998,-0.045776,-0.332825,-0.407593
1068,10.68,-0.9892799999999999,1.4190120000000002,-1.144119,-0.036179,-0.36904899999999996,-0.41398599999999997
1069,10.69,-1.858312,1.176517,-0.681759,-0.070267,-0.41272,-0.37669400000000003
1070,10.7,-1.235589,1.7368119999999998,-0.216527,-0.139511,-0.475571,-0.307465
1071,10.71,-1.066352,2.821095,0.5464680000000001,-0.18850699999999998,-0.510727,-0.27975500000000003
1072,10.72,-1.567423,3.8119669999999997,1.6869049999999999,-0.187454,-0.46278400000000003,-0.315979
1073,10.73,-2.420156,4.249559,2.98438,-0.150162,-0.300873,-0.4534
1074,10.74,-2.623487,3.520483,3.993727,-0.071335,-0.11125200000000003,-0.640884
1075,10.75,-2.195382,1.791063,4.377649,0.055435000000000005,0.045334,-0.790024
1076,10.76,-0.992325,-0.180489,3.863146,0.17686500000000002,0.140152,-0.865662
1077,10.77,0.518541,-1.924955,2.8616099999999998,0.255707,0.119904,-0.867783
1078,10.78,1.211407,-3.399492,2.082512,0.280197,0.02829,-0.791092
1079,10.79,1.6430240000000003,-4.118646,1.680855,0.277008,-0.038818,-0.65686
1080,10.8,1.83913,-3.814197,1.542024,0.257828,-0.049469,-0.49706999999999996
1081,10.81,1.8938130000000002,-2.623262,1.488527,0.203506,-0.033493,-0.344742
1082,10.82,1.385177,-1.0039049999999998,1.3320670000000001,0.126801,-0.003661999999999999,-0.20413199999999998
1083,10.83,0.46869399999999994,0.487677,1.320802,0.056503,0.064514,-0.064575
1084,10.84,-0.757232,1.5597940000000001,1.354939,-0.010619999999999996,0.20619200000000001,0.051528999999999985
1085,10.85,-1.771723,2.0247029999999997,1.579301,-0.027663999999999998,0.385162,0.156998
1086,10.86,-2.170433,2.181197,1.597127,-0.0020900000000000016,0.525772,0.259262
1087,10.87,-2.522119,1.715307,1.8923560000000001,0.053299,0.670654,0.343414
1088,10.88,-2.469693,0.9209629999999999,2.055349,0.110825,0.80275,0.416916
1089,10.89,-1.998607,0.213595,1.900211,0.16409300000000002,0.8932950000000001,0.47337299999999993
1090,10.9,-1.235801,-0.552528,1.560151,0.184326,0.952942,0.526642
1091,10.91,-0.482129,-1.125302,1.327642,0.166214,1.0083469999999999,0.5671229999999999
1092,10.92,0.08166499999999996,-1.499352,1.154059,0.143845,1.07225,0.601212
1093,10.93,0.47387799999999997,-1.7359349999999998,1.034453,0.119354,1.1276549999999999,0.626785
1094,10.94,0.848656,-1.844828,0.948844,0.082062,1.173462,0.650208
1095,10.95,1.074058,-1.624295,0.735712,0.025604000000000002,1.20755,0.650208
1096,10.96,1.323754,-1.275291,0.484324,-0.030853,1.212875,0.6299739999999999
1097,10.97,1.491133,-0.9505440000000001,0.32998099999999997,-0.070267,1.189438,0.588425
1098,10.98,1.485757,-0.942217,0.22695900000000002,-0.086243,1.156418,0.541565
1099,10.99,1.434814,-1.133826,0.106003,-0.086243,1.105286,0.48936499999999994
1100,11.0,1.437096,-1.5218559999999999,0.03394,-0.084122,1.04776,0.44248999999999994
1101,11.01,1.379238,-1.7915709999999998,-0.199856,-0.090515,0.9710540000000001,0.399872
1102,11.02,1.43674,-1.890714,-0.400493,-0.120331,0.8869020000000001,0.36473099999999997
1103,11.03,1.4393559999999999,-1.852041,-0.5255569999999999,-0.15975999999999999,0.798477,0.33064299999999996
1104,11.04,1.560442,-1.672786,-0.629529,-0.20982399999999998,0.7260439999999999,0.306137
1105,11.05,1.766416,-1.54625,-0.6661729999999999,-0.260956,0.654678,0.28376799999999996
1106,11.06,1.915305,-1.422289,-0.739577,-0.29823299999999997,0.5811609999999999,0.24540700000000001
1107,11.07,2.048772,-1.302602,-0.822376,-0.334457,0.508728,0.201736
1108,11.08,2.027924,-1.25294,-0.872711,-0.36322,0.43309,0.14846800000000002
1109,11.09,1.9765259999999998,-1.309191,-0.879971,-0.364288,0.362793,0.083496
1110,11.1,1.599681,-1.1848450000000001,-1.049951,-0.364288,0.30101,0.02597
1111,11.11,1.1320459999999999,-1.090747,-1.164368,-0.371735,0.256256,-0.0177
1112,11.12,0.710597,-0.88159,-1.121885,-0.35896300000000003,0.21791100000000002,-0.058182000000000005
1113,11.13,0.347083,-0.621164,-1.157385,-0.32913200000000004,0.187027,-0.08694500000000001
1114,11.14,0.15448,-0.258225,-1.3022690000000001,-0.297165,0.171036,-0.099731
1115,11.15,0.009331,-0.034376000000000004,-1.328582,-0.25882,0.17424,-0.09227
1116,11.16,-0.07919199999999997,-0.012083,-1.265109,-0.20875500000000002,0.194473,-0.096542
1117,11.17,-0.556161,-0.12163900000000001,-0.8492280000000001,-0.167206,0.204071,-0.13382
1118,11.18,-0.714268,-0.013477000000000005,-0.674135,-0.168274,0.21791100000000002,-0.148727
1119,11.19,-0.704581,0.330577,-0.70243,-0.189575,0.236023,-0.134888
1120,11.2,-0.015746000000000038,0.645966,-0.658289,-0.214081,0.220047,-0.106125
1121,11.21,0.536141,1.036107,-0.558832,-0.230057,0.176361,-0.089081
1122,11.22,0.732457,1.623118,-0.593949,-0.22261,0.163589,-0.072037
1123,11.23,0.618777,2.133175,-0.9256629999999999,-0.18212899999999999,0.19128399999999998,-0.049667
1124,11.24,0.385452,2.372675,-1.357613,-0.116074,0.266922,-0.021973
1125,11.25,-0.47956099999999996,2.474323,-1.585572,-0.061752,0.360657,-0.0017239999999999998
1126,11.26,-1.5234379999999998,2.392609,-1.703152,-0.039383,0.47463999999999995,0.028107
1127,11.27,-1.6729310000000002,2.173941,-1.4676420000000001,-0.06601,0.527908,0.083496
1128,11.28,-1.369162,2.034752,-0.9982639999999999,-0.130997,0.555603,0.137817
1129,11.29,-0.8797089999999999,2.0560869999999998,-0.28686300000000003,-0.189575,0.589691,0.153809
1130,11.3,0.07506299999999999,2.606415,0.20048,-0.202362,0.579041,0.171906
1131,11.31,0.48845299999999997,3.324346,0.666921,-0.185318,0.531097,0.213455
1132,11.32,1.223886,3.791381,1.09386,-0.15123,0.44055200000000005,0.297607
1133,11.33,2.235232,3.8083989999999996,1.5670959999999998,-0.091568,0.291412,0.402008
1134,11.34,3.013327,3.148762,2.350062,0.038391,0.031494000000000015,0.56926
1135,11.35,2.394254,2.044763,2.78004,0.142776,-0.084625,0.664062
1136,11.36,1.583978,0.518951,3.044943,0.279129,-0.077164,0.702408
1137,11.37,0.794024,-1.008559,2.597897,0.42082200000000003,0.018706999999999998,0.696014
1138,11.38,0.02583299999999994,-2.343486,2.010682,0.528412,0.124176,0.6555479999999999
1139,11.39,-0.7256199999999999,-3.436574,1.455983,0.5976560000000001,0.212585,0.580978
1140,11.4,-1.587783,-3.881457,0.833517,0.626419,0.271179,0.48190299999999997
1141,11.41,-2.35105,-3.729832,0.282519,0.5976560000000001,0.308456,0.371109
1142,11.42,-2.548482,-3.0819099999999997,-0.043991,0.480469,0.31485,0.272049
1143,11.43,-2.289248,-2.233691,0.071743,0.299377,0.31485,0.17511
1144,11.44,-1.8138,-1.0830469999999999,0.256673,0.11296099999999999,0.3255,0.066452
1145,11.45,-0.7446510000000001,0.16715299999999994,0.44516300000000003,-0.061752,0.310593,-0.020905
1146,11.46,0.534958,1.1701409999999999,0.679638,-0.193848,0.256256,-0.099731
1147,11.47,1.335069,1.585336,1.030454,-0.29504400000000003,0.181686,-0.174301
1148,11.48,2.039086,1.6411799999999999,1.3885370000000001,-0.336594,0.071976,-0.222244
1149,11.49,2.33364,1.558791,1.5671629999999999,-0.321671,-0.035614,-0.24673499999999998
1150,11.5,1.9621490000000001,1.193622,1.8516439999999998,-0.270538,-0.135757,-0.274429
1151,11.51,1.420536,0.769018,2.0728880000000003,-0.19278,-0.21351599999999998,-0.31279
1152,11.52,0.878567,0.5364140000000001,1.9529,-0.115005,-0.288086,-0.357529
1153,11.53,0.006313000000000013,0.329803,1.755995,-0.05215499999999999,-0.35733000000000004,-0.422501
1154,11.54,-0.745314,0.123134,1.481817,-0.014877,-0.408463,-0.48109399999999997
1155,11.55,-1.30037,-0.052333000000000005,1.06837,0.021347,-0.430832,-0.525833
1156,11.56,-1.8555099999999998,-0.35483899999999996,0.6590779999999999,0.053299,-0.434036,-0.555664
1157,11.57,-2.096918,-0.689466,0.35002,0.086319,-0.418045,-0.567383
1158,11.58,-2.098887,-0.9388479999999999,0.08545999999999998,0.10656700000000001,-0.39355500000000004,-0.567383
1159,11.59,-1.8472279999999999,-1.2142620000000002,-0.113008,0.114014,-0.367981,-0.552475
1160,11.6,-1.4405629999999998,-1.534542,-0.3156,0.111893,-0.327499,-0.525833
1161,11.61,-1.069551,-1.786129,-0.523364,0.104431,-0.288086,-0.49706999999999996
1162,11.62,-0.782027,-2.060509,-0.782316,0.078873,-0.25293000000000004,-0.46298199999999995
1163,11.63,-0.804905,-2.332997,-0.943679,0.036255,-0.225235,-0.435287
1164,11.64,-0.822456,-2.402793,-1.161789,-0.034058,-0.191147,-0.38736
1165,11.65,-1.118744,-2.410589,-1.177673,-0.12353499999999999,-0.174103,-0.344742
1166,11.66,-1.200048,-2.447384,-1.14887,-0.21514899999999998,-0.152802,-0.296799
1167,11.67,-1.4512129999999999,-2.4044529999999997,-0.9938549999999999,-0.300369,-0.1315,-0.242477
1168,11.68,-1.593112,-2.365673,-0.884142,-0.361084,-0.097412,-0.183884
1169,11.69,-1.78742,-2.2792470000000002,-0.78682,-0.398376,-0.054794,-0.123169
1170,11.7,-1.854728,-2.162169,-0.791011,-0.42393500000000006,-0.017516999999999998,-0.057114
1171,11.71,-1.78148,-2.02366,-0.8308209999999999,-0.42926000000000003,0.013382,0.014252000000000003
1172,11.72,-1.644249,-1.835809,-0.8905299999999999,-0.42500299999999996,0.029358,0.093079
1173,11.73,-1.4033280000000001,-1.520513,-0.974391,-0.419678,0.029358,0.162323
1174,11.74,-1.172088,-1.106622,-0.96295,-0.426071,0.027237,0.221985
1175,11.75,-0.944059,-0.613975,-0.9310959999999999,-0.43885799999999997,0.025101,0.25393699999999997
1176,11.76,-0.642363,0.009830000000000005,-0.8850889999999999,-0.45057700000000006,0.010193,0.263519
1177,11.77,-0.33421100000000004,0.619809,-0.809666,-0.45057700000000006,-0.019638,0.24754299999999999
1178,11.78,-0.09661,1.120116,-0.702019,-0.426071,-0.065445,0.213455
1179,11.79,0.254261,1.4263860000000002,-0.6038180000000001,-0.370682,-0.11445599999999999,0.170853
1180,11.8,0.68615,1.59675,-0.442461,-0.304626,-0.163452,0.135696
1181,11.81,0.865309,1.581887,-0.36493200000000003,-0.234314,-0.207123,0.10054
1182,11.82,0.786896,1.514261,-0.27932199999999996,-0.18212899999999999,-0.232697,0.068573
1183,11.83,0.385364,1.367531,-0.155204,-0.15123,-0.242279,0.052597000000000005
1184,11.84,-0.15831199999999998,1.450317,-0.162431,-0.12779200000000002,-0.247604,0.037689
1185,11.85,-0.6297189999999999,1.79279,-0.50818,-0.08519,-0.280624,0.014252000000000003
1186,11.86,-0.621325,2.220623,-1.210582,-0.007415999999999998,-0.367981,-0.023025999999999998
1187,11.87,-0.370122,2.49064,-1.822228,0.092712,-0.479828,-0.066711
1188,11.88,0.081926,2.583736,-2.145512,0.16514600000000002,-0.579971,-0.112518
1189,11.89,0.59797,2.3977009999999996,-2.196901,0.184326,-0.677979,-0.148727
1190,11.9,0.365722,2.0129580000000002,-1.9778229999999999,0.141724,-0.738693,-0.192413
1191,11.91,-0.550133,1.5938430000000001,-0.826946,-0.072403,-0.798355,-0.23608400000000002
1192,11.92,-1.087227,1.970978,0.04272800000000005,-0.177856,-0.802612,-0.25845300000000004
1193,11.93,-1.267248,2.637595,0.84778,-0.26521300000000003,-0.740829,-0.307465
1194,11.94,-1.5757450000000002,3.3010230000000003,1.529156,-0.314209,-0.646011,-0.390549
1195,11.95,-2.342741,3.6660000000000004,2.243681,-0.29823299999999997,-0.486221,-0.506668
1196,11.96,-2.585556,3.199593,2.8991580000000003,-0.210892,-0.30300900000000003,-0.6057279999999999
1197,11.97,-2.110534,2.020655,3.1631970000000003,-0.048965000000000015,-0.15387,-0.644089
1198,11.98,-1.390133,0.5779450000000002,2.976703,0.13105799999999998,-0.088882,-0.638748
1199,11.99,-0.389298,-0.716436,2.592439,0.252502,-0.08569299999999999,-0.62384
1200,12.0,0.554616,-2.008384,2.12736,0.322815,-0.136826,-0.578033
1201,12.01,1.159261,-3.078487,1.7926240000000002,0.379272,-0.227371,-0.49067700000000003
1202,12.02,1.7124009999999998,-3.628562,1.431961,0.422943,-0.29341100000000003,-0.379898
1203,12.03,2.116149,-3.607271,1.071966,0.433594,-0.32431,-0.261658
1204,12.04,2.303297,-3.103174,0.875289,0.385666,-0.34028600000000003,-0.153
1205,12.05,1.97838,-2.270902,0.722363,0.286591,-0.333893,-0.077362
1206,12.06,1.355366,-1.116866,0.580214,0.161957,-0.300873,-0.0177
1207,12.07,0.551266,-0.027119000000000004,0.531637,0.04158,-0.212448,0.033431999999999996
1208,12.08,-0.21692399999999998,0.8864850000000001,0.69665,-0.050033999999999995,-0.087814,0.079239
1209,12.09,-0.706262,1.561129,0.8891,-0.092636,0.049606,0.12290999999999999
1210,12.1,-0.713091,1.907689,1.1676540000000002,-0.07772799999999999,0.16145299999999999,0.179367
1211,12.11,-0.570435,1.826709,1.492202,-0.019135,0.23176599999999997,0.219849
1212,12.12,-0.517834,1.369376,1.7781939999999998,0.092712,0.279694,0.25500500000000004
1213,12.13,-0.340985,0.6787130000000001,1.8613650000000002,0.21095300000000003,0.30633499999999997,0.295486
1214,12.14,-0.11565299999999999,0.06388700000000003,1.614931,0.29512,0.328705,0.344482
1215,12.15,0.1426,-0.5399109999999999,1.2030889999999999,0.346252,0.34786999999999996,0.391357
1216,12.16,0.27735,-0.917688,0.8555959999999999,0.362228,0.368118,0.43823199999999995
1217,12.17,0.31402800000000003,-1.239965,0.5355989999999999,0.35902399999999995,0.397949,0.47337299999999993
1218,12.18,0.43473999999999996,-1.478526,0.27112600000000003,0.340927,0.418182,0.49894700000000003
1219,12.19,0.505368,-1.546753,-0.05729400000000001,0.299377,0.442688,0.5128020000000001
1220,12.2,0.54296,-1.504016,-0.26802800000000004,0.23866300000000001,0.44908100000000006,0.506409
1221,12.21,0.62216,-1.434146,-0.47697700000000004,0.17793299999999998,0.438416,0.49468999999999996
1222,12.22,0.653342,-1.395361,-0.576615,0.13105799999999998,0.42776499999999995,0.47871400000000003
1223,12.23,0.7480479999999999,-1.354914,-0.713811,0.098038,0.406464,0.464859
1224,12.24,0.9102,-1.395294,-0.801972,0.06501799999999999,0.38302600000000003,0.44248999999999994
1225,12.25,1.056358,-1.394427,-0.777401,0.024536,0.348938,0.411591
1226,12.26,1.199049,-1.4211850000000001,-0.799952,-0.013809,0.315918,0.376434
1227,12.27,1.275693,-1.269411,-0.846226,-0.046829,0.29248,0.344482
1228,12.28,1.372982,-1.068712,-0.8756520000000001,-0.07772799999999999,0.274368,0.31359899999999996
1229,12.29,1.450009,-0.936366,-0.8349479999999999,-0.105423,0.254135,0.280563
1230,12.3,1.4372559999999999,-0.911049,-0.786082,-0.12779200000000002,0.22749299999999997,0.24540700000000001
1231,12.31,1.354198,-0.853406,-0.762748,-0.143768,0.197678,0.212387
1232,12.32,1.276508,-0.7803399999999999,-0.773461,-0.152298,0.162521,0.172974
1233,12.33,1.14525,-0.762487,-0.810747,-0.156555,0.127365,0.132492
1234,12.34,1.074829,-0.720414,-0.8360790000000001,-0.142715,0.084747,0.090958
1235,12.35,0.980532,-0.7559100000000001,-0.884825,-0.11821,0.052795,0.038757
1236,12.36,0.767436,-0.745809,-0.982942,-0.09584,0.025101,-0.011322
1237,12.37,0.544037,-0.700855,-1.169999,-0.074524,0.012314,-0.060318
1238,12.38,0.47587299999999993,-0.677896,-1.357056,-0.057479999999999996,-0.008986999999999998,-0.095474
1239,12.39,0.5165850000000001,-0.505287,-1.518068,-0.039383,-0.029236,-0.116776
1240,12.4,0.587328,-0.35844499999999996,-1.574684,-0.023392,-0.055862,-0.125305
1241,12.41,0.655303,-0.173176,-1.524532,-0.018066,-0.066513,-0.112518
1242,12.42,0.46288900000000005,-0.021056000000000002,-1.4430180000000001,-0.030853,-0.056930999999999995,-0.09120199999999999
1243,12.43,0.125843,0.070059,-1.340857,-0.057479999999999996,-0.024963,-0.06350700000000001
1244,12.44,-0.3325429999999999,0.17688900000000002,-1.257241,-0.083054,0.024033000000000002,-0.046463
1245,12.45,-0.733194,0.318412,-1.25567,-0.10968,0.079422,-0.048599
1246,12.46,-0.943421,0.539763,-1.30029,-0.126724,0.134827,-0.070969
1247,12.47,-0.911407,0.820342,-1.30491,-0.13525399999999999,0.178497,-0.09440599999999999
1248,12.48,-0.829167,0.990808,-1.208909,-0.129929,0.211517,-0.123169
1249,12.49,-0.512278,1.059669,-1.150491,-0.108627,0.24028000000000002,-0.139145
1250,12.5,-0.342559,1.27145,-1.137618,-0.074524,0.271179,-0.13063
1251,12.51,-0.380282,1.456117,-1.3315379999999999,-0.037247,0.327637,-0.106125
1252,12.52,-0.462052,1.608863,-1.614735,-0.0031589999999999986,0.405396,-0.072037
1253,12.53,-0.48014700000000005,1.677893,-1.8744299999999998,0.036255,0.489548,-0.049667
1254,12.54,-0.465091,1.9927849999999998,-1.9751729999999998,0.046906,0.565186,-0.005981
1255,12.55,-0.297619,2.297011,-1.701256,0.026672,0.613129,0.043015
1256,12.56,0.168758,2.6033150000000003,-1.220243,-0.006348,0.604599,0.095215
1257,12.57,0.667367,2.931293,-0.512318,-0.027663999999999998,0.599274,0.11651600000000001
1258,12.58,0.730975,3.315954,0.290054,-0.03511,0.602478,0.11651600000000001
1259,12.59,1.257104,3.662438,0.907165,-0.011687999999999999,0.570511,0.11972000000000001
1260,12.6,1.563222,3.8116230000000004,1.560859,0.038391,0.465057,0.15274000000000001
1261,12.61,2.237,3.554272,2.050278,0.11296099999999999,0.321243,0.226242
1262,12.62,2.812691,2.821894,2.480089,0.213089,0.147598,0.323181
1263,12.63,2.9754959999999997,1.551223,2.850695,0.320679,0.003798999999999997,0.42012
1264,12.64,2.3204849999999997,-0.09386799999999997,3.111005,0.422943,-0.063324,0.47125200000000006
1265,12.65,1.446391,-1.650302,2.848739,0.5017699999999999,-0.051605,0.487228
1266,12.66,0.674818,-2.75889,2.409421,0.535858,-0.014313,0.48403900000000005
1267,12.67,-0.19111300000000006,-3.443279,1.8994090000000001,0.537994,0.034683,0.44142200000000004
1268,12.68,-0.8910420000000001,-3.577521,1.434587,0.531601,0.098602,0.3349
1269,12.69,-1.503787,-3.102307,0.972044,0.49858100000000005,0.143341,0.218781
1270,12.7,-1.8633279999999999,-2.260123,0.641832,0.414429,0.162521,0.11438
1271,12.71,-2.042136,-1.210445,0.315226,0.285522,0.157196,0.021713
1272,12.72,-1.568815,-0.19930000000000006,0.05587,0.143845,0.134827,-0.05285599999999999
1273,12.73,-0.489692,0.836699,-0.090173,0.023468000000000003,0.077301,-0.123169
1274,12.74,0.779734,1.427704,-0.05810800000000001,-0.072403,-0.013244999999999998,-0.188141
1275,12.75,1.796929,1.7694169999999998,0.293749,-0.10755899999999999,-0.120834,-0.243546
1276,12.76,2.421166,1.7514720000000001,0.650947,-0.09584,-0.22843899999999998,-0.303192
1277,12.77,2.588568,1.285045,1.037285,-0.039383,-0.318985,-0.339417
1278,12.78,2.502087,0.450559,1.31443,0.039458999999999994,-0.383957,-0.366043
1279,12.79,2.174386,-0.324276,1.305102,0.089523,-0.45108000000000004,-0.40333600000000003
1280,12.8,1.7338650000000002,-0.8961180000000001,0.992959,0.095917,-0.529907,-0.449142
1281,12.81,1.071963,-1.1372719999999998,0.6983159999999999,0.086319,-0.6172489999999999,-0.504532
1282,12.82,0.410955,-1.168505,0.43503500000000006,0.057555999999999996,-0.6982119999999999,-0.542877
1283,12.83,-0.237696,-1.0947120000000001,0.27155,0.021347,-0.762131,-0.575897
1284,12.84,-0.727047,-0.975201,0.126553,-0.015944999999999997,-0.795151,-0.584427
1285,12.85,-1.049676,-0.886602,0.090947,-0.041504,-0.802612,-0.5865630000000001
1286,12.86,-1.271575,-0.75476,-0.0016680000000000028,-0.055359000000000005,-0.7845,-0.582291
1287,12.87,-1.2404899999999999,-0.742354,-0.137542,-0.058548,-0.759995,-0.566315
1288,12.88,-1.203797,-0.934031,-0.314262,-0.04364,-0.733368,-0.534363
1289,12.89,-1.18026,-1.214693,-0.486034,-0.03299,-0.697144,-0.49920699999999996
1290,12.9,-1.145744,-1.538009,-0.625861,-0.036179,-0.654541,-0.457657
1291,12.91,-1.1729370000000001,-1.867398,-0.731283,-0.054291,-0.608734,-0.42038000000000003
1292,12.92,-1.268066,-2.092899,-0.790762,-0.083054,-0.563995,-0.37350500000000003
1293,12.93,-1.385042,-2.2457279999999997,-0.820041,-0.13311800000000001,-0.514984,-0.329834
1294,12.94,-1.523996,-2.306952,-0.811737,-0.189575,-0.458527,-0.28828400000000004
1295,12.95,-1.625709,-2.353873,-0.841269,-0.23645,-0.40420500000000004,-0.231827
1296,12.96,-1.8326349999999998,-2.358582,-0.845145,-0.271606,-0.331757,-0.167908
1297,12.97,-1.872632,-2.265128,-0.932307,-0.296112,-0.253998,-0.096542
1298,12.98,-1.794488,-2.245345,-1.0056479999999999,-0.317413,-0.18582200000000001,-0.024094000000000004
1299,12.99,-1.761841,-2.184856,-1.056807,-0.334457,-0.1315,0.045151
1300,13.0,-1.606464,-1.918852,-1.1006850000000001,-0.370682,-0.07823200000000001,0.113327
1301,13.01,-1.380752,-1.478725,-1.069202,-0.405823,-0.030289,0.174042
1302,13.02,-1.020752,-0.9293620000000001,-1.074117,-0.436722,0.0027309999999999986,0.21666
1303,13.03,-0.741052,-0.315272,-0.956986,-0.456955,0.021912,0.235825
1304,13.04,-0.4019,0.40636300000000003,-0.890199,-0.46548500000000004,0.034683,0.219849
1305,13.05,-0.11789900000000005,1.094272,-0.869517,-0.467621,0.017639,0.172974
1306,13.06,0.235913,1.483675,-0.809671,-0.45163000000000003,-0.029236,0.104797
1307,13.07,0.7044699999999999,1.5702610000000001,-0.632304,-0.402634,-0.084625,0.041946
1308,13.08,1.1158629999999998,1.5329840000000001,-0.5416569999999999,-0.32913200000000004,-0.136826,-0.007050000000000002
1309,13.09,1.3395219999999999,1.539213,-0.5321640000000001,-0.25669899999999995,-0.182632,-0.02623
1310,13.1,1.193222,1.564918,-0.41739799999999994,-0.18850699999999998,-0.222046,-0.024094
1311,13.11,0.805707,1.627464,-0.33985,-0.134186,-0.27317800000000003,-0.009186
1312,13.12,0.119334,1.816346,-0.44298999999999994,-0.071335,-0.311523,-0.005981
1313,13.13,-0.58416,2.118099,-0.853734,-0.012741000000000002,-0.353073,-0.029419
1314,13.14,-1.0277129999999999,2.475613,-1.524525,0.05862400000000001,-0.395676,-0.076294
1315,13.15,-1.068368,2.594089,-2.204294,0.140656,-0.45108000000000004,-0.137009
1316,13.16,-0.8091020000000001,2.454519,-2.75828,0.204575,-0.51712,-0.19134500000000002
1317,13.17,-0.489932,2.064288,-2.996388,0.21095300000000003,-0.568253,-0.23075900000000002
1318,13.18,-0.20854,1.6799560000000002,-2.822323,0.148102,-0.62471,-0.250992
1319,13.19,-0.558983,1.522541,-2.209078,0.042648000000000005,-0.640686,-0.269104
1320,13.2,-0.651762,1.729812,-1.483841,-0.086243,-0.6279140000000001,-0.28721599999999997
1321,13.21,-0.534296,2.094415,-0.781193,-0.18850699999999998,-0.6332399999999999,-0.280823
1322,13.22,-1.018168,2.455404,0.247856,-0.24177600000000002,-0.588486,-0.272308
1323,13.23,-1.1880870000000001,3.033052,1.307123,-0.276932,-0.46278400000000003,-0.290421
1324,13.24,-1.852327,3.550065,2.150338,-0.29504400000000003,-0.290222,-0.366043
1325,13.25,-2.853066,3.4346900000000002,2.934145,-0.26947,-0.06758099999999999,-0.498138
1326,13.26,-2.792345,2.389178,3.388304,-0.176804,0.138016,-0.568451
1327,13.27,-1.9806840000000001,0.7078449999999998,3.3037949999999996,-0.019135,0.232834,-0.54715
1328,13.28,-0.15989999999999993,-1.410447,2.615457,0.17793299999999998,0.197678,-0.432098
1329,13.29,0.613029,-2.5800959999999997,2.1290150000000003,0.253571,0.146545,-0.330887
1330,13.3,1.280205,-3.3378690000000004,1.632418,0.311096,0.100739,-0.192413
1331,13.31,1.791775,-3.510643,1.251897,0.327072,0.063446,-0.048599
1332,13.32,2.233659,-3.073444,0.809017,0.285522,0.014449999999999998,0.073914
1333,13.33,2.3560220000000003,-2.224632,0.373895,0.193909,-0.0271,0.159134
1334,13.34,2.185148,-1.300959,0.03076200000000001,0.0746,-0.015381,0.214523
1335,13.35,1.7298509999999998,-0.548541,-0.132384,-0.041503999999999985,0.018706999999999998,0.233704
1336,13.36,1.030942,-0.101925,-0.112598,-0.144836,0.070908,0.231567
1337,13.37,0.24076200000000006,0.06979500000000001,0.06284999999999999,-0.205566,0.13908399999999999,0.24754299999999999
1338,13.38,-0.22616799999999998,0.37892800000000004,0.25965,-0.246033,0.221115,0.29335
1339,13.39,0.003584000000000004,0.536345,0.482495,-0.262024,0.26265,0.363663
1340,13.4,0.16145,0.592761,0.9383799999999999,-0.253494,0.242416,0.42758199999999996
1341,13.41,0.18638,0.405138,1.149994,-0.187454,0.232834,0.487228
1342,13.42,0.29018499999999997,-0.041852,1.091545,-0.092636,0.224304,0.535172
1343,13.43,0.5413399999999999,-0.535295,0.8282450000000001,-0.014877,0.21791100000000002,0.568192
1344,13.44,0.624156,-0.9843799999999999,0.414551,0.034119,0.22216799999999998,0.586304
1345,13.45,0.634212,-1.346999,0.07339200000000001,0.051163,0.225372,0.590561
1346,13.46,0.736275,-1.546435,-0.234181,0.045837,0.21791100000000002,0.590561
1347,13.47,0.8367709999999999,-1.449065,-0.569897,0.022415,0.20086700000000002,0.5820310000000001
1348,13.48,1.000425,-1.363243,-0.8288780000000001,3.099999999999978e-05,0.178497,0.56926
1349,13.49,1.129683,-1.3111389999999998,-1.0271709999999998,-0.017013999999999998,0.14440899999999998,0.538361
1350,13.5,1.3182530000000001,-1.390144,-1.187435,-0.028732,0.10180700000000001,0.506409
1351,13.51,1.435323,-1.473537,-1.350259,-0.026595999999999998,0.050658999999999996,0.469116
1352,13.52,1.442101,-1.519401,-1.5386950000000001,-0.03299,-0.0015259999999999994,0.42651400000000006
1353,13.53,1.437173,-1.612103,-1.706422,-0.048964999999999995,-0.047333,0.388153
1354,13.54,1.376185,-1.628914,-1.874539,-0.072403,-0.08248899999999999,0.351944
1355,13.55,1.247817,-1.623138,-2.0303970000000002,-0.100098,-0.11445599999999999,0.32424899999999995
1356,13.56,1.207541,-1.533331,-2.1151459999999997,-0.129929,-0.152802,0.289093
1357,13.57,1.051112,-1.396242,-2.024787,-0.156555,-0.184753,0.24968
1358,13.58,1.043207,-1.379419,-1.906664,-0.167206,-0.212448,0.20813
1359,13.59,0.994274,-1.448236,-1.7741259999999999,-0.16081199999999998,-0.235886,0.16658
1360,13.6,0.9608209999999999,-1.4909139999999999,-1.687509,-0.141647,-0.258255,0.12290999999999999
1361,13.61,0.8608379999999999,-1.519614,-1.7676150000000002,-0.11821,-0.288086,0.085617
1362,13.62,0.739305,-1.463932,-1.8580459999999999,-0.093704,-0.30938699999999997,0.050476
1363,13.63,0.512065,-1.278508,-2.002181,-0.081985,-0.314713,0.022781
1364,13.64,0.358631,-0.9874040000000001,-2.108857,-0.07347100000000001,-0.29341100000000003,0.004669
1365,13.65,0.164416,-0.538288,-2.1783930000000002,-0.068146,-0.250809,-0.009186
1366,13.66,-0.184914,0.015934000000000004,-2.199059,-0.061752,-0.18901099999999998,-0.020905
1367,13.67,-0.33228800000000003,0.759857,-2.1791490000000002,-0.06282,-0.121902,-0.033691000000000006
1368,13.68,-0.550926,1.645273,-2.065243,-0.069199,-0.050537,-0.056061
1369,13.69,-0.639374,2.550144,-1.8277029999999999,-0.092636,0.021912000000000004,-0.075226
1370,13.7,-0.589703,3.239796,-1.6429919999999998,-0.121399,0.091141,-0.09120199999999999
1371,13.71,-0.072575,3.712293,-1.427502,-0.13205,0.110321,-0.09120199999999999
1372,13.72,1.051643,4.186717,-1.353338,-0.125671,0.06665,-0.06777999999999999
1373,13.73,2.1194580000000003,4.739699,-1.337172,-0.080917,-0.0004730000000000012,-0.021973
1374,13.74,2.5222849999999997,5.305887,-1.629718,0.0032350000000000018,-0.026031,0.015319999999999999
1375,13.75,1.9259130000000002,5.682626,-2.145526,0.13105799999999998,-0.010056,0.033431999999999996
1376,13.76,0.516942,5.365131,-2.8766830000000003,0.27594,0.050659,0.029160000000000002
1377,13.77,-0.531284,4.413808,-3.3860099999999997,0.401642,0.146545,0.007858
1378,13.78,-0.062101000000000024,3.232727,-3.3525690000000004,0.47514300000000004,0.22323600000000002,-0.000656
1379,13.79,0.752125,2.222024,-2.393999,0.471954,0.22856100000000001,0.030227999999999998
1380,13.8,1.931554,1.365561,-0.5934820000000001,0.390991,0.16571,0.064316
1381,13.81,2.052459,0.976892,0.827204,0.296188,0.14866600000000002,0.060059
1382,13.82,2.3641959999999997,0.791283,1.653073,0.243988,0.157196,0.069641
1383,13.83,2.356456,0.397468,2.947897,0.217346,0.054932000000000016,0.06752000000000001
1384,13.84,2.321527,-0.09624599999999996,3.6728199999999998,0.23652600000000001,-0.068649,0.093079
1385,13.85,2.491932,-0.512058,3.4438720000000003,0.298309,-0.233765,0.120773
1386,13.86,2.5100729999999998,-1.186931,3.1109459999999998,0.345184,-0.407394,0.16658
1387,13.87,1.928173,-1.333294,2.4303169999999996,0.30896,-0.5469510000000001,0.205994
1388,13.88,1.3219,-1.0236370000000001,1.7130830000000001,0.22799699999999998,-0.621521,0.19001800000000002
1389,13.89,0.9817670000000001,-0.3612230000000001,1.323996,0.160889,-0.628967,0.115448
1390,13.9,0.7663479999999999,0.33564499999999997,1.11737,0.127869,-0.631104,-0.008118
1391,13.91,0.5372180000000001,0.8517309999999999,0.857244,0.12361099999999998,-0.621521,-0.188141
1392,13.92,0.405409,1.0427879999999998,0.613809,0.128937,-0.652405,-0.371368
1393,13.93,0.301263,1.28785,0.319341,0.137451,-0.708862,-0.541809
1394,13.94,0.158364,1.139134,0.020633000000000002,0.136398,-0.761063,-0.682434
1395,13.95,-0.002942,0.479448,-0.050766000000000006,0.10231,-0.8015439999999999,-0.777237
1396,13.96,-0.137093,-0.612537,0.128565,0.042648,-0.8281709999999999,-0.813461
1397,13.97,-0.18243299999999998,-1.757771,0.239492,-0.037247,-0.8356319999999999,-0.7932130000000001
1398,13.98,-0.12806800000000002,-2.558267,0.312733,-0.10116599999999999,-0.829239,-0.763397
1399,13.99,-0.10101399999999999,-3.1454880000000003,0.152017,-0.138443,-0.840958,-0.7335659999999999
1400,14.0,-0.11756300000000001,-3.4104160000000006,0.11893,-0.13311800000000001,-0.867584,-0.7090609999999999
1401,14.01,-0.170539,-3.491048,0.059362,-0.10435499999999999,-0.9006200000000001,-0.6930850000000001
1402,14.02,-0.10664000000000001,-3.3842809999999997,0.008288999999999998,-0.08519,-0.9315030000000001,-0.666458
1403,14.03,-0.11961400000000001,-3.161731,-0.051972000000000004,-0.06601,-0.954941,-0.650467
1404,14.04,-0.245658,-2.869627,-0.21474400000000002,-0.055359000000000005,-0.956009,-0.641953
1405,14.05,-0.245881,-2.6347560000000003,-0.47442799999999996,-0.060684,-0.946426,-0.6185149999999999
1406,14.06,-0.28207,-2.596546,-0.640035,-0.071335,-0.9336399999999999,-0.5993350000000001
1407,14.07,-0.38131,-2.55924,-0.841749,-0.090515,-0.916595,-0.569519
1408,14.08,-0.457265,-2.65544,-0.9406450000000001,-0.115005,-0.8942260000000001,-0.533295
1409,14.09,-0.7465970000000001,-2.879497,-1.0061579999999999,-0.139511,-0.8537450000000001,-0.484299
1410,14.1,-1.183137,-3.016066,-1.100134,-0.153366,-0.797287,-0.432098
1411,14.11,-1.605092,-3.095957,-1.163944,-0.17999300000000001,-0.736557,-0.367111
1412,14.12,-1.868697,-2.984289,-1.308334,-0.211945,-0.69928,-0.297867
1413,14.13,-1.8728330000000002,-2.462923,-1.450772,-0.235382,-0.673706,-0.22329699999999997
1414,14.14,-1.65546,-1.639027,-1.571812,-0.23219299999999998,-0.674774,-0.141281
1415,14.15,-1.021991,-0.8351430000000001,-1.636614,-0.20982399999999998,-0.7099300000000001,-0.048599
1416,14.16,-0.535858,-0.054292000000000014,-1.603781,-0.175735,-0.761063,0.043015
1417,14.17,-0.192687,0.738776,-1.301656,-0.126724,-0.771713,0.090958
1418,14.18,-0.290958,1.7342520000000001,-1.3384120000000002,-0.092636,-0.764267,0.066452
1419,14.19,-0.344244,2.313325,-1.482479,-0.089447,-0.7568050000000001,0.004669000000000003
1420,14.2,-0.098605,2.518447,-1.134976,-0.09477200000000001,-0.747223,-0.030487
1421,14.21,-0.025606999999999998,2.720827,-0.664837,-0.088379,-0.680099,-0.068832
1422,14.22,-0.521468,2.765577,-0.26515500000000003,-0.06282,-0.570389,-0.135956
1423,14.23,-1.436885,3.097801,-0.353243,0.018143,-0.468124,-0.232895
1424,14.24,-2.341241,3.662878,-1.015515,0.16302500000000006,-0.405273,-0.33728
1425,14.25,-2.028464,3.800703,-1.723962,0.324936,-0.44573999999999997,-0.384155
1426,14.26,-0.4775120000000001,3.764125,-1.749884,0.38353000000000004,-0.5725100000000001,-0.362854
1427,14.27,1.170626,3.692703,-0.443092,0.257828,-0.695023,-0.308517
1428,14.28,1.84582,4.309861,1.4511889999999998,-0.01061999999999999,-0.774918,-0.245667
1429,14.29,0.5962580000000001,4.817080000000001,4.067265,-0.24710100000000002,-0.728043,-0.27975500000000003
