,ts,ax,ay,az,wx,wy,wz
0,0.0,-0.8268157033300443,-0.32555591276198126,6.484645078817658,0.0254219372598784,-0.021152741237776274,-0.021152741237776274
1,0.01,-0.021920509093599216,-2.028470054789871,2.283350973783781,-0.01823787126230042,-0.01728031467476747,-0.01728031467476747
2,0.02,1.185804209313216,1.019582022958822,-0.9677056172909166,-0.03176245018830777,0.011533625245434937,0.011533625245434937
3,0.03,0.905662311924818,3.8236997257872716,-5.410703226289495,0.03447178098897038,0.019903014255031708,0.019903014255031708
4,0.04,-0.8527925168672917,2.0098710602204526,-5.604669438589075,0.08989321621741612,0.012661028748118822,0.012661028748118822
5,0.05,-1.1118048225063428,-2.4408036667785713,-4.59102313950931,0.04900836956692359,-0.006972308567517811,-0.006972308567517811
6,0.06,0.19807864960864047,-3.8084508314720704,-0.9158433466275304,-0.030126607349581332,-0.017803587019526664,-0.017803587019526664
7,0.07,1.596809916875101,-0.7257287633770608,0.007487643759835461,-0.08054015562154017,-0.008348404056760737,-0.008348404056760737
8,0.08,0.6060364215669005,2.877253799082638,0.20092873959878438,-0.045944221781355765,0.00868938263816885,0.00868938263816885
9,0.09,-0.9273625233179348,1.738733859609989,-0.924323496095481,0.038451520496044535,0.022935569800272088,0.022935569800272088
10,0.1,-1.4170701053322432,-1.5491755980638309,-0.9681920199633555,0.07686534469538209,0.017944376965002787,0.017944376965002787
11,0.11,-0.2143264280965938,-2.4869733483925525,0.2574937808884462,0.03069126271055597,-0.0031926641342133228,-0.0031926641342133228
12,0.12,0.9336662372257817,-0.27360394786363285,2.321716753634035,-0.04040052251210005,-0.00925586739113998,-0.00925586739113998
13,0.13,0.35975618991920355,1.4034733604216352,4.069374301874625,-0.06700987849169103,-0.0187327129383651,-0.0187327129383651
14,0.14,-0.7779208198881457,0.8158509417435515,4.771814281790212,-0.03864827445275032,-0.015424872900594069,-0.015424872900594069
15,0.15,-0.28816345871298116,-0.656176592178531,3.396948180996125,-0.008233197802391633,-0.0032502462595479648,-0.0032502462595479648
16,0.16,1.0106666490824785,-0.3359199663014576,1.8849582778754792,-0.0011007564299671997,0.003145628104377276,0.003145628104377276
17,0.17,0.6581053795640165,0.8204239666180597,1.0502529069098696,-0.01879425587207821,-0.005499079905036793,-0.005499079905036793
18,0.18,-0.9169758428811111,0.30851526855827843,1.7873882170491606,-0.032896173659806044,-0.015254567289713056,-0.015254567289713056
19,0.19,-1.218556778547634,-1.013499238292991,2.2619055523006724,-0.05416064327657018,-0.02340835926362221,-0.02340835926362221
20,0.2,0.5490547128511121,-1.2433409743070594,1.3137339853044714,-0.059910400884154925,-0.014248763271404044,-0.014248763271404044
21,0.21,1.1650161367780552,0.3276851099612258,0.2830189152985332,-0.04502961747122905,-0.006408078042273964,-0.006408078042273964
22,0.22,-0.47337021128399,1.796632347604919,-0.8843915682895391,-0.0007932354587531983,-0.0034107208134618048,-0.0034107208134618048
23,0.23,-1.3018000635543125,1.5732665406069415,-1.03185045258437,0.042869963158124455,-0.007504854892776409,-0.007504854892776409
24,0.24,-0.03460193177978113,-0.154082067750201,-1.4028242507136193,0.029541909217464232,-0.01193510993297587,-0.01193510993297587
25,0.25,0.920842766047249,-1.035968341286182,-1.2075472394635232,-0.03186974569755092,-0.0154155409601048,-0.0154155409601048
26,0.26,0.3334179410554703,-0.0502487102020831,-1.5695865872999606,-0.07610824965542552,-0.011478406714729552,-0.011478406714729552
27,0.27,-0.6117331436867568,1.4206062964520223,-1.7247669882348826,-0.04610145491627163,-0.005768585047430001,-0.005768585047430001
28,0.28,-0.5657775267510139,1.0623520889127327,-2.4718294455091536,0.018223998261793675,-0.0010343029048115954,-0.0010343029048115954
29,0.29,0.30919009175452045,-0.8252206054296646,-2.454108467983698,0.05737875883582154,-0.0037242034240405303,-0.0037242034240405303
30,0.3,0.8933645355377223,-1.4701793752431955,-2.238685395371633,0.020441052914466917,-0.011284713078463328,-0.011284713078463328
31,0.31,0.3977164412318136,0.10212736044276566,-1.3349917621672809,-0.02980692806547512,-0.010712794246110513,-0.010712794246110513
32,0.32,-0.32687380717561926,1.5490065919889409,-1.3160722781317236,-0.040787320193027804,-0.008140387074372866,-0.008140387074372866
33,0.33,-0.34303860051046864,0.4655744574933093,-1.2650906776097344,-0.009305812289589564,-0.0016015092682808644,-0.0016015092682808644
34,0.34,0.5286229775425475,-2.01632831973238,-2.1819465448420527,0.01162097553427776,0.005184780361043178,0.005184780361043178
35,0.35,0.5305162270467668,-2.3177572186168245,-1.7016742569790646,-0.014476577867759759,0.00540597734664348,0.00540597734664348
36,0.36,-0.2064904623354151,-0.3843403543694254,-1.155528917793771,-0.025160851281863395,-0.00030050007669115645,-0.00030050007669115645
37,0.37,-0.7042039155497013,1.6234532517944278,-0.24350810514436239,-0.0015876574193732509,0.004828506812683056,0.004828506812683056
38,0.38,0.06008092637468576,1.170521949377826,-0.12421381934522052,0.04074611055657667,0.005592351950400462,0.005592351950400462
39,0.39,1.0347363020255693,-1.0535110724102186,-0.08888267330757105,0.03255807631390907,0.00652768863191746,0.00652768863191746
40,0.4,0.40069145803065465,-1.7897651130167713,0.06636644787987023,-0.02317621970036489,0.012252780177585649,0.012252780177585649
41,0.41,-0.44124031175373357,-0.2326536635546902,0.14209831140212148,-0.058415777819871416,0.016596638161531733,0.016596638161531733
42,0.42,-0.6788780407469515,1.1305516384119447,0.6897844236444248,-0.029209600284674283,0.019278255410307168,0.019278255410307168
43,0.43,-0.20303103381236998,0.23960975953410668,0.8800904255703267,0.01925663011643151,0.017202040355737306,0.017202040355737306
44,0.44,0.3313822547251261,-1.029251575127989,1.4827566796344422,0.03368928595361559,0.015249143489649066,0.015249143489649066
45,0.45,0.4618148494160901,-0.7297542034728706,1.6729319692315952,0.0002130471651399235,0.015893816216224356,0.015893816216224356
46,0.46,-0.1855853892986853,0.6155911359624653,1.9120095861273616,-0.03341104279287892,0.015500665590361982,0.015500665590361982
47,0.47,-0.5400812354946546,0.8375668968395386,1.6953187923681194,-0.040222156322116315,0.021682188861119518,0.021682188861119518
48,0.48,-0.05134221304251173,-0.13203417788878374,1.371390362986758,-0.01925760140276289,0.01863210225662363,0.01863210225662363
49,0.49,0.20985602832596673,-0.34186519178042457,1.5260238937146011,-0.003665532338734387,0.018064856354635315,0.018064856354635315
50,0.5,-0.3033705485315467,0.6680566433844476,1.8651205549410568,0.0064264290171457536,0.012321851619799555,0.012321851619799555
51,0.51,-0.37714789061028664,1.4363217955768586,2.123836265957242,0.006790765733876617,0.007208517960580706,0.007208517960580706
52,0.52,0.4495468676443918,0.846633483308709,1.946785405622975,0.003155935277985848,0.012962548837581538,0.012962548837581538
53,0.53,0.5765941522304453,-0.3874239259271961,1.2289180380307267,-0.029154055041379405,0.010758920640517384,0.010758920640517384
54,0.54,-0.2748497126914622,-0.7514362562147221,0.8849506471273794,-0.061540676683609526,0.016155042464063494,0.016155042464063494
55,0.55,-0.9059783822273182,0.16543503168552487,0.6012054519466992,-0.050752667295057334,0.009143235107032787,0.009143235107032787
56,0.56,-0.37745354422204735,1.1292322236938976,0.6968664156148618,-0.01331764274396066,0.006987109625425905,0.006987109625425905
57,0.57,0.2666513217036157,0.7680662151842261,0.5976693374204833,0.03350727877212749,0.0081847076947533,0.0081847076947533
58,0.58,0.03847336542093921,0.08930212408719834,0.3903439650821456,0.02546070362602756,0.005663810298870476,0.005663810298870476
59,0.59,-0.16449085871864275,-0.07206886955620485,-0.024550719530939957,-0.00926590771120233,0.004086643449082869,0.004086643449082869
60,0.6,-0.19238298679670132,0.07174037260361744,-0.40215929575529263,-0.050025025525610944,0.004579077208185442,0.004579077208185442
61,0.61,-0.08066422486067568,-0.3177007477495449,-0.6917480734204702,-0.05632054167545486,0.0002060359663280916,0.0002060359663280916
62,0.62,-0.06082291678473921,-0.6513965587414197,-0.6367425187188263,-0.029443156504570887,-0.0029780362525940072,-0.0029780362525940072
63,0.63,0.2302937286596637,-0.5010022423937093,-0.44709838124009693,0.000956100122579212,-0.008881677215597555,-0.008881677215597555
64,0.64,0.3296541131354753,-0.2938585890400752,-0.4951913750845377,0.018163981305049925,-0.008343910934703276,-0.008343910934703276
65,0.65,0.07168926615021365,0.1666326569808294,-0.4485389639480162,0.015831031240763748,-0.008589267566491175,-0.008589267566491175
66,0.66,-0.06328420858112646,0.48572742934447366,-0.8731683674488417,-0.0002364172469354296,-0.000805948628606187,-0.000805948628606187
67,0.67,0.053947866390781585,0.43876714131006916,-1.7493597898237199,-0.011720896570136028,-0.002975195662961445,-0.002975195662961445
68,0.68,-0.15833965519515078,-0.3859179160779964,-1.9244197807411823,-0.01529752784061985,-0.0043111109909902455,-0.0043111109909902455
69,0.69,-0.3137942553549993,-1.162049747600614,-1.7904976497036702,-0.014820610172950725,-0.012533489080123571,-0.012533489080123571
70,0.7,-0.014100657137009448,-1.0881055409366653,-1.0773531442259223,-0.019307336467194916,-0.019050329673837716,-0.019050329673837716
71,0.71,0.47213057354418164,0.06454554882090435,-0.6904525386846794,-0.00430249227728096,-0.017612039713739282,-0.017612039713739282
72,0.72,0.5402935860582615,0.784716544823153,-0.9966151415242384,0.016561307780359264,-0.01623932685399257,-0.01623932685399257
73,0.73,0.04883672797863556,0.20987934446938866,-0.9759395355614537,0.02121236388144511,-0.01222367681185292,-0.01222367681185292
74,0.74,-0.11456507306654456,-1.061991592556196,-1.11726735537105,-0.0006403848318456244,-0.019547784994741742,-0.019547784994741742
75,0.75,0.08086504956985524,-1.0749390648534238,-0.719574670552039,-0.03645703003483787,-0.02253477224214194,-0.02253477224214194
76,0.76,0.43162849908433565,0.07295779328311008,-0.6122028886075335,-0.034363125460398325,-0.018768103386778395,-0.018768103386778395
77,0.77,0.1892431576586163,1.0016252295165633,-0.5583209279216673,0.0013890678640251927,-0.016381188149782004,-0.016381188149782004
78,0.78,-0.3603328630892679,0.7188835384047914,-0.6901264418769075,0.04790464064950358,-0.014118255833446062,-0.014118255833446062
79,0.79,-0.3343469934555111,-0.20384026817014284,-0.6987026240524217,0.041641924387717126,-0.013398671043118177,-0.013398671043118177
80,0.8,0.35392510888761375,-0.4860938468548731,-0.6062016640222312,0.003492930378970457,-0.02225700598811181,-0.02225700598811181
81,0.81,0.5184293560724709,-0.18782675022302955,-0.15374495815931905,-0.03998952986986229,-0.024222062451803104,-0.024222062451803104
82,0.82,-0.016627085299361244,0.0690201885135686,0.39537386631717186,-0.04233092944386229,-0.02753785670873762,-0.02753785670873762
83,0.83,-0.5090224424187381,-0.1973862403282888,0.7628982879592393,-0.010021079381359134,-0.02577638939533033,-0.02577638939533033
84,0.84,0.35625665657818817,-0.3081004064932609,0.22955472279558187,0.02845211610906238,-0.02440890669021801,-0.02440890669021801
85,0.85,0.5301572464807809,0.15024127424803915,0.33324483040954544,0.04366225275691561,-0.022383969150416044,-0.022383969150416044
86,0.86,-0.1613279122798882,0.5087804921580853,0.27989409519396213,0.021245777509884125,-0.023892328421477458,-0.023892328421477458
87,0.87,-0.4736356663473399,0.8831825213357676,0.8651651815415946,-0.003410452922437305,-0.02576122002162935,-0.02576122002162935
88,0.88,0.23322686413111754,0.7923785819266355,0.7199822424477381,-0.010784364044412471,-0.026438973901811318,-0.026438973901811318
89,0.89,0.4489843728036892,0.1179693578244167,0.4264170261141538,-0.003410519006917749,-0.02421040262638635,-0.02421040262638635
90,0.9,-0.4624644722956657,-0.8033479567215208,0.8349445385660089,0.0017306157753468464,-0.0216289982826806,-0.0216289982826806
91,0.91,-0.45700375680767064,-0.6535214845983257,0.5406525064124696,-0.002278963991230172,-0.031905740074749424,-0.031905740074749424
92,0.92,0.39789277544811247,0.4426371062661424,0.7311877493740474,0.0008873333055903098,-0.02527000941611482,-0.02527000941611482
93,0.93,0.12433751507917101,1.0935620694619157,0.6018591729735511,0.01254042804301438,-0.027430398164188,-0.027430398164188
94,0.94,-0.8005764889983666,0.3622130744433159,0.9898839732084896,0.018719988215202942,-0.023612919665700456,-0.023612919665700456
95,0.95,-0.5129773000785737,-0.5662246475397222,1.071912112688599,0.0005636074842600251,-0.02210385429618197,-0.02210385429618197
96,0.96,0.41097436296694745,0.09878731349999023,0.9165816990732434,-0.029045241621122393,-0.02506407534633735,-0.02506407534633735
97,0.97,0.24994403199622112,0.8814921589099437,0.5702885998465693,-0.01794228255148049,-0.023264347557688476,-0.023264347557688476
98,0.98,-0.4643128955640298,0.2996948267058883,0.4674980199242899,0.005626538021298234,-0.016333520800813732,-0.016333520800813732
99,0.99,-0.5574151687170913,-0.9039793998367617,0.2628055912739268,0.0076583671552375955,-0.02114608424178288,-0.02114608424178288
100,1.0,-0.0278028964736253,-1.020485119127334,0.16637916766506083,-0.02330193942737556,-0.01924765509771116,-0.01924765509771116
101,1.01,0.30417710403391696,0.16572022726197633,0.11835482565394723,-0.04741231992353462,-0.02119688896595486,-0.02119688896595486
102,1.02,-0.04840192726627961,0.9066917724347188,0.6176435496426258,-0.029045081690157574,-0.02333663414224301,-0.02333663414224301
103,1.03,-0.22146899292113242,-0.045779858465433004,0.410528143968653,-0.0026798781064112788,-0.02307302719505337,-0.02307302719505337
104,1.04,0.01748466106978492,-1.3657844347222645,0.5172257524903614,-0.005211948244927614,-0.016816061279342574,-0.016816061279342574
105,1.05,0.1899931038679918,-0.7752443316636071,0.0010788990714774571,-0.03641374792140042,-0.018283779861381702,-0.018283779861381702
106,1.06,0.13319085719630727,0.846042842798691,-0.03506840772197356,-0.0462028905895862,-0.01607861856314056,-0.01607861856314056
107,1.07,-0.21209637913602716,1.3678571516583449,0.07462973056929091,-0.015227451181999918,-0.0169323946777725,-0.0169323946777725
108,1.08,-0.18389624567365914,0.0846341604095337,-0.10734000901873064,0.014091247456468432,-0.014196825274784053,-0.014196825274784053
109,1.09,0.12010115314742568,-1.0577060810442287,-0.1493509927717112,0.004167160717115183,-0.005723739304272769,-0.005723739304272769
110,1.1,0.10487484499857201,-0.5879672670531477,-0.2843861864890038,-0.03319776738947645,-0.005541824342618284,-0.005541824342618284
111,1.11,-0.16211771001774597,0.5169405975037346,-0.3716795725721383,-0.04532108037884152,-0.008056167764138844,-0.008056167764138844
112,1.12,-0.1773802455121045,0.8187486129790961,-0.5619788863458233,-0.011010036248394424,-0.004454095144835965,-0.004454095144835965
113,1.13,0.3555157452334333,-0.015931194134688936,-0.6454925486008414,0.023518697651247027,-0.001915136066078121,-0.001915136066078121
114,1.14,0.27477459074731087,-0.6552960698784338,-0.4037951811074686,0.02584801956776342,-0.003301037776300681,-0.003301037776300681
115,1.15,-0.17378920724105576,-0.19157628127673648,-0.028920212070901508,-0.0009219304538857152,-0.003241582619435532,-0.003241582619435532
116,1.16,-0.11844308947902499,0.7030286310362568,-0.15740680090069115,-0.017937085405782403,0.006928192661197145,0.006928192661197145
117,1.17,0.3519988250208622,0.47164687916446785,-0.9193987775545761,-0.0099111401869844,0.01102212795752677,0.01102212795752677
118,1.18,-0.11230427340412631,-0.4007899963788711,-1.0947251169688739,0.008223019309347124,0.012127117626926396,0.012127117626926396
119,1.19,-0.3698495676504201,-0.7984922178173801,-0.7874371802993692,0.007091620636334509,0.00811681730235287,0.00811681730235287
120,1.2,0.5350101186680312,-0.4332332944858556,-0.39726288012991573,-0.0031634187073156807,0.0021248981897362736,0.0021248981897362736
121,1.21,0.854249706119548,-0.3604463761287521,0.10942100853296693,-0.007774279874366887,0.007139908434318332,0.007139908434318332
122,1.22,0.12541701610661857,-0.7487376955260094,-0.19283290633298544,-0.014825808976975918,0.01339763604221703,0.01339763604221703
123,1.23,-0.7036283964594344,-0.4150574941349876,-0.03889968686138895,-0.009600845055560471,0.018057678321132743,0.018057678321132743
124,1.24,-0.16769524860137544,0.26680664200461657,-0.511937008176093,0.010874807154401093,0.014509414084907041,0.014509414084907041
125,1.25,0.6053372248547615,0.8865500387231988,-0.3139673312147828,0.030512154371833574,0.011988713372111591,0.011988713372111591
126,1.26,0.6135139782441232,0.2700055096945134,-0.14580374380246697,0.03683634736523564,0.011602599136923237,0.011602599136923237
127,1.27,-0.07755293200663782,-0.8205661837696477,0.2351013218357273,0.012502049757674723,0.01011188826142798,0.01011188826142798
128,1.28,-0.5427010752481282,-0.7413544922692956,0.043088437085936016,-0.025317897716406204,0.017098664714275538,0.017098664714275538
129,1.29,-0.07349373313772224,0.5415045235912737,-0.41191359594369414,-0.025428054483404947,0.017934916463028232,0.017934916463028232
130,1.3,0.31396800240835493,1.2957285760578998,-0.7882937117255071,0.015843912224712285,0.015217249295632075,0.015217249295632075
131,1.31,0.17294525438353964,0.3931969930392564,-0.5310542290233263,0.04448864695592315,0.014357473251749872,0.014357473251749872
132,1.32,-0.28558783820248945,-1.352291799452495,-0.03703710833681012,0.01938408905425377,0.008555844903257954,0.008555844903257954
133,1.33,-0.3335106002568078,-1.4747027634723553,0.5076567786148436,-0.04677332523240448,0.008336232017674257,0.008336232017674257
134,1.34,0.15479036836640767,0.34617459974998066,0.24522700220207197,-0.07588859347910773,0.007519166487605276,0.007519166487605276
135,1.35,0.3308051242564436,1.6778934568744417,0.2774437274367443,-0.04485434251031024,0.010982442978319584,0.010982442978319584
136,1.36,-0.10814986937808062,0.7026649207869164,0.0021363646516654455,0.01330099860925061,0.007392871793013966,0.007392871793013966
137,1.37,-0.5140166197492706,-0.7015533108499087,0.2952495718202787,0.03018579140352152,0.005434689221996567,0.005434689221996567
138,1.38,-0.3077556039850404,-0.5167729026807147,0.44789114353866155,-0.007815173813220992,0.004521955373631033,0.004521955373631033
139,1.39,0.3264065629951967,1.1723577127553328,0.3167018286343044,-0.053169649682494165,-0.0009900715526635886,-0.0009900715526635886
140,1.4,0.14161185149893898,1.9563734446021355,0.581489727780086,-0.043027234607353575,0.003762828337081537,0.003762828337081537
141,1.41,-0.42529330552405015,0.8955818579148457,0.399301067420344,-0.006429374043080492,0.0018332176273480434,0.0018332176273480434
142,1.42,0.02501961179514242,-0.9930105892595373,0.014846418223676106,0.009367012486536505,0.0065423609459982655,0.0065423609459982655
143,1.43,0.3217030649526218,-1.2514546574882004,-0.21084752045269167,-0.020438430229313496,0.004031243757982675,0.004031243757982675
144,1.44,-0.41370993634620873,0.2246048536981562,-0.0666387427427162,-0.047328449552890686,-0.001997731170294289,-0.001997731170294289
145,1.45,-0.950562629948574,1.7082473696111675,0.7316473417157763,-0.03384409271788225,-0.007315258619088418,-0.007315258619088418
146,1.46,0.23802941785145926,1.1018405957987845,0.6935983820464557,0.013060205238123387,-0.009049417221553351,-0.009049417221553351
147,1.47,1.0618567901873088,-0.766021628383017,0.5077051493331903,0.026242717529412853,-0.002638991362328054,-0.002638991362328054
148,1.48,0.0474341660997607,-1.4763491558613642,0.08144695118430079,-0.012142782668228696,0.0011691021935940126,0.0011691021935940126
149,1.49,-1.0576911871359593,-0.4928787054832453,-0.24297312261804904,-0.04669395232551985,0.0034604053045997948,0.0034604053045997948
150,1.5,-0.40405493603199444,0.7871638897977692,-0.19187746962765834,-0.02764887571806616,-0.00036886135195138015,-0.00036886135195138015
151,1.51,0.5945001739790161,0.6928359004095994,-0.5401571108486442,0.024225764722557157,-0.009096576060160365,-0.009096576060160365
152,1.52,0.15062431759315514,-0.3358357566413157,0.26817473545065207,0.045850474996833326,-0.006411515849197663,-0.006411515849197663
153,1.53,-0.4295354734177942,-1.0615102060290376,0.6557759127175102,0.02052694705626964,-0.013616228753562705,-0.013616228753562705
154,1.54,0.06291898167435679,-0.35791981903722303,0.9481314969076368,-0.019116259913933342,-0.01722240500038194,-0.01722240500038194
155,1.55,1.0432327034694255,0.16169168580456628,0.23405423395203884,-0.03602876638962571,-0.014628265098916722,-0.014628265098916722
156,1.56,0.5329029631688149,-0.4431746711532953,-0.04862972795209891,-0.018612279772806332,-0.010894156708780477,-0.010894156708780477
157,1.57,-0.5910433316147943,-1.0604371604153633,-0.2695772975799584,0.002307434593884737,-0.01137619458091831,-0.01137619458091831
158,1.58,-0.41039871938896383,-0.39346656495387483,-0.18222436523669744,0.012072430259099706,-0.016200423851311957,-0.016200423851311957
159,1.59,0.6059090925486,0.32617342516440284,-0.11399337574553375,0.011575405287429648,-0.018431263057663884,-0.018431263057663884
160,1.6,0.4549104371381257,0.11612275072897021,-0.22170445557817417,0.005611593691331066,-0.013063716929402672,-0.013063716929402672
161,1.61,-0.7215338812695652,-0.8297885684876044,-0.038142717248906124,-0.01761393917062545,-0.00834309199735097,-0.00834309199735097
162,1.62,-0.5588548117113061,-1.257929701276188,-0.2794528644437647,-0.03950217704965636,-0.011111896395121857,-0.011111896395121857
163,1.63,0.5728667510675346,-0.47647958698657933,-0.4350550056871409,-0.03719792007132671,-0.016208074195613743,-0.016208074195613743
164,1.64,0.4348700030902719,0.39523477350818276,-0.13455237224942082,-0.004318728667216845,-0.014059122403143323,-0.014059122403143323
165,1.65,-0.4307954502841838,0.39671641439582767,0.01573925067215895,0.032208175814108016,-0.009884130976876418,-0.009884130976876418
166,1.66,-0.4489888732153008,-0.3204986323398838,0.35448188005890496,0.0283945002131041,-0.010737988225737441,-0.010737988225737441
167,1.67,0.15643120375549643,-0.6377149159660791,0.05273993483102893,-0.011306322934800144,-0.011554420912164251,-0.011554420912164251
168,1.68,0.41414892235350337,0.45404415253132113,-0.19529793810889284,-0.040919044067496316,-0.010293315216397116,-0.010293315216397116
169,1.69,0.10351185308120193,1.6515261674330475,-0.18789695999881761,-0.01732656072936004,-0.005430166819354201,-0.005430166819354201
170,1.7,-0.13671649429683247,1.2451097885000069,-0.3255731325302037,0.028086769147440342,-0.005641596540469972,-0.005641596540469972
171,1.71,-0.2766452642814178,-0.2887801090647192,0.008462425083244962,0.05018534282669897,-0.0044759581302552896,-0.0044759581302552896
172,1.72,-0.06458856770328046,-0.8888143539454443,-0.3158206675853934,0.017854023758651125,-0.0009422428837608156,-0.0009422428837608156
173,1.73,0.13211356010194447,0.25244018827383613,-0.11330788063738158,-0.02544442519392666,-0.0028934715386827216,-0.0028934715386827216
174,1.74,0.04766270471666788,1.54061567595509,-0.24252312963098943,-0.02903252353472462,-0.00904148002174281,-0.00904148002174281
175,1.75,-0.067362255665648,1.392674627795742,0.03737353870166241,0.01756213122596776,-0.00681200135678735,-0.00681200135678735
176,1.76,0.10979302152571735,-0.03912783282852944,0.14786094518023235,0.05818030530448955,-0.002694010376425953,-0.002694010376425953
177,1.77,0.4638714066134432,-1.0382644912541532,-0.19048615549363151,0.04009906452036496,-0.0022155222926898946,-0.0022155222926898946
178,1.78,0.12290415968709434,-0.49723201919088633,-0.08860633139867713,-0.011144600190203248,-0.0011724219150587455,-0.0011724219150587455
179,1.79,-0.519886902975483,0.9168399076663518,0.024358576754908795,-0.02734518129358503,-0.0014735421696541722,-0.0014735421696541722
180,1.8,-0.09965922790876519,1.4184606730310068,-0.17546294559993644,0.008687381114005674,-0.0010720187699585619,-0.0010720187699585619
181,1.81,0.5125790988357783,0.3027509542580294,-0.212765705970566,0.05256199153775421,0.006661217909825077,0.006661217909825077
182,1.82,-0.1468653474555553,-1.3868570652417456,-0.3169947745687127,0.059893954161060026,0.009499707264595056,0.009499707264595056
183,1.83,-0.708686020305451,-1.1928654733266781,0.16969987312745005,0.016527121705554926,0.009208710983236845,0.009208710983236845
184,1.84,0.02363191230593375,0.5859241495163178,-0.17019443638458198,-0.008402975351962834,0.009791086938547277,0.009791086938547277
185,1.85,0.460532696323908,1.3424034357470211,-0.27179773305803834,0.018787395998110537,0.012712893050197377,0.012712893050197377
186,1.86,-0.23454950588859597,0.12573633733328166,-0.2977276132624882,0.05550687315243824,0.01716736674366911,0.01716736674366911
187,1.87,-0.6613901003903072,-1.4894302694053763,-0.21920548636579495,0.05497307058217168,0.011075073591941308,0.011075073591941308
188,1.88,0.36794680571028326,-1.5554172735341938,-0.15970145885430898,0.01431032932057899,0.010386789316298205,0.010386789316298205
189,1.89,0.822495338539516,-0.4245536800479627,0.04416106239427034,-0.02003951733377217,0.01087461655500479,0.01087461655500479
190,1.9,-0.3918940687413467,0.43917404316345904,0.6251930777765645,-0.00724354966838547,0.017132803816141746,0.017132803816141746
191,1.91,-1.0316022675852123,0.5373523567567331,0.5639021405633229,0.04336353085153675,0.01745907180499435,0.01745907180499435
192,1.92,0.019499954749464088,0.103539483680193,-0.11796758292571652,0.08079774056499947,0.0170558426378596,0.0170558426378596
193,1.93,0.8937221033349106,-0.29106510594389134,-0.29963403857833315,0.057922624546414926,0.013005537812194445,0.013005537812194445
194,1.94,0.3514325889188408,-0.2171488524744325,0.11204027420526513,0.00789802385105478,0.0021052506079418994,0.0021052506079418994
195,1.95,-0.26575891291018794,0.07839082736703845,0.7597884955021139,-0.027421500978278453,-0.0012811118363239586,-0.0012811118363239586
196,1.96,0.12024942151586976,-0.2705611356817312,0.7076655632120487,-0.04077315342524982,0.006082486729628774,0.006082486729628774
197,1.97,0.19748398683037535,-0.8642491428567799,0.47793123263020004,-0.020062686680689827,0.003499464687863119,0.003499464687863119
198,1.98,-0.037164811301724526,-1.082212915773346,-0.3019838837813729,0.00044796332016448087,0.010103741525198624,0.010103741525198624
199,1.99,0.13845789316626697,-0.16391028254752638,-0.2520561602364982,0.010171645675815045,0.002207410914384332,0.002207410914384332
200,2.0,-0.14019367881646674,1.240531800520197,0.025482176173869275,0.01990231221801521,-0.0052811496065672675,-0.0052811496065672675
201,2.01,-0.5236790643081437,1.8113570263529661,0.4563687900668715,0.024156663825953068,-0.003284808748841092,-0.003284808748841092
202,2.02,-0.2679416086935147,0.8215826806540446,0.6088188879368384,0.021837056140544084,-0.006295227000284861,-0.006295227000284861
203,2.03,0.5153894636926057,-0.5446679190302273,-0.3349374165280833,-0.009325835297425686,-0.003920964198878664,-0.003920964198878664
204,2.04,-0.033519406295077186,-0.2852818650284274,-0.29349814903740684,-0.041553493495466685,-0.005987144818895563,-0.005987144818895563
205,2.05,-0.846546774916227,0.5745750476066696,-0.0775783933314852,-0.039006239850029455,-0.01536760066690845,-0.01536760066690845
206,2.06,0.11502356252385387,0.5435820277307897,-0.08904208003922198,-0.003059864651675737,-0.019728033083597604,-0.019728033083597604
207,2.07,1.3907720594584876,-0.7701243683403601,0.17266717787476646,0.010655125005291205,-0.021279450126547732,-0.021279450126547732
208,2.08,0.16946103309896524,-1.6370870799317507,0.06164857663006802,-0.02009499544542231,-0.021636788859256142,-0.021636788859256142
209,2.09,-1.3616682637865272,-0.8705767573977113,0.32994518139124507,-0.06670727871112643,-0.018556473095702748,-0.018556473095702748
210,2.1,-0.0728893508722678,1.0215352756880334,-0.33778578532345704,-0.04956934528897061,-0.02818352892523726,-0.02818352892523726
211,2.11,0.9085597498348087,1.3748710760537382,-0.45081130866729274,0.0058937856258127475,-0.03101210498664926,-0.03101210498664926
212,2.12,0.0007513351984166916,0.31090308231115316,0.14306437748944606,0.04516952971516172,-0.02993136528432152,-0.02993136528432152
213,2.13,-0.9420193492425293,-0.6211735816487474,0.7835335183910581,0.030629103042925487,-0.04037193701064536,-0.04037193701064536
214,2.14,0.40184708322405366,-0.2398018531861109,0.3748806784238028,-0.014184336738413397,-0.037218024143354164,-0.037218024143354164
215,2.15,0.9430171082546851,0.8430845169665572,0.0051025961239588025,-0.0482398830018664,-0.029546929548046025,-0.029546929548046025
216,2.16,-0.4876305917695164,0.6959544001415398,-0.5405212759125101,-0.023298938993021132,-0.025569958509374737,-0.025569958509374737
217,2.17,-0.9862932441970078,-0.36839193698139594,-0.5835342976615592,0.017018717201069733,-0.02556405293549098,-0.02556405293549098
218,2.18,0.39877116264419243,-1.0692374731134795,-0.7359286210592355,0.0412144841047183,-0.029585922066686875,-0.029585922066686875
219,2.19,0.8508326509992253,-0.5764625436471655,-0.39506090186273385,0.02471824624475924,-0.030903309467320138,-0.030903309467320138
220,2.2,-0.6476606403884412,0.32130226744904117,0.4027566243855965,0.0043840752435234534,-0.031107252425267545,-0.031107252425267545
221,2.21,-0.9584837542056693,0.6045562072426454,0.8148386789403917,-0.005701436276657338,-0.026107477432611777,-0.026107477432611777
222,2.22,0.6776604107360789,0.4762983424454735,0.22276507532415285,0.00556554924644754,-0.023164526846065105,-0.023164526846065105
223,2.23,1.240677716847422,0.16916082138221278,-0.6364026413085301,0.022532856465470163,-0.01818727282639612,-0.01818727282639612
224,2.24,-0.017175263815287473,-0.5598032034259168,-0.8484958678568708,0.021048608514606187,-0.015066137952742241,-0.015066137952742241
225,2.25,-1.1551214425517606,-1.350779401266091,-0.46514421425693614,0.007475575683667539,-0.014817446358375078,-0.014817446358375078
226,2.26,-0.30877303206437035,-1.3092475650874187,-0.32720236278629955,-0.019354517893385992,-0.017043562721400132,-0.017043562721400132
227,2.27,0.44595776978093415,-0.49092405195931166,0.17628301925067325,-0.015385337501499688,-0.015411906084181116,-0.015411906084181116
228,2.28,0.7803874976444614,0.5205551990290989,-0.11134719649587554,0.017301622230169796,-0.01325301916435356,-0.01325301916435356
229,2.29,0.12558584519985982,0.1672554254230757,0.5137240172171016,0.048831124570108575,-0.01550237289585551,-0.01550237289585551
230,2.3,-0.24180513974394904,-0.4935605392514262,0.4286078963689828,0.032912325605155585,-0.021234427079666853,-0.021234427079666853
231,2.31,0.1709885894633117,0.23741274870491597,0.6037469947524576,-0.007739021227166909,-0.017003423267318157,-0.017003423267318157
232,2.32,0.5503722680224221,1.4863179278038328,0.20740200964116265,-0.022752083185241443,-0.009290694954925576,-0.009290694954925576
233,2.33,0.17946225694187476,0.9606915457118468,-0.15174208766428265,-0.007300079899903952,-0.01236842268659243,-0.01236842268659243
234,2.34,-0.652904630237676,-0.8321006275214516,0.23017772770018027,-0.002948695555857928,-0.012804167777536143,-0.012804167777536143
235,2.35,-0.3198793212623904,-1.1537243636193883,0.008313627243516808,-0.009946327977611413,-0.009539288248442144,-0.009539288248442144
236,2.36,0.8048975114071959,0.45716914261751007,-0.19948282483688723,-0.019154576943371672,-0.0067543362641112326,-0.0067543362641112326
237,2.37,0.5684515622709153,1.427266650270301,-0.5871794989251046,0.0011228927989036588,-0.0005331557800380233,-0.0005331557800380233
238,2.38,-1.1529382722012587,0.19770981747148023,-0.23244744900588307,0.010813106914462741,-0.0015287248327884098,-0.0015287248327884098
239,2.39,-1.5619843516931164,-0.859144577316413,0.31530699100786924,-0.010554146080405913,-0.006519796062589642,-0.006519796062589642
240,2.4,0.40496907852531344,0.1900787291730381,-0.16949468972127016,-0.03855649261465351,-0.002827396317871661,-0.002827396317871661
241,2.41,1.0790857598411485,1.8118965180240498,-0.003080758740532402,-0.02598466568561648,-0.004714747317729646,-0.004714747317729646
242,2.42,-0.44199511654782897,1.324194826283475,0.14477454000336049,0.007299850592513125,-0.005415008546753497,-0.005415008546753497
243,2.43,-1.1289521389862671,-0.5555891273855799,0.46014030420857294,0.017046328084974777,-0.00658157432007969,-0.00658157432007969
244,2.44,0.5813533779996383,-0.9858195652002053,0.15292758456423292,-0.0144730520253421,-0.0069018136183824534,-0.0069018136183824534
245,2.45,0.8777234758518523,0.2335027890933154,-0.05830336249410761,-0.045232330134036665,-0.005466570447784282,-0.005466570447784282
246,2.46,-0.8350566686102416,0.8792487245250136,0.053769091736459565,-0.031306186934032636,-0.0006060284648684829,-0.0006060284648684829
247,2.47,-1.0398018885966365,0.1799991243201109,0.40566551634172476,-0.0022667877995302364,-0.0064853316362241,-0.0064853316362241
248,2.48,0.5963746962845444,0.016873995400929653,-0.31192632153755157,0.02263850859797253,-0.011671135005462015,-0.011671135005462015
249,2.49,0.8414519912000659,0.12398282014480769,-0.4903628586396272,0.01723839980032285,-0.008403460424953844,-0.008403460424953844
250,2.5,-0.6022728579130788,-0.442538182517934,0.0669115036483913,-0.006599655300002602,-0.0049207514456637465,-0.0049207514456637465
251,2.51,-0.8935491394064138,-1.216229429879892,0.34493892455374087,-0.043093017451925036,-0.013387762257823038,-0.013387762257823038
252,2.52,0.7699248420623033,-0.4725562498219507,0.06291739358921597,-0.054898806507009325,-0.01022638188136805,-0.01022638188136805
253,2.53,0.8100244464448266,0.796741821204493,-0.21523073782925098,-0.00964496877595511,-0.002412786529616768,-0.002412786529616768
254,2.54,-0.49681539136447483,0.23622331434784938,-0.5344421970532579,0.049991086846991314,0.0016102285459600985,0.0016102285459600985
255,2.55,-0.957212184818102,-1.6064168961653817,0.01714638860165306,0.05166523437546042,-0.003303414275274882,-0.003303414275274882
256,2.56,0.34984800747576067,-1.874083133051956,-0.25348537985772523,-0.008620555784865834,-0.006106327199705627,-0.006106327199705627
257,2.57,0.6069756274423685,0.4510163554054989,0.20971344719702212,-0.055141234759433284,-0.00027830805368370386,-0.00027830805368370386
258,2.58,-0.33751599872170507,2.0846952813326163,-0.1435720628792006,-0.02662667832756872,0.0033439090105398194,0.0033439090105398194
259,2.59,-0.5098807229036516,0.6227644116398003,-0.20074932274967414,0.03503246107908187,0.002920584246312228,0.002920584246312228
260,2.6,0.465215002009176,-2.2316789580380068,-0.27986050748755825,0.0434634596969764,-0.0014238192780568766,-0.0014238192780568766
261,2.61,1.0263215958948566,-2.5414766875802135,-0.0916338922320229,-0.023359472253298624,0.00029133992470278315,0.00029133992470278315
262,2.62,0.22849075907074315,0.08386453844720909,0.3425010761821081,-0.07441561387129322,0.00889711796779227,0.00889711796779227
263,2.63,-0.4874168619141786,1.585623023439895,0.29694751718869544,-0.04137521898771947,0.011779850570225694,0.011779850570225694
264,2.64,-0.17425161719094148,-0.08632648277125846,-0.08484586359206334,0.01738025089095366,0.015139672111499887,0.015139672111499887
265,2.65,0.49479965875196025,-1.9569668212079767,-0.3450422290656351,0.030749525024930526,0.01818634536702784,0.01818634536702784
266,2.66,0.3279229367745822,-0.5674516896138904,-0.33210739603609457,0.0006859855785614176,0.020424266025535792,0.020424266025535792
267,2.67,-0.15964718217995494,2.15065051219627,0.2602389445543127,-0.010709276332248684,0.014787243431959975,0.014787243431959975
268,2.68,-0.1275180534065456,2.454676468932631,0.4680937850497776,0.017195496713622402,0.01418181552562956,0.01418181552562956
269,2.69,-0.137902295309179,0.11086388806497327,0.9421104843952898,0.026361657513682045,0.01832978282857724,0.01832978282857724
270,2.7,0.3952124495710841,-1.7737631977459423,0.3337919565808519,-0.009706491861107423,0.01992724302274099,0.01992724302274099
271,2.71,0.838367654794183,-0.7313344381626455,0.015992096658908217,-0.048817981444257065,0.023207777292578825,0.023207777292578825
272,2.72,0.392213798471955,1.2706421703757425,-0.20237687430050028,-0.03418487214354474,0.024771661515375226,0.024771661515375226
273,2.73,-0.40855948857376234,1.12060315940992,0.1742230369161925,0.016011145218109327,0.02299235372025434,0.02299235372025434
274,2.74,-0.22595016099088855,-0.5898775012036072,0.20680410841676045,0.038246873671422967,0.026179189529226727,0.026179189529226727
275,2.75,0.33551340692005555,-0.8652731363922711,-0.1002693065405581,0.014202568881661016,0.030285599639047856,0.030285599639047856
276,2.76,-0.2388701128569717,0.9253714350436268,0.1286678187124306,-0.019205204208551457,0.030818279929879695,0.030818279929879695
277,2.77,-0.7469604016209392,1.7533795842919468,0.1921633933185951,-0.023263824120715617,0.026366661262112054,0.026366661262112054
278,2.78,0.06464102133777636,0.5059879318800279,0.19707939121463436,-0.0023149898616209273,0.02895543722883412,0.02895543722883412
279,2.79,0.5139274191457646,-1.116091165343561,0.08189048907046767,0.0020310450951481545,0.027745053432011054,0.027745053432011054
280,2.8,-0.3594833640720905,-0.8713857355043554,-0.2943112894323222,-0.014906808622191313,0.025946983391076768,0.025946983391076768
281,2.81,-0.5903280461031379,0.526636590578016,0.017560852139555716,-0.014723399121437416,0.0302482874810604,0.0302482874810604
282,2.82,0.227721202107214,1.1731241660044431,-0.47794479169426207,0.003540760415769161,0.018809864119942774,0.018809864119942774
283,2.83,0.4511043432049001,0.34639710523782224,-0.30835490073766225,0.029061802651363718,0.0232031568955824,0.0232031568955824
284,2.84,-0.7423883439961406,-0.3928409995210097,0.11458584159025564,0.022959154893123918,0.018196834400935905,0.018196834400935905
285,2.85,-0.640845077305984,-0.181859634839483,0.16186769496207826,-0.010364307311293928,0.010081180288836256,0.010081180288836256
286,2.86,0.9722411276958915,0.08629477129794766,0.2065662892732924,-0.03361983623573852,0.010283951630790402,0.010283951630790402
287,2.87,0.9209850871465979,0.1340333576812161,0.04712939011283965,-0.026758900586758425,0.005556943870779456,0.005556943870779456
288,2.88,-1.0358609510023835,-0.005689174443548647,0.2264063586147332,0.0043146778789018075,0.013764981840083335,0.013764981840083335
289,2.89,-1.2621917398040972,-0.3498088193106371,0.08285571868481473,0.02465564687922597,0.012891609320417049,0.012891609320417049
290,2.9,0.4584787476338553,-0.5442517054159349,-0.7401599376749932,0.024938049285730304,0.010699891026059382,0.010699891026059382
291,2.91,0.5407427723771517,-0.07995184459913302,-0.9377390228897419,-0.006333714241851618,0.01533155117404124,0.01533155117404124
292,2.92,-1.0061367076781143,0.47975852722668455,-0.5348820011284262,-0.014270208040090713,0.008559947392453889,0.008559947392453889
293,2.93,-1.241152327288336,0.35365051847241014,-0.09240983262800345,0.0013509378318209574,0.007140563936162159,0.007140563936162159
294,2.94,0.08903684061414785,-0.8958396568016055,-0.27395169496883615,0.02021326424527966,0.003217601795567098,0.003217601795567098
295,2.95,1.311052887116028,-1.8428829110993354,-0.2667699702397072,0.001669254684292163,0.004245106059218277,0.004245106059218277
296,2.96,0.24375816176065213,-0.8703226877856343,0.09044244057850337,-0.023241523080652526,-0.0008218239483890159,-0.0008218239483890159
297,2.97,-0.8550912636552337,1.2393656538984068,0.24092169274348782,-0.0095105261073294,0.003191409447911389,0.003191409447911389
298,2.98,-0.3658321672678435,2.075070215836928,0.2765687522849921,0.0454982910490044,0.0020120726311684905,0.0020120726311684905
299,2.99,0.7547387899618772,0.5508402601091468,-0.30995181660784515,0.07556950258391569,0.003306357968745595,0.003306357968745595
300,3.0,0.6099634625637138,-1.483338302206045,0.027152944333617396,0.03496963115618792,0.00030549098472845666,0.00030549098472845666
301,3.01,-0.1670103262931023,-1.6909457585031629,0.2266225528150728,-0.038871478067317285,-0.0027197582179597822,-0.0027197582179597822
302,3.02,-0.14237280729970125,0.21478578668589166,0.14136488169457745,-0.053655845178479857,0.0005475989208790262,0.0005475989208790262
303,3.03,0.14465545792864434,1.4876415735202662,-0.04064797196962461,-0.0035686259256118217,0.008168555048463512,0.008168555048463512
304,3.04,0.12975207841030234,0.35715466102757865,-0.620316095397387,0.06279598760765571,0.01019166347055594,0.01019166347055594
305,3.05,-0.030898722252038047,-1.4584994973237655,-0.4501003606159182,0.06870540657418253,0.00806687198142137,0.00806687198142137
306,3.06,-0.10122035438013668,-1.572491578766094,0.26258073907140556,0.010743326909339664,-0.0009003564557633572,-0.0009003564557633572
307,3.07,0.043355477779418145,0.6250479125147143,0.6895176918871473,-0.04328634631840635,-0.0030721800097958762,-0.0030721800097958762
308,3.08,0.44356054685822294,1.918382628274022,0.9330236208532452,-0.02251682270950264,0.005319346275148292,0.005319346275148292
309,3.09,0.6327198318772106,0.8765501422892361,0.3999315603524608,0.0324227953008272,0.009503543801560592,0.009503543801560592
310,3.1,0.05499604690749134,-1.5108141657334015,0.38131098238744277,0.06053628702247173,0.008031017319965542,0.008031017319965542
311,3.11,0.08920821677726773,-2.160531913116185,-0.01676316402323344,0.014735441587878881,0.012304764640682971,0.012304764640682971
312,3.12,0.5678368006182801,-0.2597053405051689,-0.008011695061908936,-0.044548746769233684,0.014679022935090684,0.014679022935090684
313,3.13,0.22803359220250152,1.9147793454081738,-0.47078132899433955,-0.03776344030001919,0.017252513105424628,0.017252513105424628
314,3.14,-0.8633216666050041,1.9456764282073766,0.0701211326038696,0.01967014447181363,0.018934143091862938,0.018934143091862938
315,3.15,-0.5032739950910294,-0.23081138102235155,-0.007718254060397445,0.05613808059090762,0.017200947314010208,0.017200947314010208
316,3.16,0.8144796322895388,-1.8434304086566782,-0.0027317739003565045,0.017524048199859886,0.02242702242579099,0.02242702242579099
317,3.17,1.0610332656592467,-1.026107719070154,-0.29677114312100467,-0.0507378331017318,0.023038560798747703,0.023038560798747703
318,3.18,-0.6539381426690848,0.6812227584282154,0.09102158245857209,-0.07415915498999401,0.021586546000550145,0.021586546000550145
319,3.19,-1.288910265687279,1.0344278549823942,0.10681731748639287,-0.0309122717278438,0.020108537871384755,0.020108537871384755
320,3.2,0.05723126863858258,0.00013989455401544615,0.5176720955170491,0.015294935753789138,0.020201198446388968,0.020201198446388968
321,3.21,1.2248122789161793,-0.5279930925479865,0.20966599179822062,0.02864492209240075,0.017635091862278574,0.017635091862278574
322,3.22,0.24901360316237803,0.2887398273159232,1.0483326618595539,-0.006187314115360932,0.017490394963404626,0.017490394963404626
323,3.23,-0.5677961797005169,1.5180738095014803,0.5316174497028614,-0.028617526494035705,0.016479477815911588,0.016479477815911588
324,3.24,-0.20850536562777233,1.5628945895761674,0.48979644581352255,-0.028325622731226192,0.02484159118287442,0.02484159118287442
325,3.25,0.34652346541433293,-0.031119917757874038,-0.32424878121578043,-0.02836388948093652,0.02296530453985546,0.02296530453985546
326,3.26,-0.08960399137133447,-1.1481351124001702,-0.7590364743870748,-0.041457399437986577,0.025050438542475517,0.025050438542475517
327,3.27,-0.8275404155351067,-0.5061091068116469,-0.7215473566403484,-0.054824151903510684,0.024401602170679125,0.024401602170679125
328,3.28,0.010496194714018803,0.25335547220075355,-0.533513871977505,-0.055995097356508455,0.01067542035551892,0.01067542035551892
329,3.29,0.816698269620943,-0.12077210359716983,-0.14086425516377726,-0.053487797684397514,0.012963983855083927,0.012963983855083927
330,3.3,-0.06160202100382753,-0.6606870533704838,0.1671265773781866,-0.05355717972502887,0.028262352278704973,0.028262352278704973
331,3.31,-1.7783167791383931,-0.16917862442153456,0.2000989727887625,-0.0599473723028335,0.029798897721060674,0.029798897721060674
332,3.32,-1.438459127422079,0.772486547211475,-0.7020398463567746,-0.05466955754770796,0.02612932020091352,0.02612932020091352
333,3.33,0.7801600970891447,0.5858580413079143,-1.2242581699600477,-0.033839889069059916,0.016477208369809208,0.016477208369809208
334,3.34,1.388785181438419,-0.8921107864598568,-0.29488512239813847,-0.04322986672918872,0.006314343862546817,0.006314343862546817
335,3.35,0.05376768400030629,-1.4159058178459607,0.48203222549906444,-0.07787266441994589,-0.002079987349383955,-0.002079987349383955
336,3.36,-1.264566251194671,0.22093822410626246,1.4494821445391377,-0.0881701366911944,0.0032872548334332142,0.0032872548334332142
337,3.37,-0.6176226994869154,1.7693509167000796,0.24628112351409948,-0.04754707198079336,0.0093238271205012,0.0093238271205012
338,3.38,0.6426654363302045,0.7452454312585843,-1.0606813331979148,0.002611127402955493,0.007154226648383629,0.007154226648383629
339,3.39,0.7292368169278998,-1.4253710391185415,-1.2099256963410427,-0.00449771744756355,-0.008712927743515623,-0.008712927743515623
340,3.4,0.10680455341798623,-1.5361018053539899,-0.5468795546741754,-0.05694672480006386,-0.0283957803252786,-0.0283957803252786
341,3.41,-0.2521548096958287,0.6789723724484252,1.2476979228665583,-0.0878771139000476,-0.03648848130511133,-0.03648848130511133
342,3.42,0.41885298829588213,1.9288392078423529,0.9233587704216332,-0.0369337916174252,-0.029586370332297336,-0.029586370332297336
343,3.43,0.7887794023841804,0.3812007345912586,-0.03096283823216861,0.02902702372716186,-0.01632456850748104,-0.01632456850748104
344,3.44,-0.02028373108556919,-1.7103548320581972,-1.0283095836201006,0.031169696361053708,-0.010813186596770066,-0.010813186596770066
345,3.45,-1.1178764169805036,-1.1407849416876719,-1.2262999298092896,-0.009008082288503036,-0.0297947964285063,-0.0297947964285063
346,3.46,-0.7797919915721256,1.2308524157635816,-0.10186653841156185,-0.03417604873935461,-0.03720875176641729,-0.03720875176641729
347,3.47,0.4506208069505081,2.0959750947272506,0.7671208709877315,-0.009107519960661543,-0.044526021036906185,-0.044526021036906185
348,3.48,1.055185025316335,0.12249969045925302,0.9527706057302844,0.023243799378840583,-0.03789447858762901,-0.03789447858762901
349,3.49,0.39650731597307837,-2.444275071010059,0.28283052109557516,0.011321572820470107,-0.02734629560956682,-0.02734629560956682
350,3.5,-0.815937002121146,-2.397377745275294,-0.3496961455006543,-0.042241064430890624,-0.02218032017547169,-0.02218032017547169
351,3.51,-1.0018215621275544,-0.2720103592988762,-0.6981327726907435,-0.06937575852350554,-0.022276943515601583,-0.022276943515601583
352,3.52,-0.1743339645526361,1.0581060990925044,-0.3127967973126646,-0.030095867271994783,-0.03030653779487845,-0.03030653779487845
353,3.53,0.7165659073458668,0.39140530550757807,0.25504319582861007,0.029680546058663156,-0.03245558176796543,-0.03245558176796543
354,3.54,0.38413436633178744,-0.7186947929519535,0.8971223139540667,0.03967603069918616,-0.033577838400233526,-0.033577838400233526
355,3.55,0.007583324580328232,-0.6708980062543446,0.5613438325943468,0.0015429326182063439,-0.026625407818661455,-0.026625407818661455
356,3.56,0.16509526344958325,0.27088039330331504,0.23113475382989612,-0.04097150233860253,-0.021961362606852712,-0.021961362606852712
357,3.57,0.24572233124711423,1.049235386850818,-0.10959146346363863,-0.04549054901940733,-0.02034386419091345,-0.02034386419091345
358,3.58,-0.0987201962724642,0.8079991369648356,0.22011836995322964,-0.004113403850780004,-0.022350462758329328,-0.022350462758329328
359,3.59,0.44187092321789356,-0.350901260000693,-0.40540282746176476,0.036597223765194975,-0.02212879829979872,-0.02212879829979872
360,3.6,0.8377145619754163,-0.9464670359456147,-0.5926054151237056,0.02099997179265833,-0.010220349566330864,-0.010220349566330864
361,3.61,-0.32580392818179527,-0.38371165925169226,-0.23407757615704672,-0.031533036978464754,-0.016986849323513305,-0.016986849323513305
362,3.62,-1.3318839361338068,0.6628016451262145,1.316285912647517,-0.061580153793460324,-0.027331833693828314,-0.027331833693828314
363,3.63,0.6692725249216429,1.0436118112515187,1.4457684658319943,-0.04605055685757521,-0.02726956568684069,-0.02726956568684069
364,3.64,2.775789717752095,0.4228559904836798,0.7817341025257386,-0.00700459225519573,-0.013354368342120473,-0.013354368342120473
365,3.65,0.7372161921325662,-0.5279934013345448,-0.27022531692267293,0.016197544785254144,-0.0044937174140544075,-0.0044937174140544075
366,3.66,-2.5943025230641794,-0.5682875278159749,-0.41033351406009233,0.0027413818524724552,-0.009132456801244259,-0.009132456801244259
367,3.67,-1.6599863943445237,0.7539504556060963,-0.4106025516685874,-0.035664636042812725,-0.010399366285896064,-0.010399366285896064
368,3.68,1.7407957712120237,2.1165436313692694,-0.25637184990100975,-0.03903239970942178,-0.014778960030585538,-0.014778960030585538
369,3.69,1.6867059193090805,1.7675113875132333,0.35592088724069537,-0.004342420871601242,-0.008660302104295534,-0.008660302104295534
370,3.7,-1.0539237293562174,-0.24499094752872097,0.8255320164349346,0.01333138560080312,0.0008044497752948965,0.0008044497752948965
371,3.71,-1.322346853645043,-1.9059214879235216,0.192996196689867,-0.026573558728363502,0.010682295862018843,0.010682295862018843
372,3.72,0.7549557692703447,-1.154105305020011,-1.4478264278987532,-0.07144617445507423,0.018052849361994992,0.018052849361994992
373,3.73,0.6284242836330465,1.3433991005956123,-2.2462177923681916,-0.05952630525672468,0.026214885895782476,0.026214885895782476
374,3.74,-1.6513863287696078,2.60754854980404,-1.2387937472206292,0.0031146878251582105,0.027646252174658062,0.027646252174658062
375,3.75,-2.1402253980425834,1.1738681112460276,-0.08046453600582426,0.06824835586314819,0.019653936317454532,0.019653936317454532
376,3.76,-0.18112330657243925,-1.6354963290609126,0.4944365702510271,0.04955817909609389,0.017420299872553547,0.017420299872553547
377,3.77,1.4535596171896803,-2.0646278420857325,0.878222761339587,-0.03841290210789822,0.018646358690680345,0.018646358690680345
378,3.78,0.7214478747237588,0.16862311054508927,0.7205131868572129,-0.09090477129908016,0.017756708293754343,0.017756708293754343
379,3.79,-0.3155107107085643,1.735886414752447,0.464042655645156,-0.044474891323521816,0.016310010962896318,0.016310010962896318
380,3.8,-0.455480643321861,0.3512511003846408,0.3084043877835766,0.03480280556815829,0.02146875354152779,0.02146875354152779
381,3.81,-0.0367426307070451,-2.3287590324604643,-0.20876041641597043,0.05707559128578755,0.01904505380683264,0.01904505380683264
382,3.82,0.047825231283580516,-3.188913652039341,0.16919532796444287,0.008367375605654107,0.022200608920026663,0.022200608920026663
383,3.83,-0.08582380015169774,-0.904697435454334,0.3402943777838189,-0.05286864755085772,0.010106105329425413,0.010106105329425413
384,3.84,-0.010580256927507276,1.4540534707067863,0.3327870182513596,-0.04773761517726473,0.013116545089686502,0.013116545089686502
385,3.85,0.10952905150557761,1.071350705010591,-0.030439686243246278,0.011516280703480472,0.01967497210376905,0.01967497210376905
386,3.86,0.15378165303927982,-1.473492117293922,-0.6713079802116944,0.05610482572499308,0.021002722691236268,0.021002722691236268
387,3.87,-0.03520644986948007,-2.448096398595358,-1.006598176846324,0.02118563214683732,0.01839219236933105,0.01839219236933105
388,3.88,-0.46237390766463704,-0.6679438484308818,-0.5655213687221401,-0.03698167595720145,0.012494906206393598,0.012494906206393598
389,3.89,-0.4466307647089153,1.5034953141570535,-0.0855693296715826,-0.046793830795687136,0.008793266809224494,0.008793266809224494
390,3.9,0.025357343565805435,1.5365310382189488,0.08020246167511935,0.001899664034523581,0.007345865924541909,0.007345865924541909
391,3.91,0.5525612400791582,-0.1295776290623682,-0.05225170626461759,0.04622851129794715,0.0074199944975071215,0.0074199944975071215
392,3.92,0.4691024034104316,-1.0678638280835762,-0.4754338518191938,0.02484131744455308,0.008724226531994327,0.008724226531994327
393,3.93,-0.009547067261503506,-0.6533712070447755,-0.2630894832216588,-0.016245232689475517,0.005546196084607793,0.005546196084607793
394,3.94,-0.4996290546731179,0.23313026008919213,0.1508647896222782,-0.04916986177774232,0.001818924467379837,0.001818924467379837
395,3.95,-0.11088151595066459,0.8913164206741895,0.17998001795533708,-0.028469158300767936,-0.002552930647844812,-0.002552930647844812
396,3.96,0.5347166194579063,0.7706940068911705,0.09932438035633796,0.016228403367814708,0.0019418980379320488,0.0019418980379320488
397,3.97,0.08727334950863552,0.44140899980487674,-0.013308485211413507,0.04363834568396677,0.00031375004882946284,0.00031375004882946284
398,3.98,-0.39761376687917727,0.19602855889501655,0.015101217648706589,0.02772264620924507,0.00040459397708426817,0.00040459397708426817
399,3.99,0.028157836924855573,0.5736569352049039,0.22988507736779795,-0.013405103869113385,0.002348563349662589,0.002348563349662589
400,4.0,0.7552489917977905,0.7972843991827643,-0.005447129591700017,-0.04361471621181666,0.001649391944592407,0.001649391944592407
401,4.01,0.24706572704143134,0.36322128477810517,0.14784698074385932,-0.03878849839884938,0.006945348485518116,0.006945348485518116
402,4.02,-0.38927274321069283,-0.37350304567958503,-0.1051396249896962,-0.01923007474388405,0.005602725569754096,0.005602725569754096
403,4.03,-0.28945154976283105,-0.47274931353390115,0.11139412709335374,-0.0015075703154125535,0.005496121052182849,0.005496121052182849
404,4.04,0.36395086128892357,0.10253442366625626,-0.017645643053677357,-0.000775549909747773,0.00781296951491869,0.00781296951491869
405,4.05,0.4247840748481577,0.5086235062994967,0.40994590968965045,-0.0062453260241706965,0.007933069331897288,0.007933069331897288
406,4.06,-0.25372940872834887,0.30241060290817545,0.6313605654727767,-0.01931023968122933,0.011238623541425012,0.011238623541425012
407,4.07,-0.32863380287793537,-0.1483001277652201,0.5692669388147839,-0.02727874831322744,0.009004632470786391,0.009004632470786391
408,4.08,0.3731318169694083,0.12515169320304204,0.24340445464289587,-0.022029616246320896,0.012990595941055132,0.012990595941055132
409,4.09,0.9572556591723684,0.7370810090401692,0.02643679340508523,0.0040789078007769375,0.008671410757178147,0.008671410757178147
410,4.1,0.20613972884235668,0.9087868238611317,0.5073021686030147,0.032209427906080314,0.0031503351873136613,0.0031503351873136613
411,4.11,-0.14370366691487518,0.1811000718525852,0.6462745328109964,0.034062207606669934,0.006660591297140795,0.006660591297140795
412,4.12,0.240015295425147,-0.4455525289031629,0.2987856525305639,0.003226480855902741,0.013673078952919564,0.013673078952919564
413,4.13,0.3479789006923394,-0.4614346461529638,-0.3911134952386246,-0.028870701197338512,0.01901960226022242,0.01901960226022242
414,4.14,-0.18993497726199604,0.19925998652550675,-0.6304166587203393,-0.028495975052341745,0.014149325755224616,0.014149325755224616
415,4.15,-0.6109558334724685,0.4057523332900566,-0.008096257811269048,0.005666348274316148,0.010836185404447468,0.010836185404447468
416,4.16,0.02088349651965922,-0.14371838368668602,0.16648402774194018,0.03743634854322622,0.0067838545550026755,0.0067838545550026755
417,4.17,0.4551365915326394,-0.862218989746147,0.4803776204887938,0.03215148716299122,0.00734357497557526,0.00734357497557526
418,4.18,0.08528331943309649,-0.7997119470264829,0.1777583204034942,-0.008126964241480336,0.007242388870934462,0.007242388870934462
419,4.19,-0.4080886942483163,-0.09483270971061655,-0.027626438375305318,-0.03620381671976186,0.008254332909115196,0.008254332909115196
420,4.2,-0.16048204885102813,0.07383331431880324,-0.20407732076236385,-0.024193426022133844,0.004224767922363461,0.004224767922363461
421,4.21,0.2783938421604063,-0.5604871184502561,-0.4665442746100852,0.007283482065709741,0.004942814401244247,0.004942814401244247
422,4.22,-0.08017664431279482,-0.9336861326201484,-0.2142933210339796,0.02119470513238807,0.004687646753989343,0.004687646753989343
423,4.23,-0.5182100410760118,-0.32018002223795716,-0.3985800942190314,0.0177116215863868,0.0011560021756895859,0.0011560021756895859
424,4.24,-0.27543958660373447,0.4661954553123877,-0.38218756742435867,0.003034144705368761,-8.650863087774881e-05,-8.650863087774881e-05
425,4.25,-0.022089257312741473,0.3005160350306592,-0.5346517092359608,-0.003890480442214523,-0.0003936137718115613,-0.0003936137718115613
426,4.26,-0.15294238723854992,-0.5383578047640665,-0.48508121030108414,-0.004802493202339753,-0.005611940217436795,-0.005611940217436795
427,4.27,-0.48322383844956096,-0.6914944212197229,0.02750215800433531,-0.003250554914528281,-0.010306489281830443,-0.010306489281830443
428,4.28,-0.3810880997680023,0.017335619105358885,0.23341256218562462,0.01061686220149088,-0.01505726206894469,-0.01505726206894469
429,4.29,0.19989109955342843,0.7157487386810912,0.20986608280541022,0.028896131642612764,-0.012810374969840171,-0.012810374969840171
430,4.3,0.28351677885050114,0.45800871320693204,-0.11191230778321098,0.03761320275810781,-0.011824995224068205,-0.011824995224068205
431,4.31,-0.4080331441271565,-0.1617329176326943,-0.34210477538612905,0.02227932028472424,-0.012980791483202886,-0.012980791483202886
432,4.32,-0.7571169702839378,-0.19257684812106968,-0.33228687180087024,-0.007746202149005864,-0.014186921124468227,-0.014186921124468227
433,4.33,-0.22527777516239852,0.15133677285021427,-0.42913876052427746,-0.018323073686208502,-0.017544236469306283,-0.017544236469306283
434,4.34,0.32790401382832696,0.2866656118893356,-0.051599798803573016,0.004829096573517315,-0.02046252013559564,-0.02046252013559564
435,4.35,-0.08807923709991108,0.07427641889558052,0.3065278675973172,0.029324201239066764,-0.02175029229477273,-0.02175029229477273
436,4.36,-0.4453781220663731,-0.4802880205649537,0.3081665687516935,0.031434827833412664,-0.015777559709035913,-0.015777559709035913
437,4.37,-0.012301857102033381,-0.5198201228941427,0.016913839200041525,0.002702037006120709,-0.01110276264260722,-0.01110276264260722
438,4.38,0.09204365268422122,0.18797415608553592,-0.39617330533155776,-0.02535875846861221,-0.011082671038863791,-0.011082671038863791
439,4.39,-0.22859560203597773,0.6974721563736572,-0.3418310781590473,-0.01292035234383849,-0.009051470296492831,-0.009051470296492831
440,4.4,-0.41218323448807165,0.3293493288140828,0.3378920097483578,0.015920639521693043,-0.013049581038354371,-0.013049581038354371
441,4.41,0.32979194601121886,-0.6710225165415802,0.3154348996293308,0.02574912198544484,-0.013991196262370423,-0.013991196262370423
442,4.42,0.9053560964522263,-0.639137350961509,0.4965445199761442,0.003924047489158152,-0.007708917429930818,-0.007708917429930818
443,4.43,0.28569396939962394,0.5215515014183834,-0.02008547679692743,-0.02229123010532704,0.0010893085269999393,0.0010893085269999393
444,4.44,-0.30347348329060453,1.4255350185776559,-0.3686493401940836,-0.012603156206845916,0.006216573780782156,0.006216573780782156
445,4.45,-0.023666557454553205,0.7885847784576975,-0.5105806512531572,0.010985570808753,0.004810025061055051,0.004810025061055051
446,4.46,0.4614158672528022,-0.35819381645765064,-0.4288174054684747,0.01825484967441661,0.005694858808642898,0.005694858808642898
447,4.47,0.41086486852129206,-0.5424058318288375,0.13677661218041565,-0.00687322921899515,0.004140012949047495,0.004140012949047495
448,4.48,0.2006769541797659,0.08135203755086098,0.4939348640488482,-0.03452737684195185,0.003939224628827391,0.003939224628827391
449,4.49,0.3069499378447571,0.2878798312102241,0.3711214936138642,-0.03645124417963812,0.010474254180289824,0.010474254180289824
450,4.5,0.4526630873445443,-0.29880688359590624,0.28953207426346894,-0.024750474258217924,0.010034003553543645,0.010034003553543645
451,4.51,0.2659814139342861,-0.6169425087303377,0.15219420113299736,-0.015837083754408586,0.011867997691838768,0.011867997691838768
452,4.52,0.235529764414025,-0.2226970530710899,0.31485501237851565,-0.008326238941184462,0.010536383487508662,0.010536383487508662
453,4.53,0.4194045995157125,0.21147196672568733,0.40243037917176205,-0.013081938350666806,0.008104989056683894,0.008104989056683894
454,4.54,0.2725241648874853,0.40985090608635194,0.3592256554444099,-0.016054227422071302,0.01108824947369214,0.01108824947369214
455,4.55,0.1311045521062691,0.1991645258200249,0.22520381109277024,-0.0184327504597104,0.011349503225436187,0.011349503225436187
456,4.56,0.13663243110260304,-0.05839670036208991,-0.011553328822874687,-0.0237292792275548,0.01734480565413833,0.01734480565413833
457,4.57,0.08732315674015953,-0.07477741253137128,-0.2242938694270057,-0.01928731828221616,0.0188255628863683,0.0188255628863683
458,4.58,-0.16341761282051687,-0.02322451435176206,-0.11184166873369113,-0.01294230429892525,0.016880971783303098,0.016880971783303098
459,4.59,-0.3450697980803622,0.23464206132243334,0.029457836657404618,-0.008950789826698316,0.016608457973194463,0.016608457973194463
460,4.6,-0.201872056785044,0.353649057104515,0.05669789671074224,-0.0016503604939660536,0.013899405888437327,0.013899405888437327
461,4.61,0.011099279443560012,0.29455976550916824,-0.06308288752840575,-0.00339241646252594,0.01649811697728851,0.01649811697728851
462,4.62,-0.23395459885028203,-0.025362393834377744,-0.07800351854221309,-0.00935622091853989,0.01833994388264055,0.01833994388264055
463,4.63,-0.36178646270634834,-0.36536948701487604,0.0577676867189307,-0.022492821053279752,0.017937007427001692,0.017937007427001692
464,4.64,-0.0842383808174242,-0.26874006429994957,-0.0227935607396004,-0.02365855777752809,0.014514236464556931,0.014514236464556931
465,4.65,-0.35342861461975605,0.19245557542521496,0.2565997661679768,-0.003524062263676624,0.0164144635799961,0.0164144635799961
466,4.66,-0.4163456662443049,0.23087333363356724,-0.16276292535363376,0.01764574546064241,0.016224329185218368,0.016224329185218368
467,4.67,-0.2553331316768468,-0.2844450439502001,0.08013564198389697,0.022286626522651044,0.014199273763353946,0.014199273763353946
468,4.68,0.034570653691307685,-0.6264443673833984,-0.3208795274444982,0.00016710519531869597,0.012450943883936659,0.012450943883936659
469,4.69,-0.23326626873732326,-0.2620521014657084,0.16961161362298413,-0.02570889123514117,0.009225103532061692,0.009225103532061692
470,4.7,-0.3897162160287678,0.29266445306366473,0.10166639661951854,-0.017718857066879364,0.009081222961163149,0.009081222961163149
471,4.71,-0.19350946586312162,0.05860664988972997,-0.04068044181177902,0.010858844901815951,0.009228734695608443,0.009228734695608443
472,4.72,-0.04120858920092037,-0.6142653198325134,-0.1486391343789145,0.034764621700966544,0.007969517169034069,0.007969517169034069
473,4.73,-0.15461774605765638,-0.7630737866842691,-0.17238994364257493,0.024571567691242642,-3.3191740216790756e-05,-3.3191740216790756e-05
474,4.74,0.00454695452005411,-0.13172963742565796,0.007826166717481764,0.005098189945126012,-0.0012334732060888284,-0.0012334732060888284
475,4.75,0.10384064147903062,0.25748011851453567,0.269054443954034,-0.008333081998550209,-0.0037362972140837416,-0.0037362972140837416
476,4.76,0.0324365028828915,-0.01994042355066132,0.2175955246383579,0.005678853262521216,-0.004152013659461024,-0.004152013659461024
477,4.77,-0.06037897617451014,-0.241982757934446,-0.007781456088140126,0.02342962708816023,-0.0037074289464421022,-0.0037074289464421022
478,4.78,0.12917712396864936,-0.18151036440480384,-0.46731114052289513,0.031049355642565668,-0.005164844798968728,-0.005164844798968728
479,4.79,0.20113670974900527,-0.037015486914721035,-0.47729171303110474,0.023627070807820318,-0.0037631036161158695,-0.0037631036161158695
480,4.8,-0.08918543264118334,0.11973168520673626,-0.18799508784594923,0.008421579225263489,-0.010152665916622486,-0.010152665916622486
481,4.81,-0.24192981367881133,0.39350326763160615,0.04860875431365699,0.00664357703256039,-0.010986531532829876,-0.010986531532829876
482,4.82,0.15303947318357192,0.365087575778959,-0.07136164515518949,0.009944324104526085,-0.006989039459882008,-0.006989039459882008
483,4.83,0.3195210965869464,0.10023720563896188,-0.4041575994637703,0.014837180593585759,-0.008589089215288571,-0.008589089215288571
484,4.84,0.022165393426323232,0.03489347095554919,-0.635683554367487,0.014323258267433322,-0.006644402711007249,-0.006644402711007249
485,4.85,-0.21910713847587251,0.4001681517582664,-0.2316702496048505,0.009100682546738802,-0.010561866260868613,-0.010561866260868613
486,4.86,-0.03389878479497094,0.4229156795921587,-0.04049822180841309,0.009913382018070856,-0.015103413194221363,-0.015103413194221363
487,4.87,0.4823500186413827,-0.07197364160740702,0.09988798696714639,0.002092345250775073,-0.009785528485867142,-0.009785528485867142
488,4.88,0.2846228868724086,-0.19437816799490615,0.16483140437865662,-0.0044722418361203735,-0.004678699804632799,-0.004678699804632799
489,4.89,-0.15166729852176836,0.336613040187572,-0.05906410452625989,-0.002479005081242354,-0.006834515973586721,-0.006834515973586721
490,4.9,-0.042266812417970256,0.8061051162115451,0.03299810874820565,0.011345300456573882,-0.008149306215531392,-0.008149306215531392
491,4.91,0.3838069911521411,0.4470072765859347,-0.1470520498461354,0.015897045353663687,-0.0065712040071267686,-0.0065712040071267686
492,4.92,0.3858520793318323,-0.2714034564653028,-0.024104081001724398,0.004131601681479953,-0.006623695430293885,-0.006623695430293885
493,4.93,0.0642654688850944,-0.5451651706148966,0.09844884524940231,-0.02662692798216912,-0.00858720514367641,-0.00858720514367641
494,4.94,-0.10386437863074596,0.06790975463620258,0.25433162425855005,-0.029338005817147426,-0.005806637303105041,-0.005806637303105041
495,4.95,-0.047113017224569426,0.4742095651239724,0.21940284446421093,-0.006381535812348991,-0.008654983278105946,-0.008654983278105946
496,4.96,0.23009738963120147,0.18469099380063703,0.27578047865761357,0.023610421597122743,-0.006728706827248069,-0.006728706827248069
497,4.97,0.4163925828130465,-0.036346294914919156,0.23787990145769358,0.02450920140977219,-0.006535386359163732,-0.006535386359163732
498,4.98,0.23321021370505174,0.213698041509142,0.25311924993362467,0.010311368544238291,-0.005265884913658893,-0.005265884913658893
499,4.99,-0.2720565510630522,0.2695791574799632,0.38756780295067816,-0.01527428210531489,-0.008138350669847638,-0.008138350669847638
500,5.0,-0.2626523151350314,-0.2574467354048238,0.10551432800314392,-0.02623601160617707,-0.003805198025674121,-0.003805198025674121
501,5.01,0.023011107936703606,-0.8019832003056206,0.061342355398914736,-0.015685538387163397,-0.0059314098554519605,-0.0059314098554519605
502,5.02,0.20228794500538835,-0.5601189202684436,-0.12970971451368365,-0.0042739237821661545,-0.008734059176000519,-0.008734059176000519
503,5.03,0.018875399014716646,0.06796068133782163,0.12008349353841902,0.01410405955512559,-0.014972201663061385,-0.014972201663061385
504,5.04,-0.05805956408430002,0.24152040774806594,0.3016276827065095,0.015977722261636757,-0.013933913960542384,-0.013933913960542384
505,5.05,0.03398323531643595,-0.147520931756504,0.535139324212645,0.00036949035546163245,-0.01403338885734969,-0.01403338885734969
506,5.06,0.17724905869710372,-0.7432196098662862,0.1727896571906326,-0.02592483128014845,-0.015047536856678216,-0.015047536856678216
507,5.07,-0.16970231807509104,-0.7809073298860272,0.1391269547684434,-0.045983408859119335,-0.010156221826654913,-0.010156221826654913
508,5.08,-0.5490841048315132,-0.40761584809162954,-0.22327037378436032,-0.031066441604927594,-0.012293683076177831,-0.012293683076177831
509,5.09,-0.3380381450055796,0.1127992927127262,-0.02162668163124591,0.0006228379771870512,-0.015072757583269257,-0.015072757583269257
510,5.1,0.127865912935837,0.3368241971971706,0.0536955681079159,0.027300439813089505,-0.014723888221145582,-0.014723888221145582
511,5.11,0.040600193854179234,0.09487970977746125,0.036222758125450394,0.0217108905765069,-0.015136601722778715,-0.015136601722778715
512,5.12,-0.28183239241862557,-0.2055513395119665,-0.20192838352732712,-0.008560123641577377,-0.010715378148578331,-0.010715378148578331
513,5.13,-0.5248124769415696,-0.16897197852550822,-0.25330733817700557,-0.04384787589617393,-0.010303468168936626,-0.010303468168936626
514,5.14,-0.26154892438993443,0.044973452858925386,-0.5175582555261814,-0.03980519211124387,-0.011198251984540141,-0.011198251984540141
515,5.15,-0.10367208715639314,0.11967496014978414,-0.08903641534440496,-0.006852709349460515,-0.008312557864728964,-0.008312557864728964
516,5.16,-0.14859262470287943,-0.060500279545636526,-0.024270137450029136,0.021584397967249692,-0.007696859429376122,-0.007696859429376122
517,5.17,-0.12607823672373514,-0.04380090067942888,0.09352320072156017,0.025299327586891462,-0.008243302691961055,-0.008243302691961055
518,5.18,0.06219126206979596,0.26457170441620476,-0.28647036968911094,0.008125695076806563,-0.004936215749575243,-0.004936215749575243
519,5.19,0.001239242966094671,0.581618366318763,-0.4093852016240377,-0.014630258182521828,-0.006189830145758001,-0.006189830145758001
520,5.2,-0.2830974094371777,0.40014796674636055,-0.19390108312840226,-0.02091728043916757,-0.00819988211749736,-0.00819988211749736
521,5.21,-0.15911633175035161,-0.05445112031208346,0.11890082100356966,-0.008508135415326376,-0.009496926566320785,-0.009496926566320785
522,5.22,0.5581827160052448,-0.24324396913214416,0.04688875135566223,0.013434602050541358,-0.00943528529792532,-0.00943528529792532
523,5.23,0.5229895464195686,-0.11551063775167243,0.05149556060408848,0.01571676951720635,-0.007495466307320127,-0.007495466307320127
524,5.24,-0.2177320094351065,-0.07611383713578662,-0.07452431847017155,0.007040488911428774,-0.007373760089368756,-0.007373760089368756
525,5.25,-0.2242667793443603,0.11564220479433782,0.029182076506659174,-0.008823151565450701,-0.008387371227554327,-0.008387371227554327
526,5.26,0.4343774159979832,0.4199775100882662,-0.24187574822373933,-0.009850701704941092,-0.010258137171139449,-0.010258137171139449
527,5.27,0.47720565357954325,0.2321518582065848,-0.1932055237540169,0.006384009331022256,-0.007223389906744598,-0.007223389906744598
528,5.28,-0.283692359810383,-0.3105636573669823,0.03609915548335979,0.014451317362511209,-0.011316400390206064,-0.011316400390206064
529,5.29,-0.1585557044375419,-0.20955456798280098,0.01809978440385407,0.005393867722780865,-0.01026919418987906,-0.01026919418987906
530,5.3,0.4922965137200643,0.31094296867002225,0.1660221279346443,-0.0025010467939371424,-0.015386881781385616,-0.015386881781385616
531,5.31,0.4257682574020095,0.55366325355604,-0.03432407367016912,-0.005751445823666779,-0.010630571450889371,-0.010630571450889371
532,5.32,-0.1560384669560995,-0.0006013353029055979,-0.009029932415716882,-0.0021550235857744912,-0.0063569845413623816,-0.0063569845413623816
533,5.33,-0.03417062857738498,-0.6661066887331087,-0.20985614709039252,-0.0031085766967627985,-0.010736145364680424,-0.010736145364680424
534,5.34,0.423575719413035,-0.49888776784335953,-0.3598328520285118,-0.0141219580000741,-0.0117510066602895,-0.0117510066602895
535,5.35,-0.0859255336364497,0.37490593186578886,0.24568730777138198,-0.009189957705082644,-0.01506054518560249,-0.01506054518560249
536,5.36,-0.3716246016782122,0.9076161814211245,0.4002188385338611,0.013789496995274354,-0.013846967294503215,-0.013846967294503215
537,5.37,0.25791749503523775,0.5605743252887952,0.2597810328176969,0.02347504846831777,-0.012730356912256515,-0.012730356912256515
538,5.38,0.6361711665246346,-0.3236913041146292,-0.22400020753906585,0.008593803485664003,-0.010636344269550922,-0.010636344269550922
539,5.39,-0.20195769275006278,-0.5780107498843564,-0.16688681046638626,-0.024079191122351955,-0.013288442669528888,-0.013288442669528888
540,5.4,-0.6847475026765153,0.05443556213638981,0.13315321422082327,-0.034901083145407914,-0.015456397616988572,-0.015456397616988572
541,5.41,0.16355457959927908,0.496460687491397,0.21668903794306776,-0.014665029157665004,-0.01716512833952371,-0.01716512833952371
542,5.42,0.5424177783161507,0.30255347143588185,0.17652810764758825,0.021500048690385846,-0.008237585824571316,-0.008237585824571316
543,5.43,-0.12652836343992474,-0.2905176747663787,0.057007122954022216,0.03056853513031043,-0.008694520386014083,-0.008694520386014083
544,5.44,-0.435206833292223,-0.29395529943343746,-0.08317016734082006,0.006511813428293739,-0.00660397447753006,-0.00660397447753006
545,5.45,-0.028007059153968103,0.27602950842408125,-0.1260836967063078,-0.018443632915713014,-0.010764104304529506,-0.010764104304529506
546,5.46,0.12360274468449703,0.4076281071084226,-0.13479037358940055,-0.022226461374340884,-0.00695645788416943,-0.00695645788416943
547,5.47,-0.1874734244475051,0.013981817831717036,0.1522653833935282,0.0011146264268776934,-0.008447965226609134,-0.008447965226609134
548,5.48,-0.3024614722676787,-0.44226727723889186,0.1767847965756646,0.02323319579800301,-0.008573710944347356,-0.008573710944347356
549,5.49,-0.010621777141446243,-0.298578457610882,0.14865455460232452,0.018184643902349626,-0.00893000184397736,-0.00893000184397736
550,5.5,0.03979251420084624,0.050876306226990964,0.3101322761963041,0.008171942524860417,-0.00895379197771174,-0.00895379197771174
551,5.51,-0.09020877386219404,0.08856042191992061,0.25379695918636486,-0.012520779796914126,-0.006830955863151891,-0.006830955863151891
552,5.52,-0.08485758983948641,-0.2929234848097599,0.37257871180491237,-0.02028347111454965,-0.008108968133774975,-0.008108968133774975
553,5.53,0.14944350938644596,-0.8180536539038107,0.03153765487516011,-0.018267011616348132,-0.009302032610844528,-0.009302032610844528
554,5.54,0.17257953911625948,-0.5437182252633217,-0.03476426974606153,-0.0078328960318144,-0.005085929097259549,-0.005085929097259549
555,5.55,-0.16640444852986191,0.17561479230836285,0.061840899914696865,0.004993670326872681,-0.004745971931926222,-0.004745971931926222
556,5.56,-0.29429096730905857,0.4119387812191906,0.037920952889816346,0.015866763575752316,-0.007344641820823748,-0.007344641820823748
557,5.57,-0.023796314349163177,-0.10040900578210629,0.10476355338099737,0.012737184548523788,-0.004348509344239772,-0.004348509344239772
558,5.58,0.14808279979080252,-0.519498114266152,-0.13010450662224435,-0.013523837049537432,-0.005229452166092484,-0.005229452166092484
559,5.59,0.004699107914861458,-0.33072279949249417,-0.18125262810201634,-0.034734797057628566,-0.002707379335573217,-0.002707379335573217
560,5.6,-0.1661789498903647,0.030749975669794205,-0.07435449792813165,-0.025777703631627104,-0.004777819344809718,-0.004777819344809718
561,5.61,-0.13595710904599176,0.05908283834498026,-0.06423201892708784,0.006043938506129006,-0.002354395413899408,-0.002354395413899408
562,5.62,0.10458516753669746,0.16612110037527666,-0.1928328893487809,0.023238961745153584,-3.7736037920069455e-05,-3.7736037920069455e-05
563,5.63,0.14950676009246758,0.21800997062455418,-0.21345078518567248,0.01782380095326029,-0.0006419025319709559,-0.0006419025319709559
564,5.64,0.03960561506151966,0.04943805103964802,-0.30360872734973837,-0.008469786012264398,-0.0023094173094613483,-0.0023094173094613483
565,5.65,-0.14277444996841004,-0.18294816372153977,-0.043436975410322036,-0.03050150442706262,-0.001327681975171497,-0.001327681975171497
566,5.66,-0.16639939300561124,-0.2635551982554499,-0.006194162491476321,-0.0335296712696263,0.00048706942067301847,0.00048706942067301847
567,5.67,0.0630645281007601,-0.11429498014440848,-0.06690411330981577,-0.011737890540218062,0.002502812156409373,0.002502812156409373
568,5.68,0.2595865290400926,-0.04610103218058062,-0.20220417755202733,0.013255638546437954,0.0011795424857849025,0.0011795424857849025
569,5.69,0.026165611210795005,0.21024536083309928,-0.2919089529420519,0.01954346918171401,0.0022654960665235107,0.0022654960665235107
570,5.7,-0.24869341083125338,0.602164394777202,0.05821513215648823,0.013466000851971784,0.0030532877365971093,0.0030532877365971093
571,5.71,-0.11319283393340775,0.5972155757081377,-0.038000232662508765,-0.005896750398064737,0.0005862068120766692,0.0005862068120766692
572,5.72,0.19979702417458942,0.26435400957312066,-0.09477836269187384,-0.018831635180430163,0.0009396211497620574,0.0009396211497620574
573,5.73,0.1551006111484276,-0.20677782974659564,-0.16179636523946594,-0.016183306353436497,0.0024765013643514174,0.0024765013643514174
574,5.74,-0.18230367262321817,-0.38191480728643634,-0.15607084076445252,-0.010912359968907149,-0.00012778767872951254,-0.00012778767872951254
575,5.75,-0.06908074809158138,-0.016220997902293116,0.20208001443823398,0.0034751937964491945,-0.00017008347702331694,-0.00017008347702331694
576,5.76,0.3079762736557615,0.5323608073394334,-0.02423194586337879,0.0167565041494387,0.002334072846783227,0.002334072846783227
577,5.77,0.28611786051048005,0.44545244033265746,-0.08664591365043606,0.011493067543078606,0.002425591468283945,0.002425591468283945
578,5.78,-0.1798231387812605,-0.05360584997335019,0.020511032627383,-0.006274143422356354,-0.0014060493337938855,-0.0014060493337938855
579,5.79,-0.2357462187030098,-0.27975367112899674,0.0019760224672211724,-0.02453470820460649,-0.002219835340367083,-0.002219835340367083
580,5.8,0.31922036785138086,-0.03507238727943526,0.2298452240865723,-0.03316277795978488,-0.004446760859577132,-0.004446760859577132
581,5.81,0.27746686844785334,0.16248083488397014,0.12719593269298152,-0.015065242476617524,-0.003449050217646024,-0.003449050217646024
582,5.82,-0.2927672308447707,-0.08289267459059493,0.13972852014260861,0.007006642776072736,-0.0015097882771076328,-0.0015097882771076328
583,5.83,-0.17393149713789693,-0.35135275141436173,0.07564460883202168,0.003994247046383298,-0.002012256799497357,-0.002012256799497357
584,5.84,0.40657690997108825,-0.17490235047846286,-0.16220835871983239,-0.01857590175826115,-0.003156323235357485,-0.003156323235357485
585,5.85,0.1587431652275591,0.2924063465602562,0.07438907437687871,-0.027438763270543,-0.0016840852442478506,-0.0016840852442478506
586,5.86,-0.4907571507414356,0.25633893050997897,0.28837609490039706,-0.02417948612717287,0.0005675482266263602,0.0005675482266263602
587,5.87,-0.2577891766493215,-0.06688425951624002,0.10529885470223294,-0.004676866682424459,0.0011422391996325127,0.0011422391996325127
588,5.88,0.29274018258865275,-0.11041328964989047,-0.1229671456499163,0.00937543685995931,0.005209099268020168,0.005209099268020168
589,5.89,0.09800097636332014,0.3019627553491059,-0.25625500248060673,0.011934844856826624,0.0036743906217020384,0.0036743906217020384
590,5.9,-0.3085863885683829,0.8418636646949712,0.052303516507169315,0.008532624318024006,0.0014154409674678114,0.0014154409674678114
591,5.91,0.01126379368135244,0.46776845874281064,0.1601049302571607,0.003838568584732467,-0.00024535911832704424,-0.00024535911832704424
592,5.92,0.28353243102205516,-0.31931244495982347,0.07343627660830111,-0.005732182870984825,0.0044628260776977,0.0044628260776977
593,5.93,-0.0371040219009449,-0.5664581321302844,0.08395807086449317,-0.014737689373608153,0.0022095115406759016,0.0022095115406759016
594,5.94,-0.23902254036552142,-0.2728301679798223,0.009151522311580014,-0.014193091161412394,-0.0020664686287862923,-0.0020664686287862923
595,5.95,0.22913140010580252,-0.17650427669532448,0.18779972379130505,-0.0032720839134921693,-0.0025626483774346532,-0.0025626483774346532
596,5.96,0.6604203823906841,-0.35162517458580245,0.16421383981235518,0.0084921186785998,-0.0029827834464713947,-0.0029827834464713947
597,5.97,0.07762452907611693,-0.47137792304264164,0.29112403273537835,-0.0002959698991895389,-0.0013244086488101527,-0.0013244086488101527
598,5.98,-0.48049154708558683,-0.2529218448974435,0.1178659689212219,-0.01760436375830494,0.0012835097053881116,0.0012835097053881116
599,5.99,-0.2923404653830676,-0.04292219125182051,-0.18280456060725273,-0.02366895698468776,-0.002425257058258971,-0.002425257058258971
600,6.0,0.22632802780047223,0.08551321829502977,-0.31124262242194284,-0.012541175221366664,-0.0024076714422010394,-0.0024076714422010394
601,6.01,0.2773163205228397,0.1326511154824026,-0.07498922574121342,0.002922322311313853,-0.008126872984079877,-0.008126872984079877
602,6.02,-0.03708122442205636,-0.027825028553761726,0.24456401428997146,0.01461516373791203,-0.010746335070628093,-0.010746335070628093
603,6.03,-0.12570259661652067,-0.10586740733865133,0.2899390589494933,0.003460499603730557,-0.011436352909379015,-0.011436352909379015
604,6.04,0.023409959707975915,-0.022684758665040557,0.05848279066349085,-0.015706487988716385,-0.008393061576483658,-0.008393061576483658
605,6.05,0.1230070652102564,0.10602773883140881,-0.14636226091166668,-0.024249143367392468,-0.0089480783869013,-0.0089480783869013
606,6.06,-0.028866554349083057,0.06509195754172682,-0.23648252312376528,-0.014297609782238563,-0.00875620598194563,-0.00875620598194563
607,6.07,-0.18069454031822707,0.050225783790739095,-0.1644515193519565,0.0031229153916396274,-0.008309471871126146,-0.008309471871126146
608,6.08,-0.24011316832173363,0.003838738501731935,-0.04953110463877777,0.010692104592944271,-0.010860910733058315,-0.010860910733058315
609,6.09,-0.16390262473323022,0.04116513483472428,-0.07131777738480241,0.004024140680267197,-0.010940219179839752,-0.010940219179839752
610,6.1,-0.055260258801422255,0.08437919837972595,-0.06214627200956796,-0.013533151808807656,-0.010336145727162826,-0.010336145727162826
611,6.11,-0.032953309695116305,-0.05406038355642456,-0.11857586820978935,-0.022923318871340824,-0.010459085001676291,-0.010459085001676291
612,6.12,-0.2953760324836324,-0.09867213601082088,-0.014192012834603376,-0.018546286143946808,-0.007500710429477461,-0.007500710429477461
613,6.13,-0.15763296642056762,-0.11984045867203824,-0.04919659256609495,-0.005843562251710247,-0.009851042449461129,-0.009851042449461129
614,6.14,0.058186677986851607,0.01375233509743376,0.02420234533481385,0.0043834468979371205,-0.005746262648587057,-0.005746262648587057
615,6.15,0.11258793969472017,0.0342717477538524,-0.0587279550498087,0.0006399816110077964,-0.008671943347560595,-0.008671943347560595
616,6.16,-0.12210836953907206,0.10862735280025314,0.07602869153982228,-0.006729045803425464,-0.003333481385228036,-0.003333481385228036
617,6.17,-0.16687937375258266,0.1722041366544349,-0.1659803161359022,-0.019610056946306624,-0.0016740537774907664,-0.0016740537774907664
618,6.18,-0.029941184556539727,0.165008846226528,-0.1283731675386455,-0.01420176474518134,-0.0032869244680319852,-0.0032869244680319852
619,6.19,0.05261101387162218,0.1870691911490196,-0.21760876910463342,0.0013309675930087176,-0.00019759198288790212,-0.00019759198288790212
620,6.2,0.05687516204609272,0.13827701003042991,0.037771967094768585,0.008803569936757185,0.0005645711910623684,0.0005645711910623684
621,6.21,0.028533506307551075,-0.05788586509661295,0.09654173858917163,-0.00027464096961994644,-0.0011985747982746144,-0.0011985747982746144
622,6.22,0.11670082953013441,-0.11138335398990075,0.03339778152690644,-0.02177980040266302,-0.00020578761667366203,-0.00020578761667366203
623,6.23,0.18921570884482863,-0.16941799299493054,-0.12214216057031406,-0.033229621253777,0.001208830169733409,0.001208830169733409
624,6.24,0.10998022500887486,-0.5171072988718304,-0.1997796731158596,-0.035538589500025815,0.004363789373985197,0.004363789373985197
625,6.25,-0.13543597877055935,-0.5915391582005463,0.008142853854343796,-0.02305709964962033,0.0048423996215100715,0.0048423996215100715
626,6.26,-0.04579126735215286,-0.21376279474396365,0.14318192449366676,-0.009299885207661573,0.004518730144994364,0.004518730144994364
627,6.27,0.3414285120376165,0.43180903334297965,0.09551046286044935,0.006950106337580626,0.0037721400156834955,0.0037721400156834955
628,6.28,0.2923709635516177,0.5185331942771393,0.137707872019173,0.012689919132985691,0.004862329218836999,0.004862329218836999
629,6.29,0.16054446344499626,0.04694122137866735,0.06071213300093332,0.002938508141882332,-0.0023385669095278773,-0.0023385669095278773
630,6.3,0.1638861691496297,0.009089980436474188,0.21510058797343745,-0.010464627661299408,-0.002860448770422007,-0.002860448770422007
631,6.31,0.21795972593395055,0.40507800631762136,0.1648335520517304,-0.012624407511336632,-0.00568692890805525,-0.00568692890805525
632,6.32,-0.051815659399673,0.5546763950616584,0.2128505672921588,0.010773219084483324,-0.007426005695708145,-0.007426005695708145
633,6.33,-0.06713461865720137,0.19258688992539147,0.062464039171497676,0.03071110233408524,-0.0054379808328534176,-0.0054379808328534176
634,6.34,0.16142354983723117,-0.1355737225735826,0.011721867312694242,0.02735084197084785,-0.008453369748659659,-0.008453369748659659
635,6.35,0.1434284187174916,-0.11791134666324155,0.025432647454332352,-0.0003008429663344976,-0.011030186478868192,-0.011030186478868192
636,6.36,-0.14975111700777924,0.25406935684835924,0.06223275586054269,-0.017976972472983497,-0.008932134535312407,-0.008932134535312407
637,6.37,-0.3854036915904012,0.39070863066450146,-0.02034756150903331,-0.009529652184148573,-0.005307229364453346,-0.005307229364453346
638,6.38,-0.33641306598832776,-0.1059234771618138,-0.20002422088231006,0.009395322201728685,-0.009616046942801364,-0.009616046942801364
639,6.39,0.011743300301546952,-0.7552908738618361,-0.33256136854423457,0.009820112678286369,-0.008634155291172554,-0.008634155291172554
640,6.4,0.1506615923103805,-0.5481851833141526,0.036884095778320414,-0.004443665743613085,-0.011460989842834677,-0.011460989842834677
641,6.41,-0.19092559727811487,0.19212989585433274,0.09810499485643025,-0.018576811166944988,-0.0059116459035026886,-0.0059116459035026886
642,6.42,-0.35629427386244483,0.20385793674709812,0.04668084198393781,-0.012292167323924623,-0.0038900948864341632,-0.0038900948864341632
643,6.43,0.008836971481629582,-0.49017871842518945,-0.38907747910587753,-0.003803491830721951,-0.0054526324714203045,-0.0054526324714203045
644,6.44,0.19333614954027284,-0.8145768220923543,-0.5890064464358677,-0.0032543380125621625,-0.004888579258336122,-0.004888579258336122
645,6.45,-0.37798091113319215,0.0285608950975014,0.08684327304533726,-0.004223352837705639,-0.008126367010691065,-0.008126367010691065
646,6.46,-0.5225152585681941,0.8561432357103216,0.42871782623998245,0.006714351321634129,-0.015376170189726084,-0.015376170189726084
647,6.47,0.3200996587929803,0.5205337998300826,0.5457015102418736,0.021517815394312745,-0.008195321762273777,-0.008195321762273777
648,6.48,0.5972761222744414,-0.31104681943338003,0.05081140763847236,0.01257987306166463,-0.006953698894928644,-0.006953698894928644
649,6.49,-0.1586800470327457,-0.3581308564886007,-0.3399397514977681,-0.012459207761588691,-0.0016407402467280413,-0.0016407402467280413
650,6.5,-0.6493801952420413,0.32323807963372997,-0.16838228117407616,-0.018865331086124818,-0.002055087127239125,-0.002055087127239125
651,6.51,-0.008134618290152273,0.5596355406596014,-0.13604631843678738,-0.005017293589783766,-0.007943236704583134,-0.007943236704583134
652,6.52,0.6223671765969797,-0.1683792667874499,0.08930392784895863,0.01898684609068361,-0.002461139691679052,-0.002461139691679052
653,6.53,0.4046233648891874,-0.52681183642794,0.13805166408202546,0.01186897457834888,-0.0013131673188486884,-0.0013131673188486884
654,6.54,-0.2517500072340232,-0.06245908238191783,0.07454071625368515,-0.008034970216018861,-0.0031268319960584138,-0.0031268319960584138
655,6.55,-0.1411365206316917,0.14951158384974833,-0.040885059542720134,-0.023258293376695396,-0.0009296161411023988,-0.0009296161411023988
656,6.56,0.3477552808014852,-0.27177917294996357,-0.07677645300241165,-0.024097547385696846,-0.0009263797338604564,-0.0009263797338604564
657,6.57,0.17607378689068104,-0.3164985830182596,0.0025350447052176622,-0.009110963539175421,-0.004601302100976485,-0.004601302100976485
658,6.58,-0.10256532972180213,0.2554368625354748,0.07804737128815298,0.00842707268754324,-0.0005218052824604155,-0.0005218052824604155
659,6.59,-0.2263215265723715,0.5660678446909181,0.4045590654922627,0.02016099676303408,-0.003082353196137717,-0.003082353196137717
660,6.6,0.09110661117845592,0.068567668020927,0.19968760137160088,0.008265687947462758,-0.006818538259306267,-0.006818538259306267
661,6.61,0.5654389772149058,-0.3453338210014916,0.13996994254717812,-0.01910838485401813,-0.0045294246893367454,-0.0045294246893367454
662,6.62,0.35304344003146854,-0.2017718757832585,-0.07130940131838352,-0.037385320994770495,-0.0049815621665862475,-0.0049815621665862475
663,6.63,-0.2874867554318924,0.08534599401677806,0.015612612872639417,-0.02913314116089851,-0.00844879954686719,-0.00844879954686719
664,6.64,-0.39476142590335717,0.11390789340888016,0.23522671255605032,-0.002611097835726377,-0.009253060810556315,-0.009253060810556315
665,6.65,0.3199955990252413,0.06729838150325976,-0.09417914118379206,0.02170563192489801,-0.010561843441600535,-0.010561843441600535
666,6.66,0.5517365833312182,0.18192222752302917,-0.2129664213234091,0.014421737436864009,-0.00872567292016707,-0.00872567292016707
667,6.67,-0.25120745132818134,0.469325506293803,-0.11448443778721276,-0.010215249673588823,-0.008576250675423268,-0.008576250675423268
668,6.68,-0.6550973863979823,0.29855113856416865,-0.04824706978199706,-0.03280083938421882,-0.01416395267092603,-0.01416395267092603
669,6.69,0.10245548002419849,-0.3397144728678485,0.018716325829857536,-0.03921185899216091,-0.013988447544216385,-0.013988447544216385
670,6.7,0.5277925473445529,-0.6353193262470026,-0.17516852893488005,-0.03000549343878733,-0.014411020437666028,-0.014411020437666028
671,6.71,-0.21730515338074685,-0.41418274703585617,-0.18031043070247338,-0.011418677640528486,-0.011266858399904428,-0.011266858399904428
672,6.72,-0.8656928422118833,-0.0648200268939032,-0.09359637991879481,0.002622985437928691,-0.009855610285666066,-0.009855610285666066
673,6.73,-0.430476052343329,0.1760422103114697,-0.07526327479352268,0.0026169598294571318,-0.008539454533433142,-0.008539454533433142
674,6.74,0.22282165600868442,0.29056668299381233,-0.09733589009671904,-0.0044865641625429905,-0.01034813290403577,-0.01034813290403577
675,6.75,0.18450608705478877,0.09643577778445313,-0.007630593108531869,-0.020260873580550703,-0.009880742510658366,-0.009880742510658366
676,6.76,-0.026772018236787848,-0.23886770861739967,0.027715388791946308,-0.029173447836090043,-0.005103308751018048,-0.005103308751018048
677,6.77,-0.22074737526615967,-0.33458169881947797,-0.046209382044358545,-0.0283473940528292,-0.004106287844586727,-0.004106287844586727
678,6.78,-0.232944623464948,-0.09491237243090123,-0.22446064814100025,-0.011193949808463137,0.002112304529684965,0.002112304529684965
679,6.79,-0.14141917360813466,0.5140273474499024,-0.33345120436971765,0.008694580792768549,0.005208648221957901,0.005208648221957901
680,6.8,-0.05683618253583382,0.8168279629644047,-0.4365917943927695,0.019719464652291543,0.009089406168127959,0.009089406168127959
681,6.81,-0.13401701667798538,0.36009256875315937,-0.033409657609981686,0.011335608914783458,0.0024020682298737245,0.0024020682298737245
682,6.82,-0.07812815462950257,-0.38966748522080885,0.17435555420219156,-0.020107060277659045,0.002466885668706658,0.002466885668706658
683,6.83,0.3910350087906001,-0.5453599560319793,0.25771767431927184,-0.04049621623039566,0.00583346564149499,0.00583346564149499
684,6.84,0.4255670084989888,-0.21273051131854456,0.19152195816114986,-0.036905130153588366,0.006636650524169421,0.006636650524169421
685,6.85,-0.13693968315551056,-0.019262423016301808,0.20389661472862003,-0.0032121644558192053,0.004658777138467156,0.004658777138467156
686,6.86,-0.20291075412178805,-0.15293083121128315,0.268189196813705,0.026673606473543585,0.006676309411052248,0.006676309411052248
687,6.87,0.3579713206484283,-0.3001791095874699,0.2343783643730797,0.020599802158460155,0.0030233966680342853,0.0030233966680342853
688,6.88,0.576198051521257,-0.06455520289238335,0.16788665838929456,-0.002865129616569175,0.004990813918336114,0.004990813918336114
689,6.89,0.18134375590370358,0.33363938835872864,0.30888349249579716,-0.0229960061842249,0.005299540361741957,0.005299540361741957
690,6.9,-0.022506101844775223,0.4134277179676454,0.17957165255573512,-0.01787708180530223,0.005799552629764024,0.005799552629764024
691,6.91,0.1257709921978481,-0.22584446671905808,0.0403715482759148,0.004342913180923885,0.009557741936188014,0.009557741936188014
692,6.92,0.13661234405893213,-0.5929050645509331,-0.12481811502423318,0.015084539933885447,0.0061215328414146435,0.0061215328414146435
693,6.93,-0.16843562852052038,-0.22271963924673008,-0.1136034475171995,0.009568512181799544,0.008216157896291014,0.008216157896291014
694,6.94,-0.04894151231808057,0.3075703273891215,-0.04288725681563332,-0.0015533871894008939,0.005836376729762854,0.005836376729762854
695,6.95,0.09650155534913529,0.3656090713527463,0.11570230855634199,-0.002856729971323452,0.0023615702954107496,0.0023615702954107496
696,6.96,-0.0709472873223875,-0.09444512606418629,0.09586750021244764,-6.724138767260105e-05,0.004817655615212025,0.004817655615212025
697,6.97,-0.08646085995469677,-0.41934963664500036,0.010449161926573601,-0.000882445342208848,0.00921357457095548,0.00921357457095548
698,6.98,0.03458110946723423,-0.12209152594964233,-0.12354899830780983,0.0020397589934921913,0.0019038863607658285,0.0019038863607658285
699,6.99,0.011944828951785356,0.4867246021114465,-0.1921875946820783,0.00890798011067487,-0.001329472398502758,-0.001329472398502758
700,7.0,-0.33127158731584017,0.5097082430707564,0.1866095924360956,0.018370195450399283,0.0010251544099534628,0.0010251544099534628
701,7.01,-0.3620861322068979,0.2275054309497319,0.25934339775074855,0.021300258623519745,-0.0011811521129488664,-0.0011811521129488664
702,7.02,0.3031959278556157,0.08325196536938527,-0.13841539373706566,0.008693713170703221,0.0029836853583852393,0.0029836853583852393
703,7.03,0.5005999942906278,0.15955693867253434,-0.2942482014457319,-0.00533763858949941,0.0013287930516912721,0.0013287930516912721
704,7.04,-0.2832765816968187,0.12462532166561993,-0.40650918321763174,-0.008211600470629712,-0.001207039025457886,-0.001207039025457886
705,7.05,-0.5355849034775166,-0.12120316004748564,-0.054589736110739334,-0.001677134042179191,-0.0005390909845940934,-0.0005390909845940934
706,7.06,0.05612570964349031,-0.2973787774837984,-0.05664780585771613,0.0030253175735364696,-0.002184825927326012,-0.002184825927326012
707,7.07,0.21695911596207748,-0.08363140023949268,-0.3027633551882848,0.007316015588065014,0.002926436481648155,0.002926436481648155
708,7.08,-0.3550552442051994,0.30381937849154794,-0.14252628679609877,0.007838704167096195,0.004352939291823022,0.004352939291823022
709,7.09,-0.3204995685290271,0.2650468846498364,-0.1846999559847726,0.0010814205687659695,-0.0008983702353456526,-0.0008983702353456526
710,7.1,0.40731158758138064,0.02625698471881697,0.005766207658544575,-0.0024587538688332147,-0.0016596482952809554,-0.0016596482952809554
711,7.11,0.40776144929865626,-0.05928889471004899,0.27324187889881585,-0.00336722773781855,0.0012228368638197446,0.0012228368638197446
712,7.12,-0.3680420782939511,0.2031219815902546,0.2640104927395752,-0.0021700605563012942,0.0035991247502637092,0.0035991247502637092
713,7.13,-0.4139714667643842,0.0433871174790611,0.10753623279583255,0.0038170548021371773,0.008291682592252079,0.008291682592252079
714,7.14,0.07632170712296368,-0.3647415001557066,-0.28671710038574894,0.003682427832832515,0.004071488832327447,0.004071488832327447
715,7.15,0.25254154059379474,-0.272783217736414,-0.30222133074919777,-0.0051801377499300525,0.004890070369863716,0.004890070369863716
716,7.16,-0.06303173858275445,-0.2029320066294135,0.1529232626065273,-0.011906932065719751,0.0045606537622349405,0.0045606537622349405
717,7.17,0.05383311282769944,-0.13804547371494752,0.29506580946401606,-0.011522507356625106,0.0023461264962113307,0.0023461264962113307
718,7.18,0.3878027027063019,-0.10504624449585741,0.10101185475594564,0.00048481527494559715,0.006660760240557225,0.006660760240557225
719,7.19,0.16034920532626779,0.1518449157421916,-0.19820596643374408,0.008618612316402385,0.014790403446502997,0.014790403446502997
720,7.2,-0.44788221759447877,0.2307860500934371,-0.1075309595603907,0.015142543547439697,0.009447072841020395,0.009447072841020395
721,7.21,-0.35603408897517336,-0.04334408631774925,0.05285858081775363,0.006273643401879669,0.007479645540427187,0.007479645540427187
722,7.22,0.33961494930432784,-0.3730398363433334,0.14831372379606478,-0.009312081337505095,0.004540852878604651,0.004540852878604651
723,7.23,0.6210332317906688,-0.3126292315562409,0.1976400232715175,-0.02119142079395215,0.006351609919012514,0.006351609919012514
724,7.24,0.15861814870000765,-0.11860089805463685,0.16129257844644118,-0.01151757322102814,0.007543987218747113,0.007543987218747113
725,7.25,-0.371344911087228,-0.03788105057609703,0.3681815890510231,0.005040541428671096,0.012327490557723298,0.012327490557723298
726,7.26,-0.10155523549100812,-0.04191548017062726,0.15058912445290046,0.01996360530067773,0.009240323241978387,0.009240323241978387
727,7.27,0.34468974472253744,0.12803124543035205,-0.05487195542938855,0.008992163062858091,0.015755170587875587,0.015755170587875587
728,7.28,-0.06341237184286433,0.2301614138579435,0.020983924880635635,0.0011571797887763866,0.0144092261973295,0.0144092261973295
729,7.29,-0.3406516472485745,0.08044725923249399,-0.01131002579294187,-0.012546737876387774,0.010615701588260256,0.010615701588260256
730,7.3,0.11886676037029661,-0.1720327371146194,0.003134981878867793,-0.0104716338248536,0.013768262286495277,0.013768262286495277
731,7.31,0.3984625217050076,-0.49444523452687383,-0.19635604077349703,-0.0071920810838212905,0.013171850444565142,0.013171850444565142
732,7.32,-0.22650329655986137,-0.44095186624113764,-0.10199856708151284,-0.0027194778313220144,0.014246093437769287,0.014246093437769287
733,7.33,-0.45967424196355927,0.09822753368149884,-0.01667134640945664,0.0025009746970380197,0.012963657621678951,0.012963657621678951
734,7.34,0.16093954770982868,0.5524568023333306,0.09302419257152539,0.005832325766136563,0.007316909827539056,0.007316909827539056
735,7.35,0.4207728741549528,0.4515801538183414,0.019016550918398625,0.00453067045810346,0.008119212394596516,0.008119212394596516
736,7.36,-0.04976966220000796,-0.2424577158688363,0.12324226796614565,0.002699965713163353,0.009527239831571088,0.009527239831571088
737,7.37,-0.31259922410114904,-0.5100640043965161,-0.031198874306061566,-0.013534346903677687,0.013685359823683355,0.013685359823683355
738,7.38,-0.02698341909702787,0.05463108849782375,-0.2972959446413892,-0.014348921300588622,0.009214701962737841,0.009214701962737841
739,7.39,0.11234640845701657,0.7920481937990771,-0.21301974967446158,0.007996247014346931,0.008153498039813292,0.008153498039813292
740,7.4,-0.21915155573536615,0.7220865899534947,0.025480989027277537,0.03430172530904009,0.009392070485496402,0.009392070485496402
741,7.41,-0.24979200050715694,-0.19102845376235228,0.12628345439108857,0.03087142365884261,0.00658434525118129,0.00658434525118129
742,7.42,0.1543581003553836,-0.5208154674205132,0.03246895574802773,-0.004677045468906547,0.004565072867514701,0.004565072867514701
743,7.43,0.23847272408299144,-0.035396383389237465,-0.2544148188460377,-0.030108441350376526,0.0022436017905359943,0.0022436017905359943
744,7.44,-0.17782268379602936,0.5138904688574203,-0.24236867994727826,-0.023187832720577718,0.003092928461333853,0.003092928461333853
745,7.45,-0.3314844201007486,0.23088507926565757,-0.06335407385478048,0.013168129712634112,0.001918046331994489,0.001918046331994489
746,7.46,0.05694319270116366,-0.280352012873094,-0.07879049617828342,0.032118033386173424,-0.0032119375656208017,-0.0032119375656208017
747,7.47,0.20319954627174375,-0.1853971826739245,-0.012977672122284407,0.021340739932179803,-0.002438804003085261,-0.002438804003085261
748,7.48,-0.014922465127594313,0.15955568256270958,-0.02871600434933269,-0.008365595603806564,-0.0044379964742331576,-0.0044379964742331576
749,7.49,-0.27839488210074426,0.13706346759359964,0.08423841721789861,-0.02408961439594598,-0.005313774647282929,-0.005313774647282929
750,7.5,-0.10802622191148187,-0.1299291110349113,0.11307324827358997,-0.021693249261308386,-0.006873909779016658,-0.006873909779016658
751,7.51,0.21048901195437508,-0.22867574521647968,0.16266956799154642,-0.0004202434942315729,-0.00499841539969588,-0.00499841539969588
752,7.52,0.3210366623461065,-0.1255773843089263,0.035745312364387674,0.017060766926313115,-0.005675635334652373,-0.005675635334652373
753,7.53,-0.03141768082533772,0.04154227921309642,-0.005315942416253376,0.01971830024341191,-0.006251118443007986,-0.006251118443007986
754,7.54,-0.33204979610002905,0.0413014276171466,0.013602583420702278,0.0059250627570986885,-0.004158126359609725,-0.004158126359609725
755,7.55,-0.08964438100981124,0.0989013850805428,-0.023412290164798982,-0.008991394917938291,-0.006710974393794043,-0.006710974393794043
756,7.56,0.291923326145172,0.23681434436017307,0.0038615237622529434,-0.011013208188848805,-0.005632313499854443,-0.005632313499854443
757,7.57,-0.024610893776010903,0.1407644238565917,0.09610806508616962,0.0023942521229129987,-0.005674479966579204,-0.005674479966579204
758,7.58,-0.17814194291937918,-0.07801832369494727,0.10065703404497245,0.01804956398515981,-0.003721670189034942,-0.003721670189034942
759,7.59,0.10473805439880582,-0.010275119589424439,0.12531760798059852,0.012396114335642274,-0.0049329754136381255,-0.0049329754136381255
760,7.6,0.2446293379140522,0.25184692395413,-0.017633638161739705,0.0009154042459579136,-0.0041174594322580145,-0.0041174594322580145
761,7.61,0.024882187140362708,0.0796767438332207,-0.06992382697048614,-0.0057237114296776435,0.0002863608938616091,0.0002863608938616091
762,7.62,-0.1683280702956088,-0.27983704586615216,-0.03442657477941205,-0.009045164735957895,-0.0031125831534193505,-0.0031125831534193505
763,7.63,0.020393686837307953,-0.35281180439476595,-0.0993587531906122,-0.00613803036984656,-0.002781464802290882,-0.002781464802290882
764,7.64,0.1417461848115562,-0.09262692750788412,0.18346824623379837,0.002961252755633401,-0.0017068938995336664,-0.0017068938995336664
765,7.65,0.08947172731142876,0.1580121302018375,0.19726645390169706,0.013061782131734822,-0.0005111890073581193,-0.0005111890073581193
766,7.66,0.12765498200541744,0.12378124018270772,0.23639266441185267,0.012052515270173135,0.004049224173642218,0.004049224173642218
767,7.67,0.15521714342339954,-0.1632104552975029,-0.028070631402734428,0.00032663095558265604,0.0034359248850182635,0.0034359248850182635
768,7.68,0.07498228692991499,-0.20579494225993408,-0.1906424083037856,-0.012615409048810077,0.004274778152750833,0.004274778152750833
769,7.69,-0.06734318591740836,0.054873847082071395,-0.10503787535792093,-0.013585860594189321,0.001583713452764259,0.001583713452764259
770,7.7,0.06787290599736981,0.09217797087146151,-0.050475379522209596,0.003268841472163893,0.0034565461220360484,0.0034565461220360484
771,7.71,0.18765130403609098,0.06123066836144848,0.05511298731579689,0.019838611906067512,0.006196967421787814,0.006196967421787814
772,7.72,0.04708582800862728,-0.049397577706969356,0.08592909581730643,0.02107920721578717,0.008878927180610192,0.008878927180610192
773,7.73,-0.20612213837708454,-0.1295967789247262,0.0540124623529315,0.006603479249892756,0.0077834389182009096,0.0077834389182009096
774,7.74,-0.1591695378915322,-0.14393807010305332,0.04973219319870584,-0.013569277538086764,0.010027843527933018,0.010027843527933018
775,7.75,0.2579990851850087,-0.035605313718666154,-0.12417945679939384,-0.00983045564267444,0.009169084737630107,0.009169084737630107
776,7.76,0.2793806746551442,-0.04050930554840482,-0.11081876158364157,0.008898240756999977,0.011524909752104734,0.011524909752104734
777,7.77,-0.17855045708662942,-0.21481299610410004,-0.1245036934173889,0.02108744623359417,0.013303017294306696,0.013303017294306696
778,7.78,-0.5040640732973549,-0.2755466988298072,-0.059052906263454434,0.02143286472362361,0.013879416156804587,0.013879416156804587
779,7.79,-0.14331411579988146,0.049671088964444554,-0.1569925380458959,0.007773680514453587,0.01188636169256788,0.01188636169256788
780,7.8,0.23349672023715526,0.43020684863673364,-0.09570056350069447,-0.004004098473874333,0.011841217418509714,0.011841217418509714
781,7.81,0.06779362541594151,0.21939002253318235,0.08372117754846403,0.003123377138055849,0.00879299112624073,0.00879299112624073
782,7.82,-0.20731393879904242,-0.38759250330921285,0.26087385534021834,0.005202417131931576,0.007646655015817318,0.007646655015817318
783,7.83,-0.017364001599295284,-0.47296669883270914,0.07936070942326469,0.002336440585968785,0.010882169589914571,0.010882169589914571
784,7.84,0.18911989900508475,0.058422506470237306,-0.2152180360056033,-0.0017122112775183234,0.00989053604150919,0.00989053604150919
785,7.85,-0.12996145158221056,0.41879597069833396,-0.2420023436615374,0.002502639393097952,0.007199788220349781,0.007199788220349781
786,7.86,-0.44677691713327927,-0.017671695947839273,-0.07825055979377893,0.00750993277933898,0.009407643001489337,0.009407643001489337
787,7.87,0.05524191077104512,-0.3715687518156081,0.043039213657794784,-0.001875314209919949,0.007678638042986439,0.007678638042986439
788,7.88,0.1923911218547899,-0.062494083622887345,0.038125066278889216,-0.008250757892747259,0.006698814866357671,0.006698814866357671
789,7.89,-0.32739047178714237,0.4563465976157152,0.03452188252719184,-0.004385446402141054,0.00904894971148339,0.00904894971148339
790,7.9,-0.45482789990959327,0.5527982655850173,0.15436367311122368,0.010718636935344236,0.008171510009923515,0.008171510009923515
791,7.91,0.13764836706760913,0.023551120028802386,-0.08837461073967406,0.013036634692516685,0.006899732209162721,0.006899732209162721
792,7.92,0.3646581248673642,-0.23692151405777073,-0.07751374864594006,0.0001895101929356765,0.007708337044856402,0.007708337044856402
793,7.93,-0.16642229871547695,-0.14423487246860361,-0.1209915220813226,-0.022669755863693,0.0073694209335497035,0.0073694209335497035
794,7.94,-0.4485565767992224,0.1875067726929167,0.008164824649903618,-0.02459010912387989,0.008974773367269621,0.008974773367269621
795,7.95,0.03163055626147332,0.23261572629391122,0.0006328512200061247,-0.005589083161481004,0.004605022871570704,0.004605022871570704
796,7.96,0.4077965703433505,0.04484176370081144,-0.020643264783085473,0.01106531340940884,0.00534552830230535,0.00534552830230535
797,7.97,0.07165583634118845,-0.28953872278886505,0.06310342129802785,0.007384080905455356,0.0062340490899684175,0.0062340490899684175
798,7.98,-0.21739102048867526,-0.07774040944030346,-0.017347863636938625,-0.0061431974438051,0.007413263866479424,0.007413263866479424
799,7.99,-0.0108762304628513,0.3306142057981869,-0.037875316068017244,-0.02109156259814406,0.006647597934761261,0.006647597934761261
800,8.0,0.18838168050663606,0.323650918809908,-0.08100578727313751,-0.0090711691475542,0.007183588792645299,0.007183588792645299
801,8.01,0.07070977015878467,0.17958454413624908,0.038278050724830065,0.009884808858854321,0.0031108984570939885,0.0031108984570939885
802,8.02,0.0008358218104143333,-0.006858848663556072,0.10251661018664258,0.022131610273328398,-0.0005583433802569182,-0.0005583433802569182
803,8.03,0.04052499991406081,0.21559810748711786,0.25419797931816496,0.01065376376239497,-0.0009718971305165688,-0.0009718971305165688
804,8.04,0.23583426643336552,0.2548824998554741,0.18650839904705913,0.0010858708231383934,-0.00013417695666257832,-0.00013417695666257832
805,8.05,0.2605538830644534,-0.022950887180460955,0.24169821442644518,-0.010456441111385868,0.003558965990816775,0.003558965990816775
806,8.06,0.05439714785700406,-0.45840573641458304,0.15114428564741877,-0.010080218997979187,-0.0005502550423974587,-0.0005502550423974587
807,8.07,-0.022473582503226272,-0.42095299735098635,0.037842575010810744,-0.007140073095541218,0.0003564091641415709,0.0003564091641415709
808,8.08,0.20326488233167353,-0.044152571148155795,-0.08768902835428014,0.00762639532724773,-0.0011700895533166527,-0.0011700895533166527
809,8.09,0.21639699017973396,0.22988074664053265,-0.14111587213077875,0.016586749348206087,0.0017572920650338142,0.0017572920650338142
810,8.1,-0.07667178863793618,-0.008580654730073758,-0.016795491256330244,0.015881965160180655,0.0017800147077224747,0.0017800147077224747
811,8.11,-0.08082766229791208,-0.3412285068616222,0.08325677057851585,-0.00606448110082821,0.003401956236976108,0.003401956236976108
812,8.12,0.09858095354852744,-0.3674060459287303,0.028806160167247876,-0.022865298043210847,0.0009791788032511622,0.0009791788032511622
813,8.13,0.16405971164701072,-0.17272056416760184,-0.19716034733116422,-0.019540736831171863,0.004381029443125762,0.004381029443125762
814,8.14,-0.20458084342677316,-0.06796247975929101,0.06143628174671738,0.0011698479665219685,0.0005848338245857659,0.0005848338245857659
815,8.15,-0.04528104800483826,-0.29039987840526577,0.003226992951279317,0.01719782690402331,0.000573901995362937,0.000573901995362937
816,8.16,0.26626086527735143,-0.05662597284650824,0.28914595044020225,0.01600892678560608,-0.00012206341802852429,-0.00012206341802852429
817,8.17,-0.03939157151460779,0.37270662900401397,0.10028570656458917,0.006911312496551818,0.00492894198970715,0.00492894198970715
818,8.18,-0.34145731512035415,0.4167890586352301,-0.07096150877155175,-0.0061716920208051,0.007294342960409025,0.007294342960409025
819,8.19,-0.058994579249082454,-0.11536478834673083,-0.24509931310969096,-0.008801533579860679,0.005472353286891025,0.005472353286891025
820,8.2,0.21486408972799625,-0.3984749818465857,-0.19292722409212165,-0.001774493690780989,0.002819962876977673,0.002819962876977673
821,8.21,-0.01952969259207163,0.07273725556035832,0.04602735299568858,0.0008463786345177329,0.0052654928101407905,0.0052654928101407905
822,8.22,-0.3167361259502929,0.26077324884270936,0.1946278028812623,0.013799537027113434,0.003481441464663084,0.003481441464663084
823,8.23,-0.1845147049088315,0.09731821175198328,-0.016660726561796534,0.0162271574042945,0.007946221879052723,0.007946221879052723
824,8.24,0.09187878438758457,0.05664304602025094,-0.23940762774355523,0.002956135608035473,0.006768951061724022,0.006768951061724022
825,8.25,0.220325604683698,-0.009233540987936766,-0.28631890065125015,-0.013771301458066602,0.007673617339250141,0.007673617339250141
826,8.26,-0.1687125940806339,-0.11882697950028351,0.12197548556316712,-0.02019530596327869,0.0064948314476101065,0.0064948314476101065
827,8.27,-0.20021237806800618,-0.06344299660583368,0.16167629205245782,-0.008485606654197765,0.0075635984124201765,0.0075635984124201765
828,8.28,0.10681645221790405,0.07461563562617213,0.08711666561236803,0.006425957548588168,0.005635689037182109,0.005635689037182109
829,8.29,0.19128751108753758,-0.029274704005340393,-0.26993841859947865,0.009297927269720816,0.007217335465487091,0.007217335465487091
830,8.3,-0.23238332753802515,-0.026016283007378946,-0.15800244901681443,0.002692957125372906,0.00947041698829431,0.00947041698829431
831,8.31,-0.17544887341139628,0.062392296319644235,-0.08424120750650398,-0.012461771600741736,0.004537914942173547,0.004537914942173547
832,8.32,0.08676243475917036,0.23649325842803215,0.11255004732922554,-0.02128763395552373,0.002742409885229927,0.002742409885229927
833,8.33,0.1720491755524324,0.05548392705237313,-0.10527346316324439,-0.007414944725147749,0.003852254152617893,0.003852254152617893
834,8.34,-0.2364204779962628,-0.13234399925470808,0.03928971890332768,0.0074250865091691,0.005620459532890332,0.005620459532890332
835,8.35,-0.22859713792013994,0.08415033343673614,-0.1341041095923689,0.0054090394815113005,0.001080978694218129,0.001080978694218129
836,8.36,0.18202955589366507,0.2657565180965355,-0.04887644659436428,-0.0008141416884031635,0.0005400225703883757,0.0005400225703883757
837,8.37,0.18297463797042113,0.13817801080391176,0.0014727277589904608,-0.006562488114173096,-0.0026673995141610943,-0.0026673995141610943
838,8.38,-0.13604780265314126,-0.01778103452104738,0.07397695123544842,-0.013787891926462743,-0.002830343564592727,-0.002830343564592727
839,8.39,-0.19276281218948021,-0.03975024150556583,0.12734518357916638,-0.015035337187881453,-0.0038954947055990724,-0.0038954947055990724
840,8.4,0.17575924074486615,-0.19445764713370822,-0.1253327252599955,-0.0073318503767707075,-0.0036826519199565618,-0.0036826519199565618
841,8.41,0.07768983052349049,-0.025390535563590926,-0.09445561482067565,2.936996036035852e-05,-0.003570423958657331,-0.003570423958657331
842,8.42,-0.2381294438630929,0.12774618475578092,-0.1608525149169326,0.006926790960618985,-0.00558850924438843,-0.00558850924438843
843,8.43,-0.2660376807925155,0.19692268154201858,-0.06040849493153316,0.00431032986918371,-0.007816122562212627,-0.007816122562212627
844,8.44,0.10075392334738073,0.016458879564463402,-0.00863998166413913,-0.003167426049399797,-0.004926197802927768,-0.004926197802927768
845,8.45,0.26991281420928703,-0.07585058260683394,-0.0005214249985627875,-0.007095085670350052,-0.010298717264142995,-0.010298717264142995
846,8.46,-0.17072354595622133,-0.014693175882655729,0.16514325734971277,-0.004858896993597886,-0.0076410937655004545,-0.0076410937655004545
847,8.47,-0.1881357727269124,0.011985116382576821,0.023602467057277858,0.003140112332313197,-0.011522813987053206,-0.011522813987053206
848,8.48,0.16210405915717574,-0.04822305798627535,0.004188134759918777,0.008621953591527039,-0.007932840292828189,-0.007932840292828189
849,8.49,0.2563118233341861,-0.09029045343808502,0.04155040803224214,0.006774707327133929,-0.013052287213362924,-0.013052287213362924
850,8.5,-0.060705175999223246,-0.24095373433104927,0.22498286004393098,-0.0031905445552721963,-0.01436756754693159,-0.01436756754693159
851,8.51,-0.1118833194868788,-0.3312263076968618,0.22685133446576095,-0.015713149774838658,-0.013403730782419049,-0.013403730782419049
852,8.52,0.07214695943524875,-0.20387222046210668,0.05857282491437778,-0.012121878429938721,-0.01483490185332555,-0.01483490185332555
853,8.53,0.2647487410174009,-0.11028469287565855,-0.08381066544598428,-0.00381054718907013,-0.015909671332289533,-0.015909671332289533
854,8.54,0.08005874240135101,-0.09077342530279953,0.025296844294687253,0.008064381480597502,-0.012294463258946228,-0.012294463258946228
855,8.55,-0.1524877153308214,-0.14471588594897766,0.20606380974566424,0.006545342518555419,-0.013687771661094096,-0.013687771661094096
856,8.56,0.03989550876012181,-0.03875238204504557,0.21296897193930547,-0.004923951324626022,-0.014066807353124471,-0.014066807353124471
857,8.57,0.20689632201798305,0.10699911707754685,0.12066543711326091,-0.015281652269839515,-0.015200280488417296,-0.015200280488417296
858,8.58,-0.021662359192823846,-0.005403380205729065,-0.007498995560760682,-0.01194613007835742,-0.014300253012283062,-0.014300253012283062
859,8.59,-0.12602237350550724,-0.12678442462896664,-0.15329864350288158,-0.002762262832384928,-0.014499148947539706,-0.014499148947539706
860,8.6,0.01879930778844062,0.01421627588899213,0.107307552867117,0.0045216247353069205,-0.013059578452490995,-0.013059578452490995
861,8.61,0.15359970725064104,0.27359464557536,-0.005129767870334742,0.009003389312449938,-0.01038438991481332,-0.01038438991481332
862,8.62,0.03830942349860431,0.34472253479694026,0.13829114586021476,0.011404075804186885,-0.008028785119803587,-0.008028785119803587
863,8.63,-0.04478223178703611,0.17352951125845179,-0.09982756123873485,0.004669625836836087,-0.00715795138546412,-0.00715795138546412
864,8.64,-0.04056330677352217,-0.003553723175650683,-0.1376051862523197,-0.003953924692842629,-0.0067713110806353755,-0.0067713110806353755
865,8.65,0.09295568850481803,-0.029960262788274405,-0.13006792332005046,-0.0044071348286796475,-0.008447138880323784,-0.008447138880323784
866,8.66,0.14774874855988993,0.2503139088048254,0.042860929547008375,0.0012060141088243602,-0.004849680209747465,-0.004849680209747465
867,8.67,0.0002858699831753686,0.578600576177986,0.08183222356302162,0.01907571792321812,-0.008682727304087284,-0.008682727304087284
868,8.68,-0.12346926875463649,0.3245846765309859,0.23949509089782156,0.021801617840751467,-0.008655797506166109,-0.008655797506166109
869,8.69,0.08024832013539937,-0.45531541443650364,0.06279595887993723,0.003934150588934187,-0.007049171629598646,-0.007049171629598646
870,8.7,0.28888943917429616,-0.578378659927506,0.03865997092917417,-0.02551406318844222,-0.008962201025498311,-0.008962201025498311
871,8.71,0.14262229097366855,0.09441591012482227,-0.15485633097410623,-0.03319535871222168,-0.008613459027670214,-0.008613459027670214
872,8.72,-0.16116159188358548,0.5642664255990519,-0.01879069766304732,-0.009139480997606218,-0.005616665913789393,-0.005616665913789393
873,8.73,-0.1151668485465613,0.015907172595025422,-0.017599145191805235,0.025315192928698604,-0.010741758038738529,-0.010741758038738529
874,8.74,0.27146943767469267,-0.6508598575688143,-0.05281497234685217,0.02261748108768973,-0.010614347939079394,-0.010614347939079394
875,8.75,0.2188413453753655,-0.31564133915757814,-0.12599205450753684,-0.012531399782288587,-0.009837105350978077,-0.009837105350978077
876,8.76,-0.22126028500647987,0.45036532117960426,-0.1911215880536272,-0.03135879893052036,-0.010769025283494507,-0.010769025283494507
877,8.77,-0.39552346873036826,0.4833577796394787,-0.13920415759803234,-0.0194146675986235,-0.010952820567498023,-0.010952820567498023
878,8.78,0.011312131964959699,-0.1646870197311553,-0.2635690547920586,0.0057017992003584005,-0.011205751586012577,-0.011205751586012577
879,8.79,0.13569927493850897,-0.44793327637214336,-0.16765804676096813,0.01709763618910981,-0.011404452014383957,-0.011404452014383957
880,8.8,-0.08866458101803625,-0.10633912977206314,-0.08525498177122572,0.007708328556555449,-0.014504951489520516,-0.014504951489520516
881,8.81,-0.28975675716989013,0.3916258571848492,0.092076076563235,-0.00295763939738802,-0.014616885506752744,-0.014616885506752744
882,8.82,-0.07080610712056096,0.362288004606036,-0.0795847076483669,-0.007936907663220244,-0.013357874562090605,-0.013357874562090605
883,8.83,0.08551066161560897,-0.07995383802326238,-0.19065085488026629,-0.003076467572948871,-0.0112541493459539,-0.0112541493459539
884,8.84,-0.20157985027064515,-0.28288765851243347,-0.156536345602067,-0.0012645025751089726,-0.016378447914006503,-0.016378447914006503
885,8.85,-0.4318642452991815,-0.18401220207099903,0.0757086884978495,0.005577982592502436,-0.0170830630832356,-0.0170830630832356
886,8.86,-0.04778987115851498,-0.08048876324512683,0.1378319496139447,0.00484630788722392,-0.017760060635026498,-0.017760060635026498
887,8.87,0.22869320415683245,-0.12338716403678993,0.04228185238689747,0.0004050890310393863,-0.013252679033158334,-0.013252679033158334
888,8.88,-0.2299310493881756,0.026804655366955893,-0.12441121813088458,-0.0034115100232609565,-0.014648108799146716,-0.014648108799146716
889,8.89,-0.4083408080397146,0.1544757471945109,-0.10319071220927273,-0.006799297308879234,-0.012428267725108886,-0.012428267725108886
890,8.9,0.10492223006869597,-0.16993951886677142,-0.012077158323365922,-0.001963646170134707,-0.016203568189324915,-0.016203568189324915
891,8.91,0.22023116804893275,-0.5634962585655112,0.21650611266817632,-0.009130387810133964,-0.01442867602288276,-0.01442867602288276
892,8.92,-0.2770688538769389,-0.3058644883177626,0.19595922328129234,-0.014602573302329516,-0.010600651352530795,-0.010600651352530795
893,8.93,-0.26291728404133385,0.26149305094876457,0.057787373716016346,-0.008213735340680584,-0.00899712766031416,-0.00899712766031416
894,8.94,0.22652042752043933,0.4660888376634505,-0.16895420063000927,0.004501266655328464,-0.0132685030014658,-0.0132685030014658
895,8.95,0.22480943638015813,0.03405751774291295,-0.031987887113119104,0.010420500238207332,-0.01303194517015982,-0.01303194517015982
896,8.96,0.01330395996269279,-0.39560136550634073,0.16507345166527312,-0.0013802776722150276,-0.011600460743729191,-0.011600460743729191
897,8.97,-0.10171131537999742,-0.19955285109732926,0.27848251319818973,-0.01757550381245815,-0.0076444444685204406,-0.0076444444685204406
898,8.98,0.12904865550551695,0.24940022163301973,0.07961200420078157,-0.02014558816779592,-0.006721417964924548,-0.006721417964924548
