,ts,ax,ay,az,wx,wy,wz
0,0.0,-0.038123000000000004,-0.001088,0.019926,0.007736,-0.030608999999999997,0.005936
1,0.01,-0.047628,-0.0067480000000000005,0.017821,0.009872,-0.028488,0.002731
2,0.02,-0.045441,-0.013147999999999998,0.039042,0.009872,-0.030608999999999997,0.002731
3,0.03,-0.032131,0.007294,-0.007369,0.010941,-0.030608999999999997,-0.0004580000000000001
4,0.04,-0.045542,-0.018692,0.011807,0.010941,-0.032744999999999996,0.000595
5,0.05,-0.03481,-0.0011059999999999991,0.024083,0.010941,-0.032744999999999996,-0.0004580000000000001
6,0.06,-0.05627000000000001,0.012686,0.054409000000000006,0.009872,-0.033813,0.000595
7,0.07,-0.020030000000000003,0.023273,0.036147000000000006,0.009872,-0.032744999999999996,-0.0004580000000000001
8,0.08,-0.006604,0.0037979999999999993,0.011951999999999999,0.010941,-0.02742,-0.001526
9,0.09,-0.034063,0.007991,0.0007340000000000003,0.008804000000000001,-0.023148,-0.003662
10,0.1,-0.039119,-0.012821,-0.004124,0.006668,-0.019958,-0.0004580000000000001
11,0.11,-0.0021730000000000013,-0.004617999999999997,-0.026733,0.005615,-0.014633000000000002,0.000595
12,0.12,-0.016085,0.008256,-0.003973000000000001,0.005615,-0.012497,0.000595
13,0.13,-0.006412999999999999,-0.047475,0.003302,0.003479,-0.009308,0.000595
14,0.14,-0.013721,-0.024071000000000002,0.011603,0.007736,-0.0071719999999999996,0.0037990000000000003
15,0.15,-0.030889,-0.029673000000000005,-0.013738999999999994,0.005615,-0.0071719999999999996,0.0037990000000000003
16,0.16,-0.002657,-0.062186,0.009676,0.005615,-0.00824,0.008057
17,0.17,-0.004902999999999999,-0.007658,0.005647999999999999,0.004547,-0.010376,0.005936
18,0.18,-0.0048259999999999996,-0.011868,0.018595,0.001343,-0.011444,0.008057
19,0.19,0.027392000000000003,0.019624000000000003,0.065072,0.003479,-0.012497,0.002731
20,0.2,-0.028553,0.030657999999999998,0.041245,0.004547,-0.013565,0.008057
21,0.21,0.012601,0.070259,0.057323,0.004547,-0.016769,0.010193
22,0.22,0.009028,0.025187,0.036476,0.007736,-0.01889,0.013382
23,0.23,0.024277,0.043695,0.040201,0.009872,-0.022095,0.016586
24,0.24,0.048542,0.036565,0.009230000000000002,0.014130000000000002,-0.024215999999999998,0.01445
25,0.25,0.07949099999999999,-0.012314,-0.015962999999999998,0.014130000000000002,-0.024215999999999998,0.010193
26,0.26,0.024936,-0.022639,-0.073189,0.013062,-0.02742,0.0037990000000000003
27,0.27,0.0008849999999999969,-0.015146000000000001,-0.032624,0.010941,-0.029541,-0.0004579999999999997
28,0.28,0.034431,-0.025421,-0.0018689999999999991,0.008804000000000001,-0.023148,-0.000458
29,0.29,-0.0056589999999999965,0.000621,-0.00012599999999999938,0.008804000000000001,-0.026351999999999997,0.000595
30,0.3,-0.026733,-0.020524,0.013183000000000002,0.013062,-0.022095,0.0037990000000000003
31,0.31,-0.016492,-0.002975,0.030033999999999998,0.013062,-0.025284,0.0037990000000000003
32,0.32,-0.052953,-0.009684,0.027686000000000002,0.017319,-0.021027,0.005936
33,0.33,-0.052660000000000005,-0.010341000000000005,0.014028,0.019455,-0.017822,0.005936
34,0.34,-0.034417,-0.033912,-0.003631,0.014130000000000002,-0.009308,0.005936
35,0.35,-0.047813999999999995,-0.016775,-0.028288999999999998,0.009872,-0.0018460000000000004,0.0037990000000000003
36,0.36,-0.015397,0.017887,-0.040285,0.004547,0.004547,0.004868
37,0.37,-0.00015300000000000036,0.004612,-0.042472,-0.000778,0.010941,0.002731
38,0.38,-0.0051979999999999995,9.999999999999593e-05,-0.022034,-0.0039829999999999996,0.016266,0.001663
39,0.39,0.009379000000000005,-0.014203,0.012512999999999998,-0.002914,0.018387,0.002731
40,0.4,0.018257,0.000691,-0.002525,-0.002914,0.018387,0.002731
41,0.41,0.046369,-0.036135,-0.018378,-0.000778,0.016266,0.004868
42,0.42,0.045593,-0.01417,0.014844,-0.000778,0.010941,0.002731
43,0.43,0.057065,-0.004504,0.02241,0.00027500000000000007,0.004547,0.002731
44,0.44,0.05608200000000001,0.018733,0.014296000000000001,-0.001846,-0.0029140000000000004,0.000595
45,0.45,0.020238,0.032854,0.024165,0.001343,-0.006104,0.000595
46,0.46,0.050987,0.019949,0.035176,0.003479,-0.009308,0.0037990000000000003
47,0.47,-0.002787000000000005,0.007861,0.02324,0.003479,-0.00824,0.006989
48,0.48,-0.0050149999999999995,0.00843,-0.0016879999999999985,0.005615,-0.010376,0.0037990000000000003
49,0.49,-0.010643000000000001,0.010273999999999998,0.017135,0.007736,-0.00824,0.005936
50,0.5,-0.031249000000000002,0.0036609999999999998,-0.014846000000000002,0.006668,-0.00824,0.001663
51,0.51,-0.019828,-0.002777,-0.010720999999999998,0.008804000000000001,-0.010376,0.004868
52,0.52,-0.029241000000000007,0.003117,-0.038556,0.005615,-0.013565,0.004868
53,0.53,-0.035166,0.023118,-0.014127,0.003479,-0.011444,0.006989
54,0.54,-0.01335,0.031823000000000004,-0.010118,0.006668,-0.011444,0.006989
55,0.55,-0.019611,-0.009821000000000005,-0.017929,0.004547,-0.0071719999999999996,0.005936
56,0.56,-0.011975,-0.01957,-0.042446,0.009872,-0.00824,0.006989
57,0.57,0.012748,0.023972999999999998,-0.048237999999999996,0.006668,-0.009308,0.010193
58,0.58,0.009720999999999999,0.048474,-0.012041,0.006668,-0.0018460000000000004,0.011261
59,0.59,0.043568,0.023474000000000002,-0.044272000000000006,0.007736,-0.001846,0.008057
60,0.6,0.045681,-0.027218,0.007790000000000001,0.006668,-0.005051,0.005936
61,0.61,0.059809,-0.022124,-0.032050999999999996,0.007736,-0.0039829999999999996,0.004868
62,0.62,0.006352,-0.005745000000000001,0.020437,0.005615,-0.0039829999999999996,0.000595
63,0.63,-0.02698,-0.016637,0.008904,0.006668,-0.006104,0.001663
64,0.64,-0.018305000000000002,0.007494999999999998,0.00032499999999999977,0.004547,-0.0039829999999999996,0.000595
65,0.65,-0.037605,-0.0012049999999999975,0.020791999999999998,0.004547,-0.0039829999999999996,0.002731
66,0.66,-0.040179,-0.027716,-0.011567999999999995,0.010941,0.00027500000000000007,0.0037990000000000003
67,0.67,-0.030579000000000002,-0.0031780000000000003,-0.041468,0.008804000000000001,0.001343,0.0037990000000000003
68,0.68,0.00159,0.001638,-0.029278,0.008804000000000001,0.002411,0.008057
69,0.69,0.0008940000000000008,-0.016078,-0.039616000000000005,0.004547,0.007736,0.008057
70,0.7,0.036911,-0.008209000000000001,-0.013408000000000002,0.006668,0.008804000000000001,0.008057
71,0.71,0.040287,0.011337999999999999,-0.04537,0.001343,0.007736,0.006989
72,0.72,0.036607,0.0022070000000000006,0.013780000000000002,0.005615,0.005615,0.005936
73,0.73,0.021818,-0.015078999999999999,-0.012281,0.005615,0.006668,0.005936
74,0.74,-0.015976,0.014198,0.009533,0.005615,0.004547,0.005936
75,0.75,-0.027895,0.000965,0.03443,0.003479,0.002411,0.006989
76,0.76,-0.022491999999999998,0.028234,0.028472000000000004,0.005615,-0.000778,0.0037990000000000003
77,0.77,-0.032603,0.021764,0.018383,0.005615,-0.001846,0.004868
78,0.78,-0.008372,0.013652000000000001,-0.004299999999999997,0.004547,0.00027500000000000007,0.005936
79,0.79,0.021446,-0.004083,0.024791999999999998,0.006668,0.001343,0.0037990000000000003
80,0.8,0.015306,0.010978000000000002,0.022561,0.006668,0.000275,-0.0004580000000000001
81,0.81,0.033757,-0.012364000000000005,0.016635,0.003479,0.001343,-0.007918999999999999
82,0.82,0.011749,-0.074046,-0.011761,0.004547,-0.0018459999999999991,-0.012177
83,0.83,0.002726000000000001,-0.05722000000000001,-0.037742000000000005,0.003479,-0.000778,-0.010056
84,0.84,-0.04782,-0.039267,-0.018432,-0.006104,-0.002914,-0.007918999999999999
85,0.85,-0.013269000000000005,0.015183999999999996,0.051538,-0.0071719999999999996,0.002411,-0.00473
86,0.86,-0.030227999999999998,-0.011132,0.0024729999999999995,-0.0039829999999999996,0.003479,-0.005783
87,0.87,-0.045513,-0.0010380000000000007,0.003493,-0.000778,0.007736,-0.003662
88,0.88,0.005860000000000001,-0.012734,-0.047077,0.001343,0.010941,-0.005783
89,0.89,-0.019446,-0.0070220000000000005,-0.061654999999999995,0.001343,0.013062,-0.002594
90,0.9,0.007360000000000002,-0.008625,-0.053399,-0.000778,0.016266,-0.001526
91,0.91,0.014466,0.0027010000000000003,-0.03255,-0.001846,0.016266,-0.00473
92,0.92,0.018493,-0.004553999999999999,0.0060209999999999994,-0.002914,0.021591,-0.006851
93,0.93,0.035128,-0.002797000000000002,0.03159,-0.002914,0.022659000000000002,-0.003662
94,0.94,0.009820000000000002,-0.003327,0.030077999999999997,-0.001846,0.022659000000000002,-0.005783
95,0.95,0.038803,-0.014962999999999999,0.019613,-0.000778,0.021591,-0.00473
96,0.96,0.046624,-0.018921,0.015285000000000003,-0.002914,0.02478,-0.00473
97,0.97,0.048504000000000005,-0.040624,0.0027440000000000034,-0.0039829999999999996,0.025848000000000003,-0.005783
98,0.98,0.052619000000000006,-0.036002,0.031395,-0.0071719999999999996,0.025848000000000003,-0.006851
99,0.99,0.040856,0.010683,0.035693,-0.00824,0.02478,-0.006851
100,1.0,0.06540900000000001,-0.003654000000000001,0.014981999999999999,-0.00824,0.023712,-0.007918999999999999
101,1.01,0.055994,-0.008989,-0.005000999999999999,-0.009308,0.022659000000000002,-0.007918999999999999
102,1.02,0.044999000000000004,0.037374,0.018097,-0.00824,0.018387,-0.007918999999999999
103,1.03,0.030991,0.032683,0.019733,-0.0071719999999999996,0.019455,-0.00473
104,1.04,0.026435000000000004,0.025792000000000002,0.002465000000000002,-0.0039829999999999996,0.017319,-0.006851
105,1.05,0.060089,0.02773,-0.007568000000000001,-0.001846,0.017319,-0.007918999999999999
106,1.06,0.042607,0.015525,0.013999999999999999,0.001343,0.010941,-0.006851
107,1.07,-0.004852000000000002,0.015328,-0.005724999999999999,0.001343,0.004547000000000001,-0.008987
108,1.08,-0.012756,-0.026019,-0.0016550000000000002,-0.005051,-0.0018460000000000004,-0.010056
109,1.09,-0.044000000000000004,-0.046525,0.050318,-0.006104,-0.0071719999999999996,-0.011124
110,1.1,-0.076407,-0.060575,0.0005679999999999992,-0.00824,-0.010376,-0.010056
111,1.11,-0.073827,0.010206999999999994,0.07117000000000001,-0.009308,-0.012497,-0.007918999999999999
112,1.12,-0.072767,-0.023146000000000003,0.031221,-0.00824,-0.009308,-0.007918999999999999
113,1.13,-0.039886000000000005,-0.019243,-0.004824,-0.0071719999999999996,-0.0039829999999999996,-0.007918999999999999
114,1.14,-0.050927999999999994,0.024867,-0.01703,-0.005051,0.00027500000000000007,-0.007918999999999999
115,1.15,-0.013834,0.054674,-0.026062000000000002,-0.00824,0.001343,-0.008987
116,1.16,-0.06669299999999999,0.071562,0.00010699999999999946,-0.00824,0.006668,-0.005783
117,1.17,-0.094206,0.049514999999999997,0.007129999999999998,-0.00824,0.008804000000000001,-0.00473
118,1.18,-0.062450999999999986,0.069963,-0.003702,-0.005051,0.013062,-0.001526
119,1.19,-0.045646,0.04582,0.034645999999999996,-0.000778,0.011993,0.002731
120,1.2,-0.005983999999999996,-0.012965000000000004,0.001559,0.004547,0.014130000000000002,-0.0004580000000000001
121,1.21,0.007697,-0.055903,-0.030751999999999998,0.006668,0.013062,-0.003662
122,1.22,0.036733999999999996,-0.040154,-0.10494,0.002411,0.016266,-0.013244999999999998
123,1.23,0.006757999999999997,-0.065823,-0.077622,-0.001846,0.019455,-0.020706
124,1.24,0.011757,-0.028898999999999994,-0.068565,-0.006104,0.02478,-0.0271
125,1.25,-0.074641,-0.103352,-0.029923000000000005,-0.011444,0.032242,-0.029220999999999997
126,1.26,-0.070082,-0.016362999999999996,0.005939000000000003,-0.013565,0.045029,-0.034546
127,1.27,-0.125701,-0.09517,-0.0033580000000000003,-0.014633000000000002,0.055679,-0.031356999999999996
128,1.28,-0.08023200000000001,-0.044864999999999995,-0.00030399999999999866,-0.013565,0.06633,-0.0271
129,1.29,-0.077662,-0.060128999999999995,-0.060229999999999985,-0.013565,0.071655,-0.021774
130,1.3,-0.007074999999999999,-0.037905,-0.068891,-0.015701,0.07804900000000001,-0.016449000000000002
131,1.31,0.05368099999999999,-0.035028,-0.040598,-0.022095,0.085495,-0.014313
132,1.32,0.10548800000000001,-0.007532,-0.052325,-0.024215999999999998,0.086563,-0.012177
133,1.33,0.11856900000000001,0.014309000000000002,-0.040647,-0.025284,0.08444199999999999,-0.014313
134,1.34,0.149642,0.028589999999999997,-0.007696,-0.02742,0.083374,-0.013244999999999998
135,1.35,0.1692,0.010208,0.03478400000000001,-0.024215999999999998,0.08017,-0.014313
136,1.36,0.160242,0.02752,0.069941,-0.019958,0.07591200000000001,-0.014313
137,1.37,0.160822,-0.016862000000000002,0.029493000000000002,-0.015701,0.071655,-0.015381
138,1.38,0.160648,0.044883000000000006,0.047406000000000004,-0.013565,0.063126,-0.016449000000000002
139,1.39,0.12151500000000001,0.012258,0.026074999999999997,-0.013565,0.056747000000000006,-0.015381
140,1.4,0.106452,0.014987,0.030587,-0.014633000000000002,0.049286,-0.012177
141,1.41,0.09173300000000001,0.019328,0.077213,-0.011444,0.043961,-0.005783
142,1.42,0.072813,0.010043999999999999,0.030368,-0.012497,0.039702999999999995,-0.001526
143,1.43,0.07045,0.009023000000000002,0.035157,-0.010376,0.03331,0.002731
144,1.44,0.069754,-0.011857,-0.001975,-0.010376,0.027985000000000003,0.0037990000000000003
145,1.45,0.049929,-0.027149,0.008666,-0.010376,0.02478,0.005936
146,1.46,0.060204999999999995,-0.002735,0.011546000000000004,-0.012497,0.019455,0.002731
147,1.47,0.05563200000000001,-0.0034370000000000013,0.015954000000000003,-0.014633000000000002,0.016266,0.004868
148,1.48,0.024361,-0.002589000000000001,0.020294,-0.013565,0.014130000000000002,0.004868
149,1.49,0.026997000000000004,0.026757,0.006562,-0.012497,0.011993,0.004868
150,1.5,0.010483,0.044544,0.037392,-0.00824,0.009872,0.0016629999999999993
151,1.51,-0.014838,0.02114,0.008447,-0.0071719999999999996,0.007736,0.000595
152,1.52,0.004132,0.036197,0.031014,-0.006104,0.008804000000000001,-0.000458
153,1.53,-0.018973,0.007550000000000001,0.026322,-0.006104,0.007736,0.000595
154,1.54,-0.028229,0.006783,0.027804000000000002,-0.005051,0.010941,0.001663
155,1.55,-0.039886000000000005,0.029039999999999996,0.046161,-0.002914,0.013062,0.000595
156,1.56,-0.035599,0.035005,0.004649,-0.001846,0.011993,0.0037990000000000003
157,1.57,-0.050695,0.0076799999999999985,0.004601999999999995,-0.002914,0.009872,0.0037990000000000003
158,1.58,-0.020806,0.001181999999999999,-0.018849,-0.0039829999999999996,0.009872,0.0037990000000000003
159,1.59,-0.025943,-0.002509,0.018461,-0.0039829999999999996,0.009872,0.005936
160,1.6,-0.0020100000000000014,0.037528,0.002435,-0.005051,0.009872,0.006989
161,1.61,0.008695999999999999,0.020203,0.009527,-0.006104,0.008804000000000001,0.002731
162,1.62,0.022872,0.037579,0.043762,-0.005051,0.010941,0.002731
163,1.63,0.023341999999999998,-0.010962,0.016035,-0.006104,0.009872,0.001663
164,1.64,0.02695,-0.023402000000000003,0.017381999999999998,-0.0071719999999999996,0.004547,0.000595
165,1.65,-0.012946000000000001,-0.0016229999999999994,0.01937,-0.006104,0.003479,-0.002594
166,1.66,-0.029935,-0.013553,0.04824,-0.006104,0.00027500000000000007,-0.001526
167,1.67,-0.037372,0.018553999999999998,0.035357,-0.0039829999999999996,0.002411,-0.003662
168,1.68,-0.036277,0.00468,-0.00023700000000000023,-0.001846,0.00027500000000000007,-0.001526
169,1.69,-0.031228,0.010645000000000002,-0.003965000000000001,-0.001846,0.00027500000000000007,-0.003662
170,1.7,-0.047024,0.008721,-0.025948000000000002,-0.001846,0.00027500000000000007,-0.001526
171,1.71,-0.028161000000000002,0.019898,-0.059572,-0.002914,0.001343,-0.002594
172,1.72,-0.00017700000000000007,0.002426,-0.043014,-0.005051,0.003479,-0.00473
173,1.73,-0.008794999999999997,-0.0022089999999999987,-0.051832,-0.001846,0.006668,-0.005783
174,1.74,0.013715999999999999,0.015022,-0.019072,-0.0071719999999999996,0.008804000000000001,-0.00473
175,1.75,-0.018227,0.007055,-0.05931,-0.00824,0.010941,-0.003662
176,1.76,0.03277,0.008588,-0.010033,-0.0071719999999999996,0.013062,-0.001526
177,1.77,0.039073000000000004,0.025552000000000002,-0.005956999999999997,-0.006104,0.011993,-0.003662
178,1.78,0.038585,0.010227,0.009733,-0.005051,0.010941,-0.002594
179,1.79,0.079888,0.010111,0.028912,-0.0039829999999999996,0.007736,-0.001526
180,1.8,0.069073,-0.008434,0.02205,-0.0039829999999999996,0.001343,0.000595
181,1.81,0.039481999999999996,-0.013121,0.025526,-0.001846,-0.0039829999999999996,-0.000458
182,1.82,0.026758999999999998,-0.012762000000000004,0.036242,-0.000778,-0.011444,-0.0004580000000000001
183,1.83,0.020591,0.026897000000000004,-0.01082000000000001,0.000275,-0.015701,-0.002594
184,1.84,-0.014869,-0.015438999999999996,0.029633999999999997,0.003479,-0.01889,-0.000458
185,1.85,-0.019665000000000002,0.0022850000000000023,0.033119,0.005615,-0.024215999999999998,-0.001526
186,1.86,-0.00954,0.007028,0.0003820000000000004,0.004547,-0.028488,0.001663
187,1.87,-0.023712,0.011065,-0.0005420000000000008,0.005615,-0.030608999999999997,-0.0004580000000000001
188,1.88,-0.02075,-0.035283,-0.024303,0.009872,-0.029541,0.004868
189,1.89,0.001021000000000001,0.001347000000000001,-0.014563999999999999,0.006668,-0.02742,0.0037990000000000003
190,1.9,-0.0034510000000000014,-0.0033619999999999995,-0.028852,0.007736,-0.02742,0.001663
191,1.91,-0.025351,0.004140999999999995,-0.021726,0.004547,-0.025284,0.002731
192,1.92,-0.009626000000000001,0.011219,-0.029952,0.004547,-0.019958,0.001663
193,1.93,0.007823,0.012225,-0.019463999999999995,0.004547,-0.022095,0.000595
194,1.94,0.05198200000000001,0.011955,0.015535,-0.000778,-0.019958,0.000595
195,1.95,0.021435,-0.033136,0.018067,-0.000778,-0.022095,-0.000458
196,1.96,0.008783,-0.0048,-0.009806,0.001343,-0.022095,0.001663
197,1.97,0.021947,-0.017383000000000003,0.036437,0.002411,-0.022095,0.000595
198,1.98,0.059488,-0.016395,-0.0174,0.003479,-0.029541,0.0037990000000000003
199,1.99,0.047931,-0.0058850000000000005,-0.008098000000000001,0.006668,-0.032744999999999996,0.001663
200,2.0,0.038909,-0.010088000000000008,-0.018364,0.007736,-0.035934,-0.00473
201,2.01,-0.02103,0.035626,0.013080999999999995,0.008804000000000001,-0.039139,-0.00473
202,2.02,-0.062348,0.051753999999999994,0.038662,0.006668,-0.047652999999999994,-0.001526
203,2.03,-0.071398,0.052305,0.058074,0.010941,-0.045531999999999996,0.004868
204,2.04,-0.092284,0.009609999999999999,0.032497000000000005,0.014130000000000002,-0.047652999999999994,0.010193
205,2.05,-0.083785,0.015361000000000001,0.02339,0.015198,-0.046585,0.008057
206,2.06,-0.082467,-0.016531999999999998,-0.021929,0.017319,-0.044464,0.005936
207,2.07,-0.082429,-0.039830000000000004,-0.075323,0.015198,-0.041260000000000005,0.000595
208,2.08,-0.073799,-0.009945,-0.061215999999999986,0.010941,-0.040192,-0.003662
209,2.09,-0.065807,-0.01431,-0.045281,0.004547,-0.035934,-0.003662
210,2.1,-0.035437,0.020743,-0.0004200000000000001,0.001343,-0.031677,-0.003662
211,2.11,-0.037086,0.005185,0.042475,0.00027500000000000007,-0.021027,-0.003662
212,2.12,-0.059494000000000005,-0.049944999999999996,0.023926,0.001343,-0.016769,-0.002594
213,2.13,-0.078236,-0.035183,0.006371000000000004,0.003479,-0.010376,-0.003662
214,2.14,-0.038193,-0.028651,0.014768999999999997,0.001343,-0.006104,-0.001526
215,2.15,-0.042631999999999996,-0.02925,0.007176000000000002,0.002411,0.00027500000000000007,-0.002594
216,2.16,-0.026881,-0.017516,-0.017679,0.000275,0.00027500000000000007,-0.002594
217,2.17,-0.028666000000000004,-0.012394,-0.042163,0.00027500000000000007,0.003479,-0.0004580000000000001
218,2.18,-0.037501,-0.015724000000000002,-0.022068,-0.001846,0.007736,-0.001526
219,2.19,-0.033195999999999996,0.009231,-0.001517000000000001,0.00027500000000000007,0.007736,-0.0004580000000000001
220,2.2,-0.0045749999999999975,0.000281,0.0032909999999999997,0.00027500000000000007,0.010941,0.000595
221,2.21,0.020276,0.003295,0.0050420000000000005,0.000275,0.013062,0.000595
222,2.22,0.019808000000000003,-0.017950999999999998,-0.008787,0.002411,0.011993,-0.001526
223,2.23,0.007525999999999999,-0.01113,0.013828000000000007,0.001343,0.011993,-0.002594
224,2.24,0.023375,0.012165,-0.015378999999999999,-0.0039829999999999996,0.010941,-0.008987
225,2.25,0.049324,-0.012844,0.012906,-0.0071719999999999996,0.009872,-0.005783
226,2.26,0.005497000000000003,0.028251,0.045108999999999996,-0.00824,0.007736,-0.002594
227,2.27,0.0372,0.031205,0.052587,-0.00824,0.008804000000000001,-0.0004580000000000001
228,2.28,0.047501999999999996,0.054873000000000005,0.06771100000000001,-0.0071719999999999996,0.006668,0.002731
229,2.29,0.039711,0.026554,0.056624,-0.001846,0.005615,0.004868
230,2.3,0.033847,0.03447,0.032191000000000004,0.004547,-0.001846,0.0037990000000000003
231,2.31,0.039869999999999996,0.003979999999999999,0.033326,0.007736,-0.006104,0.004868
232,2.32,0.013235,-0.0038229999999999996,-0.014511000000000003,0.009872,-0.011444,0.001663
233,2.33,-0.008927,-0.017671,-0.040538,0.010941,-0.012497,0.002731
234,2.34,-0.031947,-0.046518000000000004,-0.067058,0.004547,-0.012497,0.002731
235,2.35,-0.046334,-0.022746000000000002,-0.034492,0.001343,-0.011444,0.002731
236,2.36,-0.051562000000000004,-0.053640999999999994,-0.019788999999999998,-0.000778,-0.009308,0.001663
237,2.37,-0.071742,-0.015663,-0.005761,-0.002914,-0.005051,0.002731
238,2.38,-0.039403,-0.001125000000000001,0.0019559999999999994,-0.001846,0.0013430000000000007,0.000595
239,2.39,-0.025647000000000003,-0.0005549999999999999,-0.017408,-0.0039829999999999996,0.001343,0.005936
240,2.4,-0.0008529999999999996,0.024651,0.00045599999999999997,-0.0029140000000000004,0.004547,0.005936
241,2.41,0.010901000000000001,0.020622,-0.029082,-0.001846,0.004547,0.008057
242,2.42,0.022512,-0.011127,-0.007167,0.000275,0.003479,0.005936
243,2.43,0.028195000000000005,0.011455,0.004718,0.001343,0.00027500000000000007,0.005936
244,2.44,-0.015094000000000003,0.008189,-0.014063999999999998,0.00027500000000000007,-0.0029140000000000004,0.009125
245,2.45,-0.005712,0.017891999999999998,0.009216999999999998,-0.000778,-0.002914,0.009125
246,2.46,0.012283,0.032876,-0.012951,0.000275,-0.005051,0.010193
247,2.47,-0.007245999999999998,0.028827999999999996,-0.008131000000000001,0.000275,-0.009308,0.012314
248,2.48,0.063157,-0.027463,-0.0044420000000000015,-0.0039829999999999996,-0.005051,0.006989
249,2.49,-0.023772,0.006086000000000001,-0.050249,-0.000778,-0.005051,0.0037990000000000003
250,2.5,0.010162000000000001,0.0013950000000000006,-0.016531000000000004,-0.002914,-0.014633000000000002,0.011261
251,2.51,0.036149,-0.01641,-0.055359000000000005,-0.005051,-0.013565,0.010193
252,2.52,0.032684,-0.022959999999999998,0.009097,-0.0071719999999999996,-0.017822,0.012314
253,2.53,0.046193,-0.024649,-0.006250000000000002,-0.006104,-0.01889,0.009125
254,2.54,0.086765,-0.030951,-0.0008769999999999977,-0.005051,-0.025284,0.010193
255,2.55,0.048992,-0.013911000000000001,0.013983,-0.001846,-0.032744999999999996,0.008057
256,2.56,0.061337,-0.023903,0.008806,0.002411,-0.038071,0.006989
257,2.57,-0.01830600000000001,0.0037100000000000006,0.000808,0.009872,-0.042328,0.006989
258,2.58,-0.085496,0.018628,0.030372000000000003,0.009872,-0.045531999999999996,0.000595
259,2.59,-0.110752,-0.041902999999999996,0.02531,0.016266,-0.045531999999999996,0.001663
260,2.6,-0.14865599999999998,-0.016306,-0.028738000000000007,0.014130000000000002,-0.044464,0.002731
261,2.61,-0.154173,-0.004483000000000001,-0.052209000000000005,0.015198,-0.042328,0.001663
262,2.62,-0.15136,-0.004025000000000001,-0.091063,0.013062,-0.038071,0.000595
263,2.63,-0.146815,-0.004493,-0.092403,0.009872,-0.033813,0.004868
264,2.64,-0.134231,0.036093,-0.064154,0.004547,-0.029541,0.008057
265,2.65,-0.109008,0.015359999999999999,-0.048386,0.00027500000000000007,-0.021027,0.011261
266,2.66,-0.10398099999999999,0.043306,-0.053745,-0.000778,-0.010376,0.013382
267,2.67,-0.040122999999999985,0.017043,0.005596999999999998,0.00027500000000000007,-0.009308,0.016586
268,2.68,-0.038396,0.049270999999999995,0.040933999999999984,0.001343,-0.000778,0.017639
269,2.69,-0.018331,0.017637,0.048014999999999995,0.000275,-0.000778,0.017639
270,2.7,0.026022,0.01778,0.091377,-0.002914,-0.001846,0.017639
271,2.71,0.038532,-0.008568000000000001,0.10764000000000001,-0.000778,-0.002914,0.016586
272,2.72,0.06290499999999999,-0.036211,0.106847,-0.001846,-0.0039829999999999996,0.017639
273,2.73,0.076163,-0.045177999999999996,0.08477,0.002411,-0.005051,0.015518
274,2.74,0.092192,-0.021204,0.059217,0.002411,-0.012497,0.018706999999999998
275,2.75,0.088103,-0.023441,0.05531799999999999,0.001343,-0.017822,0.017639
276,2.76,0.051538,-0.0116,0.002093000000000001,-0.002914,-0.019958,0.016586
277,2.77,0.046014,-0.004381999999999997,0.005438000000000003,-0.001846,-0.019958,0.019775
278,2.78,0.037349,-0.01991,-0.031069,-0.002914,-0.025284,0.020844
279,2.79,-0.005178000000000002,0.006160999999999999,-0.04873,-0.001846,-0.021027,0.02298
280,2.8,-0.008156999999999998,0.037047000000000004,0.0010180000000000015,0.002411,-0.016769,0.020844
281,2.81,-0.045339,0.032395,-0.039553,0.003479,-0.009308,0.02298
282,2.82,-0.08644299999999999,-0.0006709999999999997,-0.006551,0.003479,0.002411,0.025101
283,2.83,-0.052749000000000004,-0.032919,-0.03812,0.001343,0.009872,0.026169
284,2.84,-0.007743000000000001,-0.030415000000000005,-0.048539,-0.0039829999999999996,0.023712,0.019775
285,2.85,-0.011559,-0.044278,-0.022813999999999997,-0.0039829999999999996,0.03331,0.020844
286,2.86,-0.033759,0.041509,-0.038988,-0.00824,0.031174,0.021912
287,2.87,0.0027410000000000004,0.038357,0.035776,-0.013565,0.032242,0.028305
288,2.88,0.020793,0.036663,0.084334,-0.014633000000000002,0.031174,0.026169
289,2.89,0.042045,0.061563,0.075799,-0.0071719999999999996,0.025848000000000003,0.02298
290,2.9,0.018151,0.0047859999999999995,0.064554,-0.001846,0.020523,0.019775
291,2.91,0.009382,-0.009017,0.022078999999999998,-0.001846,0.014130000000000002,0.016586
292,2.92,-0.029785,-0.017236,0.040619,-0.000778,0.007736,0.015518
293,2.93,-0.023875,0.005370999999999999,-0.008232999999999997,-0.002914,0.003479,0.016586
294,2.94,-0.022044999999999995,-0.034981,-0.0007179999999999999,-0.005051,0.00027500000000000007,0.019775
295,2.95,-0.031304000000000005,0.0072749999999999985,0.005448999999999999,-0.006104,0.0034790000000000003,0.018706999999999998
296,2.96,-0.009571,0.0027300000000000002,0.008268000000000001,-0.0071719999999999996,0.005615,0.015518
297,2.97,-0.040539,0.033168,-0.01292,-0.005051,0.006668,0.017639
298,2.98,-0.083061,0.031883999999999996,-0.013775,-0.005051,0.009872,0.018706999999999998
299,2.99,-0.072608,0.042283,-0.008617,-0.001846,0.006668,0.021912
300,3.0,-0.056813,0.018394,0.050143,0.002411,0.010941,0.019775
301,3.01,-0.01427799999999999,-0.019104,-0.014354999999999996,0.007736,0.008804000000000001,0.024033000000000002
302,3.02,-0.029702,-0.045946,-0.027393,0.007736,0.005615,0.021912
303,3.03,0.007186,-0.022807,-0.091557,0.006668,0.006668,0.016586
304,3.04,0.016364,-0.03365,-0.10515899999999999,-0.0018460000000000004,0.008804000000000001,0.013382
305,3.05,-0.023126,-0.026144999999999998,-0.027062000000000003,-0.00824,0.010941,0.013382
306,3.06,-0.017939,-0.01945,-0.01553899999999999,-0.012497,0.013062,0.008057
307,3.07,-0.04737100000000001,-0.01993,0.014831,-0.012497,0.017319,0.011261
308,3.08,-0.024409,-0.03708,0.040142000000000004,-0.012497,0.021591,0.012314
309,3.09,-0.0029960000000000004,-0.007261,0.014282,-0.011444,0.021591,0.013382
310,3.1,-0.023438999999999998,-0.037681,0.006118,-0.011444,0.019455,0.010193
311,3.11,-0.013318,-0.016782000000000002,0.029540000000000007,-0.009308,0.020523,0.011261
312,3.12,0.032369999999999996,0.009237,0.007861,-0.0071719999999999996,0.017319,0.010193
313,3.13,-0.013521,0.019634,-0.063216,-0.00824,0.014130000000000002,0.011261
314,3.14,-0.010625,-0.0070030000000000005,-0.061992,-0.012497,0.010941,0.009125
315,3.15,0.004894000000000001,-0.010036,-0.02893,-0.011444,0.008804000000000001,0.011261
316,3.16,-0.012529,-0.020907,-0.061272,-0.006104,0.007736,0.01445
317,3.17,-0.0019430000000000003,0.024776,-0.017471,-0.009308,0.006668,0.015518
318,3.18,-0.008688,0.017817,-0.073972,-0.006104,0.002411,0.016586
319,3.19,-0.00016200000000000069,-0.00529,-0.057564,-0.009308,-0.001846,0.017639
320,3.2,0.022724,0.009774,-0.065479,-0.010376,-0.0071719999999999996,0.016586
321,3.21,-0.037179,0.055289,-0.031948000000000004,-0.011444,-0.010376,0.017639
322,3.22,-0.012877000000000001,0.033527999999999995,-0.05906800000000001,-0.013565,-0.016769,0.01445
323,3.23,-0.067642,0.036860000000000004,-0.065147,-0.014633000000000002,-0.023148,0.01445
324,3.24,-0.032135000000000004,-0.022981,-0.053704999999999996,-0.011444,-0.028488,0.013382
325,3.25,-0.023684,-0.016726000000000005,-0.039562,-0.013565,-0.034866,0.01445
326,3.26,-0.030626,-0.018930000000000002,-0.0343,-0.010376,-0.035934,0.013382
327,3.27,-0.046157,-0.032774,-0.08832999999999999,-0.011444,-0.040192,0.010193
328,3.28,0.026330999999999997,-0.041143,-0.117478,-0.014633000000000002,-0.045531999999999996,0.008057
329,3.29,-0.074792,-0.10843699999999999,-0.102414,-0.021027,-0.034866,-0.00473
330,3.3,-0.07266399999999999,-0.155325,-0.115693,-0.02742,-0.046585,-0.006851
331,3.31,-0.086531,-0.128374,-0.140216,-0.030608999999999997,-0.044464,-0.0004580000000000001
332,3.32,-0.027507,-0.038486000000000006,-0.161365,-0.037002999999999994,-0.058303999999999995,0.005936
333,3.33,0.016525,-0.030631,-0.13712,-0.039139,-0.06044,0.012314
334,3.34,0.009409,-0.043913,-0.112292,-0.041260000000000005,-0.067902,0.013382
335,3.35,0.012729999999999998,-0.063313,-0.116875,-0.035934,-0.073227,0.011261
336,3.36,0.013590000000000001,-0.07577300000000001,-0.103673,-0.035934,-0.081741,0.012314
337,3.37,0.034747,-0.168959,-0.10011,-0.037002999999999994,-0.078552,-0.0015259999999999994
338,3.38,-0.082724,-0.164436,-0.158754,-0.033813,-0.090271,0.0016630000000000006
339,3.39,-0.005451000000000001,-0.087938,-0.14649500000000001,-0.040192,-0.10731500000000001,0.012314
340,3.4,0.045561999999999984,-0.049953,-0.08681799999999999,-0.047652999999999994,-0.122223,0.018706999999999998
341,3.41,0.01646,-0.041661000000000004,-0.07266900000000001,-0.051910000000000005,-0.138199,0.025101
342,3.42,0.061109000000000004,-0.039523,-0.009772999999999995,-0.051910000000000005,-0.149918,0.029358
343,3.43,-0.009523000000000005,-0.084793,0.088253,-0.048721,-0.144592,0.020844
344,3.44,-0.090439,-0.0006580000000000001,0.056354999999999995,-0.042328,-0.16056800000000002,0.032562
345,3.45,-0.081613,0.046135,0.054498000000000005,-0.043396,-0.16802999999999998,0.045349
346,3.46,-0.09957300000000001,0.078553,0.092032,-0.046585,-0.177612,0.050674000000000004
347,3.47,-0.08420599999999999,0.054916999999999994,0.079996,-0.049789,-0.177612,0.053863999999999995
348,3.48,-0.094532,0.061847000000000006,0.076389,-0.048721,-0.181885,0.057067999999999994
349,3.49,-0.09308,0.035937000000000004,0.046370999999999996,-0.056183000000000004,-0.18721,0.054932
350,3.5,-0.10675599999999999,0.08494,0.02696,-0.06044,-0.198929,0.051726999999999995
351,3.51,-0.10964700000000001,0.0003499999999999996,0.042966000000000004,-0.071091,-0.206375,0.043213
352,3.52,-0.064568,-0.013134,0.051052999999999994,-0.071091,-0.221298,0.032562
353,3.53,-0.174852,0.017108,0.073437,-0.076416,-0.224487,0.025101
354,3.54,-0.247903,-0.028089,0.09133200000000001,-0.078552,-0.23406999999999997,0.025101
355,3.55,-0.29302,-0.103381,0.07635700000000001,-0.088135,-0.244736,0.026169
356,3.56,-0.328818,-0.169214,0.014707,-0.092392,-0.25006100000000003,0.028305
357,3.57,-0.32396199999999997,-0.13649,0.04251,-0.095596,-0.25325,0.030425999999999998
358,3.58,-0.389694,-0.09839400000000001,0.002514,-0.097717,-0.25006100000000003,0.03363
359,3.59,-0.380298,-0.133494,-0.030235,-0.09346,-0.238342,0.036819
360,3.6,-0.346099,-0.15879200000000002,-0.17,-0.088135,-0.241531,0.034683
361,3.61,-0.478663,-0.040369999999999996,-0.177266,-0.095596,-0.223419,0.045349
362,3.62,-0.438234,-0.062088,-0.182853,-0.095596,-0.213837,0.058121000000000006
363,3.63,-0.38183,-0.106073,-0.192347,-0.10304300000000001,-0.194656,0.059189
364,3.64,-0.43432299999999996,-0.07013899999999999,-0.20623000000000002,-0.104111,-0.163773,0.063446
365,3.65,-0.378181,-0.08439400000000001,-0.190492,-0.11264,-0.141403,0.067719
366,3.66,-0.369369,-0.06504,-0.244804,-0.12008699999999999,-0.11050399999999999,0.074112
367,3.67,-0.368103,-0.091685,-0.23267,-0.137131,-0.08280900000000001,0.07623300000000001
368,3.68,-0.350622,-0.117273,-0.242954,-0.153122,-0.058303999999999995,0.081558
369,3.69,-0.28655,-0.17587,-0.182701,-0.169098,-0.040192,0.081558
370,3.7,-0.24575300000000003,-0.201657,-0.14057,-0.180817,-0.021027,0.079437
371,3.71,-0.22504699999999997,-0.203238,-0.163933,-0.188263,-0.012497,0.071976
372,3.72,-0.076821,-0.205427,-0.120675,-0.193604,-0.002914,0.064514
373,3.73,-0.118951,-0.164785,-0.046973,-0.20105,-0.005051,0.055999999999999994
374,3.74,-0.034493,-0.188065,-0.005205999999999999,-0.20105,-0.002914,0.04747
375,3.75,-0.020702,-0.155226,0.0034649999999999998,-0.19786099999999998,0.0013429999999999994,0.043213
376,3.76,-0.034147000000000004,-0.119929,-0.063586,-0.188263,-0.009308,0.037888
377,3.77,-0.140308,-0.1069,-0.09851499999999999,-0.189331,-0.002914,0.031494
378,3.78,-0.117502,-0.090806,-0.173352,-0.186142,-0.021027,0.042145
379,3.79,-0.047172999999999986,-0.096984,-0.201354,-0.191467,-0.01889,0.052795
380,3.8,0.010390999999999984,-0.046998000000000005,-0.206833,-0.19253499999999998,-0.011444,0.042145
381,3.81,-0.042247,0.11823399999999999,-0.22259299999999999,-0.196793,-0.009308,0.051726999999999995
382,3.82,-0.098022,-0.022923,-0.18216400000000002,-0.209579,-0.0007780000000000009,0.046402
383,3.83,-0.146482,0.046495999999999996,-0.279296,-0.2117,-0.005051,0.065582
384,3.84,-0.032751999999999996,0.062627,-0.263401,-0.22023,-0.009308,0.085815
385,3.85,0.163638,0.06274,-0.23001799999999997,-0.233017,-0.015701,0.09967000000000001
386,3.86,0.273892,0.073527,-0.184794,-0.236206,-0.0039829999999999996,0.10392799999999999
387,3.87,0.322704,0.089668,-0.1514,-0.238342,-0.0039829999999999996,0.10713199999999999
388,3.88,0.21022,0.218156,-0.073156,-0.23940999999999998,0.005615,0.114578
389,3.89,0.402994,0.170124,-0.057228999999999995,-0.233017,0.017319,0.115646
390,3.9,0.443838,0.193295,0.062230999999999995,-0.233017,-0.00824,0.11671400000000001
391,3.91,0.366867,0.227332,-0.029707,-0.231949,-0.005051,0.11138900000000002
392,3.92,0.41884799999999994,0.24464299999999997,-0.026547,-0.230881,-0.030608999999999997,0.11671400000000001
393,3.93,0.519962,0.301951,-0.007095999999999999,-0.224487,-0.041260000000000005,0.118851
394,3.94,0.548529,0.27326100000000003,0.060312,-0.21702600000000002,-0.052979,0.11245699999999999
395,3.95,0.5422239999999999,0.17735,0.019896000000000004,-0.20318599999999998,-0.058303999999999995,0.100739
396,3.96,0.502797,0.017941,0.0046670000000000045,-0.191467,-0.06044,0.083694
397,3.97,0.437716,-0.10977999999999999,0.040662000000000004,-0.18293800000000002,-0.055115,0.071976
398,3.98,0.401974,-0.11869600000000001,0.025506,-0.173355,-0.045531999999999996,0.062393
399,3.99,0.274934,-0.079694,0.015071,-0.172287,-0.034866,0.065582
400,4.0,0.23679,-0.04029,0.118138,-0.172287,-0.019958,0.07623300000000001
401,4.01,0.22455799999999998,-0.010006,0.149508,-0.171219,-0.0018460000000000004,0.094345
402,4.02,0.17246199999999998,0.027913000000000004,0.20658,-0.172287,0.021591,0.109253
403,4.03,0.134661,0.094855,0.283473,-0.172287,0.041824,0.129501
404,4.04,0.147648,0.171731,0.358123,-0.16802999999999998,0.058868,0.146545
405,4.05,0.152305,0.24003000000000002,0.45331099999999996,-0.161636,0.067398,0.16571
406,4.06,0.166888,0.308622,0.586016,-0.149918,0.08230599999999999,0.184891
407,4.07,0.19056800000000002,0.393257,0.75271,-0.124359,0.088699,0.20086700000000002
408,4.08,0.28775,0.45262700000000006,0.951176,-0.095596,0.104675,0.208328
409,4.09,0.396277,0.53414,0.9910969999999999,-0.06150800000000001,0.122787,0.21046399999999998
410,4.1,0.301056,0.557104,1.065288,-0.02742,0.122787,0.20086700000000002
411,4.11,0.225244,0.515696,1.0875620000000001,0.005615,0.135574,0.19342
412,4.12,0.17285699999999998,0.43571800000000005,1.118631,0.02478,0.143021,0.180634
413,4.13,0.109176,0.354371,1.179214,0.046082,0.161133,0.167847
414,4.14,-0.011197,0.245917,1.1379860000000002,0.067398,0.174988,0.14866600000000002
415,4.15,-0.089822,0.171958,1.026448,0.076981,0.19096400000000002,0.133759
416,4.16,-0.20067000000000002,0.056480999999999996,1.009619,0.07484400000000001,0.213333,0.124176
417,4.17,-0.333969,-0.058732000000000006,0.9538690000000001,0.063126,0.23570300000000002,0.118851
418,4.18,-0.491575,-0.153374,0.926853,0.049286,0.265533,0.123108
419,4.19,-0.532857,-0.18273599999999998,0.855259,0.031174,0.282578,0.134827
420,4.2,-0.536798,-0.156574,0.683021,0.013062,0.29536399999999996,0.150803
421,4.21,-0.511505,-0.13839,0.645655,-0.011444,0.299622,0.16145299999999999
422,4.22,-0.46137700000000004,-0.128114,0.633897,-0.030608999999999997,0.299622,0.169983
423,4.23,-0.474783,-0.108368,0.602554,-0.045531999999999996,0.298553,0.178497
424,4.24,-0.463372,-0.092909,0.60835,-0.056183000000000004,0.299622,0.184891
425,4.25,-0.42216499999999996,-0.07990599999999999,0.566262,-0.059372,0.297485,0.19342
426,4.26,-0.316433,-0.054937,0.554211,-0.057236,0.291092,0.198746
427,4.27,-0.22951799999999997,0.008864999999999998,0.529563,-0.048721,0.280441,0.203003
428,4.28,-0.20909299999999997,0.119727,0.46974799999999994,-0.035934,0.261276,0.205139
429,4.29,-0.167102,0.133671,0.44873999999999997,-0.024215999999999998,0.233582,0.203003
430,4.3,-0.173282,0.162021,0.433882,0.00027499999999999915,0.210144,0.20086700000000002
431,4.31,-0.200488,0.284823,0.390282,0.023712,0.187775,0.194473
432,4.32,-0.24915500000000002,0.312434,0.394279,0.046082,0.16433699999999998,0.19128399999999998
433,4.33,-0.268353,0.329309,0.400208,0.06633,0.152618,0.192352
434,4.34,-0.348296,0.284717,0.42846000000000006,0.087631,0.147293,0.197678
435,4.35,-0.331513,0.257676,0.374285,0.104675,0.148346,0.20726
436,4.36,-0.330678,0.21768600000000002,0.37275,0.11639400000000001,0.153687,0.208328
437,4.37,-0.309799,0.145016,0.35596,0.12492400000000001,0.14941400000000002,0.204071
438,4.38,-0.22309600000000002,0.130544,0.38006599999999996,0.125977,0.136642,0.194473
439,4.39,-0.25038299999999997,0.10180399999999999,0.48,0.127045,0.125977,0.184891
440,4.4,-0.229618,0.132952,0.547182,0.122787,0.10681199999999999,0.169983
441,4.41,-0.22534899999999997,0.141431,0.694902,0.133438,0.09295700000000001,0.157196
442,4.42,-0.23644899999999996,0.237769,0.802171,0.13983199999999998,0.073792,0.14440899999999998
443,4.43,-0.286508,0.338136,0.897343,0.153687,0.05354299999999999,0.134827
444,4.44,-0.2027,0.354145,0.9704459999999999,0.166458,0.018387,0.120972
445,4.45,-0.25753000000000004,0.329604,1.0190780000000002,0.18670699999999998,-0.006104,0.104996
446,4.46,-0.289943,0.317745,1.027943,0.199493,-0.047652999999999994,0.093277
447,4.47,-0.34735,0.375368,1.039385,0.215469,-0.085999,0.082626
448,4.48,-0.392827,0.39176500000000003,1.038942,0.22612,-0.128616,0.074112
449,4.49,-0.38913400000000004,0.37051799999999996,1.071131,0.236771,-0.16056800000000002,0.063446
450,4.5,-0.413245,0.382329,1.060625,0.24635300000000002,-0.193604,0.049606
451,4.51,-0.482613,0.29743200000000003,1.103374,0.25914,-0.223419,0.030425999999999998
452,4.52,-0.495827,0.295928,1.181331,0.268723,-0.256454,0.011261
453,4.53,-0.578083,0.310662,1.228821,0.279373,-0.284149,-0.014313
454,4.54,-0.631378,0.363128,1.310334,0.285767,-0.31291199999999997,-0.044144
455,4.55,-0.7350140000000001,0.285314,1.373792,0.29536399999999996,-0.339539,-0.06758099999999999
456,4.56,-0.857876,0.246164,1.41472,0.303879,-0.375763,-0.091003
457,4.57,-1.011973,0.314173,1.477792,0.315598,-0.41517600000000005,-0.11232
458,4.58,-1.150513,0.441312,1.602878,0.317734,-0.45352200000000004,-0.128296
459,4.59,-1.265248,0.558702,1.712636,0.318802,-0.49826000000000004,-0.133621
460,4.6,-1.293045,0.625091,1.7054259999999999,0.317734,-0.545135,-0.134689
461,4.61,-1.189415,0.623913,1.599802,0.313477,-0.593063,-0.134689
462,4.62,-1.116977,0.707504,1.38499,0.291092,-0.629288,-0.147476
463,4.63,-0.973941,0.6497539999999999,1.1602350000000001,0.247421,-0.669769,-0.180496
464,4.64,-0.9266469999999999,0.573315,0.922221,0.19203199999999998,-0.709183,-0.222046
465,4.65,-0.983825,0.474524,0.76156,0.119598,-0.768845,-0.267838
466,4.66,-1.0348389999999998,0.415638,0.665221,0.05354299999999999,-0.829559,-0.312592
467,4.67,-1.019736,0.511309,0.766558,-0.0018460000000000004,-0.89241,-0.35626199999999997
468,4.68,-1.0469709999999999,0.610909,0.8972600000000001,-0.035934,-0.946732,-0.40313699999999997
469,4.69,-1.033447,0.646021,1.032324,-0.028488,-1.0,-0.44894399999999995
470,4.7,-1.0152430000000001,0.596468,1.141641,0.022659000000000002,-1.051132,-0.508591
471,4.71,-0.7976340000000001,0.516295,1.187329,0.13237000000000002,-1.094818,-0.584229
472,4.72,-0.5749529999999999,0.23351,0.9916790000000001,0.271927,-1.133163,-0.660934
473,4.73,-0.43526800000000004,-0.272117,0.630684,0.402954,-1.175766,-0.7354890000000001
474,4.74,-0.41943199999999997,-0.813822,0.093306,0.4935,-1.220505,-0.7919619999999999
475,4.75,-0.319552,-1.43252,-0.35788400000000004,0.522263,-1.2503360000000001,-0.830307
476,4.76,-0.161581,-1.9865959999999998,-0.814702,0.4935,-1.248215,-0.8398899999999999
477,4.77,-0.147022,-2.340146,-1.224919,0.434906,-1.2301030000000002,-0.8036800000000001
478,4.78,-0.078493,-2.0295919999999996,-1.529833,0.316666,-1.254593,-0.737625
479,4.79,0.038638999999999986,-1.606838,-1.5593110000000001,0.199493,-1.288681,-0.639618
480,4.8,0.11556099999999998,-0.951384,-1.4958049999999998,0.09295700000000001,-1.306793,-0.524567
481,4.81,0.286084,-0.40997799999999995,-1.473008,-0.011443999999999996,-1.3185120000000001,-0.40420500000000004
482,4.82,0.517566,-0.02075099999999999,-1.503034,-0.10624699999999998,-1.30574,-0.284882
483,4.83,0.8236760000000001,0.020313,-1.7173049999999999,-0.209579,-1.26738,-0.182617
484,4.84,1.0601610000000001,-0.086961,-1.861104,-0.29586799999999996,-1.214127,-0.11550899999999999
485,4.85,1.130366,-0.143359,-1.947957,-0.367233,-1.139557,-0.076096
486,4.86,0.9301799999999999,0.03509300000000001,-2.120463,-0.43222,-1.027695,-0.056915
487,4.87,0.75516,0.5267,-2.367673,-0.50679,-0.876434,-0.049469
488,4.88,0.588076,0.730405,-2.275141,-0.59201,-0.736877,-0.054794
489,4.89,0.320577,0.642724,-2.018528,-0.6474,-0.629288,-0.065445
490,4.9,0.167674,0.452189,-1.579405,-0.682556,-0.523834,-0.07823200000000001
491,4.91,-0.09289699999999998,0.122525,-1.095558,-0.6974640000000001,-0.43115200000000004,-0.10272200000000001
492,4.92,-0.30184099999999997,-0.168032,-0.5649,-0.682556,-0.33634899999999995,-0.108063
493,4.93,-0.461197,-0.44359799999999994,-0.177714,-0.6452640000000001,-0.22981300000000002,-0.092072
494,4.94,-0.590911,-0.51332,0.070191,-0.600525,-0.10731500000000001,-0.066513
495,4.95,-0.579339,-0.66519,0.345475,-0.541931,-0.026351999999999997,-0.031356999999999996
496,4.96,-0.525053,-0.64176,0.36514,-0.491867,0.045029,-0.00473
497,4.97,-0.555079,-0.6399189999999999,0.214525,-0.458847,0.088699,0.018706999999999998
498,4.98,-0.6103350000000001,-0.7614390000000001,0.241594,-0.45458999999999994,0.11213699999999999,0.058120999999999985
499,4.99,-0.499312,-0.791769,0.405433,-0.452454,0.11853,0.098602
500,5.0,-0.374465,-0.8378909999999999,0.37869200000000003,-0.444992,0.111069,0.129501
501,5.01,-0.276942,-0.85893,0.37488499999999997,-0.43328900000000004,0.090836,0.145477
502,5.02,-0.155757,-0.9109360000000001,0.282007,-0.423691,0.08230599999999999,0.14761400000000002
503,5.03,-0.166404,-0.9062129999999999,0.009836000000000013,-0.41943400000000003,0.067398,0.136963
504,5.04,-0.15898199999999998,-0.892906,-0.229935,-0.424759,0.07911699999999999,0.129501
505,5.05,-0.236256,-0.736984,-0.286296,-0.436478,0.07911699999999999,0.115646
506,5.06,-0.228302,-0.5422170000000001,-0.419278,-0.442871,0.10255399999999999,0.09967000000000001
507,5.07,-0.17794100000000002,-0.304483,-0.3472,-0.43966700000000003,0.137695,0.082626
508,5.08,-0.15704500000000002,0.03998,-0.25614899999999996,-0.41517600000000005,0.177109,0.064514
509,5.09,-0.070621,0.44962299999999994,-0.153044,-0.35125700000000004,0.20694,0.050674000000000004
510,5.1,0.099404,0.6824899999999999,-0.033016000000000004,-0.24578899999999998,0.23144499999999998,0.052795
511,5.11,0.267146,0.862418,0.046168,-0.095596,0.251678,0.064514
512,5.12,0.35115799999999997,0.831636,-0.003742000000000009,0.072723,0.274048,0.070908
513,5.13,0.397217,0.6834640000000001,-0.170783,0.22824099999999997,0.309204,0.068771
514,5.14,0.400982,0.3849830000000001,-0.439591,0.341171,0.336899,0.067719
515,5.15,0.302025,0.036602,-0.559025,0.41574099999999997,0.353943,0.059189
516,5.16,0.21419000000000002,-0.16839200000000001,-0.545407,0.458344,0.367798,0.049606
517,5.17,0.166795,-0.303823,-0.513323,0.47538800000000003,0.36886599999999997,0.038956
518,5.18,0.15834700000000002,-0.345893,-0.3476,0.481781,0.347565,0.02298
519,5.19,0.155,-0.36633699999999997,-0.230704,0.477524,0.29643200000000003,-0.00473
520,5.2,0.07532,-0.28618299999999997,-0.024028,0.478592,0.220795,-0.03775
521,5.21,-0.152783,-0.258767,0.12110200000000003,0.47113,0.15473900000000002,-0.068634
522,5.22,-0.42718900000000004,-0.231384,0.282771,0.46260100000000004,0.10681199999999999,-0.095276
523,5.23,-0.649466,-0.285465,0.351738,0.45195,0.08230599999999999,-0.11232
524,5.24,-0.979723,-0.221429,0.360034,0.424255,0.061005,-0.117645
525,5.25,-1.1663379999999999,-0.207733,0.274457,0.370987,0.02478,-0.11550899999999999
526,5.26,-1.4678639999999998,-0.1876,0.28476999999999997,0.299622,-0.011444,-0.111252
527,5.27,-1.5827950000000002,-0.277289,0.380186,0.212265,-0.054047000000000005,-0.098465
528,5.28,-1.94865,-0.383397,0.495331,0.11746199999999998,-0.059372,-0.085678
529,5.29,-1.9296360000000001,-0.457499,0.592986,0.017319,-0.090271,-0.07823200000000001
530,5.3,-2.030822,-0.5688880000000001,0.304127,-0.088135,-0.08920299999999999,-0.07823200000000001
531,5.31,-2.013363,-0.41458100000000003,0.10818599999999999,-0.212769,-0.104111,-0.076096
532,5.32,-2.087996,-0.05504700000000001,-0.05190499999999999,-0.34700000000000003,-0.117966,-0.072906
533,5.33,-2.125727,0.217556,-0.122571,-0.481216,-0.116898,-0.053725999999999996
534,5.34,-1.730773,0.31592,-0.344547,-0.588806,-0.105179,-0.039871
535,5.35,-1.537822,0.286775,-0.652986,-0.681488,-0.058303999999999995,-0.030289
536,5.36,-1.464435,0.816604,-0.846651,-0.790146,0.020523,0.004867999999999999
537,5.37,-1.352532,1.2700639999999999,-0.926839,-0.8423459999999999,0.068451,0.04747
538,5.38,-0.912325,1.861563,-0.969218,-0.871109,0.143021,0.090088
539,5.39,-0.37766900000000003,2.3018,-0.823608,-0.864716,0.229309,0.110321
540,5.4,0.303524,2.582004,-0.1537,-0.7443390000000001,0.27511599999999997,0.092209
541,5.41,0.540862,2.411826,0.596719,-0.512115,0.29536399999999996,0.036819
542,5.42,0.767263,1.8911240000000002,1.135565,-0.184006,0.382706,-0.032425
543,5.43,0.935917,1.209392,0.770169,0.13983199999999998,0.441299,-0.087814
544,5.44,0.849248,0.412051,-0.24848499999999998,0.331573,0.49775699999999995,-0.106995
545,5.45,0.775753,-0.191049,-1.024505,0.375259,0.541443,-0.09314
546,5.46,0.638274,-0.776878,-1.360637,0.339035,0.5616760000000001,-0.098465
547,5.47,0.585529,-1.1073950000000001,-1.597546,0.262329,0.5744630000000001,-0.11550899999999999
548,5.48,0.691952,-1.125934,-1.5959139999999998,0.178177,0.6213380000000001,-0.13894700000000001
549,5.49,0.746879,-0.9426389999999999,-1.392417,0.100418,0.685242,-0.15173299999999998
550,5.5,0.797164,-0.548268,-1.0386520000000001,0.04928600000000001,0.7800600000000001,-0.144272
551,5.51,0.762555,-0.006035999999999986,-0.647879,0.021591,0.886581,-0.105927
552,5.52,0.712591,0.6150760000000001,-0.241369,0.014130000000000002,0.9835209999999999,-0.038818
553,5.53,0.89764,1.1178350000000001,0.12092699999999999,0.019455,1.061279,0.057067999999999994
554,5.54,1.4540549999999999,1.389348,0.472871,0.039702999999999995,1.104965,0.15506
555,5.55,1.7379380000000002,1.384679,0.684081,0.071655,1.1241299999999999,0.232834
556,5.56,2.071432,1.128204,0.9314629999999999,0.101486,1.119873,0.282898
557,5.57,2.3498189999999997,0.815913,1.019447,0.136642,1.092178,0.311661
558,5.58,2.545566,0.49970299999999995,1.0740239999999999,0.15473900000000002,1.068741,0.31485
559,5.59,2.6388279999999997,0.266957,1.262286,0.157944,1.043182,0.308456
560,5.6,2.749188,0.172126,1.332279,0.160065,1.012283,0.27331500000000003
561,5.61,2.622091,0.257729,1.184584,0.157944,0.93985,0.21791100000000002
562,5.62,2.499564,0.321223,1.022499,0.130249,0.85675,0.162521
563,5.63,2.26554,0.329575,1.134331,0.088699,0.7587430000000001,0.117783
564,5.64,2.023548,0.11192000000000002,1.242949,0.0578,0.657547,0.08048999999999999
565,5.65,1.6920169999999999,-0.316278,1.392907,0.042892,0.589371,0.061325
566,5.66,1.442337,-0.638041,1.481054,0.050354,0.5499569999999999,0.045349
567,5.67,1.16156,-0.8749959999999999,1.340526,0.06633,0.523331,0.019775
568,5.68,0.9270780000000001,-1.07152,1.032697,0.07591200000000001,0.481781,-0.006851000000000003
569,5.69,0.7034090000000001,-1.1757870000000001,0.664497,0.070587,0.437042,-0.030289
570,5.7,0.474868,-1.308157,0.339404,0.04715,0.36673,-0.05798300000000001
571,5.71,0.255341,-1.392852,0.247027,0.009872,0.32518,-0.072906
572,5.72,0.036867999999999984,-1.3476709999999998,0.289825,-0.014633000000000002,0.298553,-0.08248899999999999
573,5.73,-0.19831600000000002,-1.200559,0.29180300000000003,-0.02742,0.283646,-0.071838
574,5.74,-0.42886199999999997,-1.126464,0.226016,-0.034866,0.287903,-0.047333
575,5.75,-0.555607,-0.799875,0.156117,-0.048721,0.302811,0.0027310000000000012
576,5.76,-0.542725,-0.774575,0.115569,-0.054047000000000005,0.327316,0.040024000000000004
577,5.77,-0.40995,-0.717002,0.07562200000000001,-0.051910000000000005,0.36673,0.077301
578,5.78,-0.200756,-0.450234,-0.05745,-0.045531999999999996,0.413605,0.106064
579,5.79,-0.014198999999999991,-0.258513,-0.179877,-0.045531999999999996,0.45301800000000003,0.12204000000000001
580,5.8,0.006190000000000001,-0.112319,-0.160576,-0.050858,0.480713,0.142288
581,5.81,0.0399,0.08699400000000003,-0.039681000000000015,-0.050858,0.494568,0.163589
582,5.82,0.021778,0.14222200000000002,0.188392,-0.051910000000000005,0.507355,0.188095
583,5.83,-0.017398000000000004,0.14205299999999998,0.481629,-0.034866,0.523331,0.212585
584,5.84,-0.012664,0.181823,0.647999,0.00027500000000000094,0.528656,0.23495500000000002
585,5.85,-0.043224,0.208866,0.707134,0.030106,0.528656,0.250946
586,5.86,-0.048326999999999995,0.121155,0.82463,0.063126,0.52652,0.263718
587,5.87,0.076821,-0.030116000000000007,0.9611930000000001,0.09935,0.516937,0.25945999999999997
588,5.88,0.104716,-0.087315,1.005385,0.135574,0.4935,0.24028000000000002
589,5.89,0.052458000000000005,-0.142028,1.073266,0.168594,0.459412,0.205139
590,5.9,0.018318,-0.071625,1.277488,0.200546,0.423187,0.160385
591,5.91,-0.04032599999999999,0.211421,1.526357,0.233582,0.38591,0.11138900000000002
592,5.92,-0.308884,0.390396,1.765526,0.261276,0.339035,0.077301
593,5.93,-0.48210600000000003,0.511994,2.005589,0.298553,0.27831999999999996,0.064514
594,5.94,-0.6057239999999999,0.510468,2.195389,0.337967,0.202682,0.070908
595,5.95,-0.5278609999999999,0.5384439999999999,2.2026369999999997,0.378448,0.127045,0.083694
596,5.96,-0.360781,0.51702,2.0449900000000003,0.396561,0.06633,0.082626
597,5.97,-0.058550999999999985,0.479893,1.7323110000000002,0.389099,0.001342999999999997,0.054932
598,5.98,0.13568,0.441367,1.484117,0.35182199999999997,-0.072159,0.011261
599,5.99,0.20992600000000003,0.385965,1.432277,0.29536399999999996,-0.136078,-0.048401
600,6.0,0.250077,0.443259,1.546258,0.23995999999999998,-0.195724,-0.098465
601,6.01,0.143735,0.79157,1.738939,0.19203199999999998,-0.24578899999999998,-0.143204
602,6.02,-0.04238099999999999,1.293773,1.942257,0.14515699999999998,-0.28733800000000004,-0.168777
603,6.03,-0.279064,1.6444740000000002,2.058259,0.101486,-0.332077,-0.167709
604,6.04,-0.18824200000000002,1.553583,1.8885720000000001,0.064194,-0.409851,-0.149597
605,6.05,-0.029756999999999995,0.9534819999999999,1.535663,0.019455,-0.47270200000000007,-0.148529
606,6.06,0.19528800000000002,0.9081950000000001,1.217554,-0.021027,-0.567505,-0.168777
607,6.07,-0.02753399999999999,1.047719,1.167102,-0.073227,-0.659119,-0.20925900000000003
608,6.08,-0.641518,1.432561,1.548457,-0.11370799999999999,-0.768845,-0.246536
609,6.09,-1.222696,1.694895,2.138114,-0.10731500000000001,-0.908386,-0.259323
610,6.1,-1.721468,1.8100779999999999,2.320294,-0.035934,-1.055389,-0.268906
611,6.11,-1.400223,1.7618349999999998,2.766268,0.113205,-1.266312,-0.289154
612,6.12,-0.9049379999999999,1.405605,2.6035150000000002,0.364609,-1.414383,-0.40420500000000004
613,6.13,-0.38363,0.78854,2.174588,0.6873779999999999,-1.622116,-0.577835
614,6.14,-0.271503,0.03791299999999992,1.4868190000000001,1.048508,-1.7914889999999999,-0.790894
615,6.15,-0.43205,-0.7458,0.584902,1.339325,-1.975784,-0.963455
616,6.16,-0.518628,-1.5298129999999999,-0.688333,1.473541,-2.0737919999999996,-1.0412290000000002
617,6.17,-0.49896,-1.885646,-2.184561,1.3979030000000001,-2.18457,-1.005005
618,6.18,-0.45376000000000005,-2.319024,-3.3378379999999996,1.140121,-2.189896,-0.8803709999999999
619,6.19,-0.29897399999999996,-2.224463,-4.049132,0.788574,-2.199493,-0.702469
620,6.2,-0.142289,-2.211185,-4.592333,0.380585,-2.156876,-0.50647
621,6.21,0.204956,-1.6581029999999999,-4.821219999999999,-0.040192000000000005,-2.025848,-0.313644
622,6.22,0.60818,-0.934967,-4.431964,-0.41729700000000003,-1.849014,-0.135757
623,6.23,0.79297,-0.409988,-3.688022,-0.6846770000000001,-1.543289,-0.013244999999999998
624,6.24,0.822801,-0.028268000000000012,-2.946565,-0.834885,-1.2514040000000002,0.08902
625,6.25,0.9720780000000001,0.416236,-2.280786,-0.8721770000000001,-0.953125,0.187027
626,6.26,1.116112,0.861967,-1.923344,-0.817841,-0.655914,0.24987800000000002
627,6.27,1.348177,0.9340430000000001,-1.736688,-0.752853,-0.460983,0.286087
628,6.28,1.451803,0.528247,-1.603772,-0.705994,-0.33421300000000004,0.280762
629,6.29,1.45929,-0.04239299999999999,-1.444649,-0.691071,-0.24685700000000002,0.242416
630,6.3,1.124188,-0.609903,-1.2635100000000001,-0.7006680000000001,-0.173355,0.188095
631,6.31,0.762731,-1.030157,-1.070236,-0.7390140000000001,-0.099854,0.14440899999999998
632,6.32,0.3304,-1.130937,-0.816613,-0.776291,-0.059372,0.113525
633,6.33,-0.03588899999999999,-1.233909,-0.382523,-0.810379,-0.049789,0.087952
634,6.34,-0.266104,-1.170498,0.094759,-0.824234,-0.054047000000000005,0.084763
635,6.35,-0.394679,-1.051713,0.581469,-0.79866,-0.042328,0.093277
636,6.36,-0.351053,-0.879704,0.858366,-0.742203,-0.028488,0.100739
637,6.37,-0.24190799999999998,-0.6582560000000001,0.9795889999999999,-0.6207729999999999,-0.050858,0.098602
638,6.38,-0.39265900000000004,-0.61542,0.79799,-0.471634,-0.08494600000000001,0.08902
639,6.39,-0.39422199999999996,-0.647671,0.576438,-0.378952,-0.094528,0.094345
640,6.4,-0.31632,-0.5774,0.10154000000000002,-0.2948,-0.097717,0.106064
641,6.41,-0.252131,-0.60436,-0.32264899999999996,-0.24578899999999998,-0.070023,0.11671400000000001
642,6.42,-0.189642,-0.422404,-0.797111,-0.230881,-0.026351999999999997,0.13269
643,6.43,-0.33965100000000004,-0.321293,-1.082652,-0.248993,0.041824,0.15826400000000002
644,6.44,-0.328573,-0.24950799999999998,-1.341777,-0.280945,0.113205,0.18382300000000001
645,6.45,-0.357904,0.043398,-1.39537,-0.310776,0.18670699999999998,0.212585
646,6.46,-0.277317,0.262366,-1.295716,-0.33421300000000004,0.262329,0.24028000000000002
647,6.47,-0.225892,0.45288500000000004,-1.127875,-0.322495,0.364609,0.26799
648,6.48,-0.175071,0.565423,-1.030985,-0.284149,0.46154799999999996,0.286087
649,6.49,0.045157,0.668309,-0.949376,-0.215973,0.5595399999999999,0.295685
650,6.5,0.18768900000000002,0.743217,-0.625089,-0.131805,0.62027,0.29248
651,6.51,0.24856999999999999,0.7591829999999999,-0.249676,-0.014633000000000002,0.669266,0.27224699999999996
652,6.52,0.347384,0.595213,0.11793800000000003,0.11853,0.694839,0.24774200000000002
653,6.53,0.289669,0.470447,0.357114,0.260208,0.691635,0.21791100000000002
654,6.54,0.199004,0.204457,0.313954,0.389099,0.6522220000000001,0.192352
655,6.55,-0.0007320000000000103,-0.13744799999999996,0.16070299999999998,0.47325100000000003,0.587234,0.159332
656,6.56,-0.12014000000000001,-0.5041100000000001,0.0036179999999999962,0.513733,0.513733,0.125244
657,6.57,-0.25842,-0.84567,-0.038557,0.51268,0.445557,0.087952
658,6.58,-0.20038100000000006,-0.986964,-0.023324,0.480713,0.389099,0.04747
659,6.59,-0.281952,-1.064713,0.05736999999999999,0.41679399999999994,0.328384,0.003799
660,6.6,-0.411979,-0.9808020000000001,0.374954,0.346497,0.27618400000000004,-0.023895
661,6.61,-0.633069,-0.819616,0.574734,0.28471399999999997,0.227188,-0.032425
662,6.62,-0.860664,-0.659438,0.576702,0.221863,0.174988,-0.022827
663,6.63,-1.036022,-0.5806319999999999,0.508763,0.147293,0.129181,0.0016629999999999993
664,6.64,-1.107565,-0.5634520000000001,0.378787,0.064194,0.091888,0.031494
665,6.65,-1.135277,-0.503757,0.07473099999999999,-0.028488000000000006,0.039702999999999995,0.053863999999999995
666,6.66,-1.0044819999999999,-0.502285,-0.188095,-0.129684,-0.023148,0.053863999999999995
667,6.67,-1.189203,-0.421666,-0.19726300000000002,-0.22662399999999996,-0.073227,0.031494
668,6.68,-1.415455,-0.280875,0.018609999999999998,-0.297989,-0.115829,0.0027309999999999986
669,6.69,-1.601813,-0.0019639999999999935,0.021745,-0.339539,-0.136078,-0.011124
670,6.7,-1.77473,0.371183,0.141644,-0.376816,-0.132874,0.004867999999999999
671,6.71,-1.726559,0.781944,0.17180299999999998,-0.403458,-0.105179,0.036819
672,6.72,-1.650021,0.9326639999999999,0.205603,-0.42262299999999997,-0.072159,0.061325
673,6.73,-1.353435,0.841526,0.133714,-0.444992,-0.017822,0.081558
674,6.74,-1.063295,0.631265,0.068035,-0.44606,0.040756,0.079437
675,6.75,-0.766587,0.482417,-0.020263,-0.441803,0.064194,0.055999999999999994
676,6.76,-0.528121,0.545449,-0.198128,-0.42050200000000004,0.10787999999999999,0.027237
677,6.77,-0.524343,0.80498,-0.22068200000000002,-0.400253,0.128113,-0.012177000000000002
678,6.78,-0.373109,1.35825,-0.224896,-0.365097,0.153687,-0.035614
679,6.79,-0.573638,1.851235,-0.18724200000000002,-0.33634899999999995,0.153687,-0.050537
680,6.8,-0.54976,2.10393,-0.057920999999999986,-0.2948,0.17924500000000002,-0.043075999999999996
681,6.81,-0.431533,2.314367,-0.007466999999999999,-0.221298,0.22291599999999998,-0.032425
682,6.82,-0.20606,2.189551,-0.223577,-0.12008699999999999,0.29216,-0.016449000000000002
683,6.83,0.213408,1.631816,-0.570955,-0.013565000000000008,0.358215,-0.015381
684,6.84,0.508706,0.92889,-1.020861,0.071655,0.42211899999999997,-0.0271
685,6.85,0.625605,0.251635,-1.5711979999999999,0.113205,0.481781,-0.042007
686,6.86,0.667425,-0.338855,-1.831272,0.110001,0.560608,-0.05798300000000001
687,6.87,0.416775,-0.74252,-1.893069,0.097214,0.660751,-0.048401
688,6.88,0.474358,-0.8593209999999999,-1.7925419999999999,0.094025,0.763016,-0.026031
689,6.89,0.6809729999999999,-0.614142,-1.657401,0.095093,0.839706,-0.0036620000000000025
690,6.9,0.946573,-0.209398,-1.419767,0.097214,0.8897709999999999,0.024033000000000002
691,6.91,1.386008,0.342094,-0.9373790000000001,0.086563,0.913208,0.054932
692,6.92,1.7032330000000002,0.725467,-0.379968,0.07591200000000001,0.9164120000000001,0.087952
693,6.93,2.179487,1.0108629999999998,0.224004,0.07804900000000001,0.933456,0.14761400000000002
694,6.94,2.400175,1.219899,0.8340350000000001,0.09295700000000001,0.9121549999999999,0.20086700000000002
695,6.95,2.5846259999999996,1.3725559999999999,1.198667,0.131302,0.9302520000000001,0.253067
696,6.96,2.716502,1.252867,1.273088,0.16539,0.935577,0.29248
697,6.97,2.841972,0.9060860000000001,1.1980899999999999,0.188828,0.9441069999999999,0.31485
698,6.98,3.0123029999999997,0.518898,1.079221,0.203751,0.9366459999999999,0.322311
699,6.99,2.875604,0.10815799999999999,0.961304,0.204819,0.9441069999999999,0.295685
700,7.0,2.744781,-0.23520700000000003,0.812851,0.203751,0.9441069999999999,0.264786
701,7.01,2.3113900000000003,-0.275992,0.623396,0.18670699999999998,0.896164,0.23176599999999997
702,7.02,1.941187,-0.32459499999999997,0.623261,0.15155,0.833313,0.212585
703,7.03,1.654584,-0.43907700000000005,0.729457,0.119598,0.747025,0.197678
704,7.04,1.489241,-0.622812,0.688984,0.088699,0.666077,0.178497
705,7.05,1.447063,-0.8750540000000001,0.53804,0.0578,0.588303,0.151871
706,7.06,1.3973719999999998,-1.06646,0.425227,0.020523,0.522263,0.11991900000000001
707,7.07,1.369909,-1.254497,0.344496,-0.01889,0.466873,0.087952
708,7.08,1.245966,-1.36412,0.385864,-0.044464,0.419998,0.071976
709,7.09,1.171354,-1.306832,0.477524,-0.058303999999999995,0.379517,0.079437
710,7.1,1.148938,-1.160899,0.463525,-0.065765,0.337967,0.100739
711,7.11,1.093596,-0.9230889999999999,0.320864,-0.07428,0.281509,0.127365
712,7.12,1.038189,-0.771729,0.23596,-0.098785,0.22398400000000002,0.163589
713,7.13,0.9874459999999999,-0.590212,0.22841999999999998,-0.11903399999999999,0.160065,0.204071
714,7.14,0.923833,-0.36655,0.248885,-0.132874,0.094025,0.24455300000000002
715,7.15,0.8897860000000001,-0.167732,0.226683,-0.137131,0.032242,0.279694
716,7.16,0.8623129999999999,0.059015,0.11181600000000001,-0.13501,-0.033813,0.302078
717,7.17,0.76565,0.23979299999999998,0.025557,-0.129684,-0.094528,0.310593
718,7.18,0.663361,0.367673,-0.057450000000000015,-0.11264,-0.146729,0.293549
719,7.19,0.556122,0.405467,-0.073863,-0.08706699999999999,-0.189331,0.266922
720,7.2,0.371237,0.421534,-0.027375,-0.050858,-0.204254,0.23176599999999997
721,7.21,0.210619,0.439191,0.00518,-0.006104000000000003,-0.199982,0.194473
722,7.22,-0.06553599999999997,0.420109,0.073774,0.046082,-0.18293800000000002,0.156128
723,7.23,-0.40121599999999996,0.32444,0.23288899999999998,0.104675,-0.154175,0.120972
724,7.24,-0.698392,0.216106,0.41322,0.163269,-0.115829,0.09967000000000001
725,7.25,-0.8941319999999999,0.055069000000000014,0.454038,0.227188,-0.070023,0.086884
726,7.26,-1.034751,-0.109081,0.35831799999999997,0.270859,-0.042328,0.08902
727,7.27,-0.971068,-0.400075,0.384418,0.288971,-0.00824,0.10180700000000001
728,7.28,-0.779825,-0.5828479999999999,0.487001,0.29643200000000003,0.029037,0.113525
729,7.29,-0.613495,-0.734187,0.45441400000000004,0.288971,0.070587,0.123108
730,7.3,-0.47595,-0.686207,0.587058,0.272995,0.114258,0.140152
731,7.31,-0.423383,-0.568504,0.779475,0.25488299999999997,0.162201,0.156128
732,7.32,-0.441499,-0.361659,0.99518,0.245285,0.180313,0.17424
733,7.33,-0.49291,-0.22177600000000003,1.1681059999999999,0.237839,0.160065,0.19981400000000002
734,7.34,-0.48899499999999996,-0.139129,1.369734,0.234634,0.12492400000000001,0.218979
735,7.35,-0.5225029999999999,-0.042953,1.4896690000000001,0.225052,0.07804900000000001,0.21791100000000002
736,7.36,-0.477786,0.131501,1.6913759999999998,0.221863,0.035431,0.205139
737,7.37,-0.50055,0.231646,1.806868,0.21759,-0.002914,0.178497
738,7.38,-0.460847,0.372535,1.814354,0.21759,-0.044464,0.143341
739,7.39,-0.42106400000000005,0.37000900000000003,1.8026220000000002,0.215469,-0.08706699999999999,0.11245699999999999
740,7.4,-0.325596,0.43949799999999994,1.6926700000000001,0.21653699999999998,-0.132874,0.071976
741,7.41,-0.345763,0.43635,1.539485,0.20587199999999997,-0.175491,0.026169
742,7.42,-0.44181400000000004,0.487363,1.33627,0.185638,-0.223419,-0.021774
743,7.43,-0.615747,0.544477,1.2689290000000002,0.162201,-0.270294,-0.06225599999999999
744,7.44,-0.8610690000000001,0.6913600000000001,1.258969,0.1409,-0.31291199999999997,-0.09314
745,7.45,-1.182655,0.8452290000000001,1.2096069999999999,0.123856,-0.348053,-0.116577
746,7.46,-1.5299479999999999,0.9934280000000001,1.2152100000000001,0.11213699999999999,-0.365097,-0.128296
747,7.47,-1.8152560000000002,1.2057879999999999,1.2242870000000001,0.11746199999999998,-0.357651,-0.129364
748,7.48,-1.8538080000000001,1.182387,1.211108,0.167526,-0.303314,-0.128296
749,7.49,-1.806043,1.130742,0.9845659999999999,0.236771,-0.223419,-0.134689
750,7.5,-1.619406,1.226704,0.63661,0.287903,-0.13501,-0.158127
751,7.51,-1.435426,1.253642,0.406227,0.29643200000000003,-0.070023,-0.19860799999999998
752,7.52,-1.346519,1.098746,0.48605,0.269791,-0.067902,-0.23909
753,7.53,-1.227149,1.0150540000000001,0.831326,0.234634,-0.11903399999999999,-0.271042
754,7.54,-1.035095,0.780085,0.9592370000000001,0.199493,-0.20105,-0.308319
755,7.55,-0.6612140000000001,0.19721,0.930032,0.171783,-0.2948,-0.352005
756,7.56,-0.34505399999999997,-0.377841,0.959983,0.1931,-0.376816,-0.418045
757,7.57,0.05833100000000002,-0.849699,0.911292,0.25914,-0.46417200000000003,-0.499008
758,7.58,0.083058,-1.139606,1.182509,0.396561,-0.5611109999999999,-0.594879
759,7.59,0.077084,-1.08569,0.9456459999999999,0.573395,-0.6633760000000001,-0.680099
760,7.6,-0.15776300000000001,-1.037015,0.539596,0.717209,-0.809326,-0.738693
761,7.61,-0.11015799999999999,-0.886238,-0.1870900000000001,0.800293,-0.955261,-0.740829
762,7.62,-0.018793999999999998,-0.764464,-0.7306739999999999,0.782181,-1.134232,-0.696075
763,7.63,0.2720790000000001,-0.535776,-1.257627,0.7001649999999999,-1.280167,-0.601273
764,7.64,0.43582600000000005,-0.19839300000000004,-1.6438099999999998,0.554214,-1.403732,-0.47024499999999997
765,7.65,0.847007,0.172016,-2.184098,0.356079,-1.508133,-0.318985
766,7.66,1.05231,0.39817199999999997,-2.3933240000000002,0.115326,-1.578445,-0.15812699999999996
767,7.67,1.370562,0.271269,-2.49341,-0.12648,-1.576309,-0.015381000000000006
768,7.68,1.830043,-0.11999300000000003,-2.37931,-0.332077,-1.530502,0.079437
769,7.69,1.994211,-0.213944,-2.170145,-0.470566,-1.476181,0.104996
770,7.7,2.157379,0.048933,-2.060181,-0.540878,-1.406937,0.081558
771,7.71,2.0288720000000002,0.515734,-2.435069,-0.568573,-1.336624,0.025101
772,7.72,1.4737040000000001,1.09284,-3.309497,-0.588806,-1.232224,-0.038818
773,7.73,0.937351,1.451716,-4.18486,-0.6633760000000001,-1.0287629999999999,-0.064377
774,7.74,0.41876800000000003,1.089644,-4.268013,-0.793335,-0.880692,-0.045212
775,7.75,-0.08913900000000001,0.46246099999999996,-3.562938,-0.906265,-0.681488,0.015518
776,7.76,-0.267412,-0.2382840000000001,-2.330108,-0.9776309999999999,-0.5291600000000001,0.077301
777,7.77,-0.39426,-0.507521,-1.267142,-0.98616,-0.38001999999999997,0.1082
778,7.78,-0.352041,-0.5879340000000001,-0.46081700000000003,-0.953125,-0.22981300000000002,0.13056900000000002
779,7.79,-0.394024,-0.615665,0.250136,-0.8796229999999999,-0.096664,0.145477
780,7.8,-0.41872700000000007,-0.526412,0.978883,-0.761383,-0.007171999999999991,0.157196
781,7.81,-0.337897,-0.5501050000000001,1.435846,-0.597336,0.085495,0.16677899999999998
782,7.82,-0.309804,-0.616272,1.555339,-0.416245,0.122787,0.164658
783,7.83,-0.287037,-0.8341200000000001,1.532691,-0.235138,0.146225,0.156128
784,7.84,-0.28262800000000005,-0.9428040000000001,1.219422,-0.07428000000000001,0.1409,0.133759
785,7.85,-0.337343,-1.131816,0.779812,0.041823999999999986,0.137695,0.10713199999999999
786,7.86,-0.277143,-1.289671,0.374704,0.115326,0.14408900000000002,0.082626
787,7.87,-0.210225,-1.325064,-0.05431499999999997,0.13983199999999998,0.161133,0.071976
788,7.88,-0.24426199999999998,-1.332164,-0.36351999999999995,0.119598,0.172852,0.064514
789,7.89,-0.118755,-1.159325,-0.530992,0.07484400000000001,0.18670699999999998,0.071976
790,7.9,-0.16881400000000002,-1.122503,-0.47633100000000006,0.0024109999999999965,0.161133,0.081558
791,7.91,-0.027904,-1.007607,-0.449445,-0.042328,0.14408900000000002,0.090088
792,7.92,0.005484000000000003,-0.843382,-0.430238,-0.092392,0.105743,0.10180700000000001
793,7.93,0.05497899999999999,-0.7159939999999999,-0.366196,-0.12008699999999999,0.095093,0.10180700000000001
794,7.94,0.113372,-0.450859,-0.256413,-0.129684,0.085495,0.100739
795,7.95,0.24794899999999997,-0.181499,-0.25209699999999996,-0.108383,0.096161,0.096481
796,7.96,0.352587,0.091251,-0.296563,-0.057236,0.130249,0.093277
797,7.97,0.39066599999999996,0.27302,-0.405567,0.013062000000000004,0.174988,0.08902
798,7.98,0.44533599999999995,0.39029200000000003,-0.557976,0.09828200000000001,0.236771,0.083694
799,7.99,0.483821,0.405552,-0.616545,0.187775,0.281509,0.07836900000000001
800,8.0,0.373118,0.377195,-0.502028,0.27831999999999996,0.30175799999999997,0.065582
801,8.01,0.212667,0.33111799999999997,-0.41141000000000005,0.364609,0.314529,0.052795
802,8.02,0.048715000000000015,0.171259,-0.319577,0.435974,0.310272,0.042145
803,8.03,-0.22733200000000006,0.044312,-0.20131500000000002,0.481781,0.29536399999999996,0.038956
804,8.04,-0.317345,-0.080964,-0.10785,0.500961,0.288971,0.043213
805,8.05,-0.608162,-0.212877,0.09805900000000001,0.505219,0.283646,0.052795
806,8.06,-0.829319,-0.29118,0.10115199999999999,0.49563599999999997,0.280441,0.057067999999999994
807,8.07,-1.1571770000000001,-0.32671100000000003,0.0701,0.458344,0.25488299999999997,0.062393
808,8.08,-1.442567,-0.47253999999999996,0.103025,0.405075,0.199493,0.062393
809,8.09,-1.7736779999999999,-0.574946,0.158451,0.347565,0.136642,0.060257000000000005
810,8.1,-1.9847599999999999,-0.705094,0.180544,0.272995,0.076981,0.048538
811,8.11,-2.108514,-0.782723,0.227913,0.19096400000000002,0.027985000000000003,0.028305
812,8.12,-1.999516,-0.55405,0.145674,0.095093,-0.013565,-0.008987000000000002
813,8.13,-2.2713389999999998,-0.75375,0.22750700000000001,-0.03381300000000001,-0.047652999999999994,-0.05159
814,8.14,-2.3095,-0.758057,0.403599,-0.138199,-0.070023,-0.08142100000000001
815,8.15,-2.432943,-0.507436,0.667621,-0.241531,-0.077484,-0.091003
816,8.16,-2.575775,-0.055096000000000006,0.763173,-0.343796,-0.08494600000000001,-0.08142100000000001
817,8.17,-2.373816,0.430989,0.74868,-0.429016,-0.08706699999999999,-0.050537
818,8.18,-2.2455380000000003,0.687127,0.577735,-0.507843,-0.08920299999999999,-0.017502
819,8.19,-1.8361509999999999,0.733733,0.284056,-0.580292,-0.068954,0.012314000000000002
820,8.2,-1.360818,0.675285,-0.13716099999999998,-0.6388699999999999,-0.040192,0.018706999999999998
821,8.21,-1.19174,1.1182459999999999,-0.432175,-0.696396,0.004546999999999999,0.008057
822,8.22,-1.0603770000000001,1.7930529999999998,-0.80801,-0.761383,0.045029,-0.0004579999999999997
823,8.23,-0.7294930000000001,2.282731,-1.0018129999999998,-0.833817,0.081238,0.008056999999999998
824,8.24,-0.367736,2.401407,-1.056072,-0.887085,0.14408900000000002,0.01445
825,8.25,0.011406999999999999,2.553467,-1.174156,-0.886017,0.208008,0.010193
826,8.26,0.454672,2.662283,-0.9465469999999999,-0.752853,0.25914,-0.032424999999999995
827,8.27,0.627516,2.3721509999999997,-0.350355,-0.457779,0.334778,-0.11550899999999999
828,8.28,0.56583,1.525455,-0.263471,-0.044464,0.49989300000000003,-0.177292
829,8.29,0.49973900000000004,0.657221,-1.260428,0.318802,0.70549,-0.169846
830,8.3,0.564204,0.04248000000000002,-2.533506,0.49668900000000005,0.8972319999999999,-0.133621
831,8.31,0.452683,-0.515473,-3.218547,0.49989300000000003,1.032516,-0.09953300000000001
832,8.32,0.5430119999999999,-0.5458529999999999,-2.7252549999999998,0.404022,1.134781,-0.055862
833,8.33,0.746508,-0.062126000000000015,-1.625051,0.324127,1.2594299999999998,-0.007919000000000002
834,8.34,0.902962,0.765035,-0.4418340000000001,0.260208,1.359558,0.049606
835,8.35,1.124391,1.378717,0.335971,0.213333,1.456497,0.127365
836,8.36,1.886267,1.3783299999999998,0.7825449999999999,0.172852,1.521484,0.21046399999999998
837,8.37,2.662425,1.210246,0.964883,0.152618,1.542786,0.291412
838,8.38,2.888953,0.9489559999999999,1.075094,0.14515699999999998,1.536392,0.3564
839,8.39,3.015621,0.730474,1.265021,0.150482,1.474609,0.438431
840,8.4,3.23932,0.364697,1.454243,0.15473900000000002,1.426666,0.455475
841,8.41,3.226295,0.094161,1.593245,0.168594,1.402176,0.433105
842,8.42,3.125554,-0.039782000000000005,1.4501030000000001,0.19203199999999998,1.336121,0.384094
843,8.43,2.909045,-0.21549899999999997,1.412416,0.195221,1.2764739999999999,0.33403
844,8.44,2.810146,-0.4251,1.276527,0.198425,1.164612,0.283966
845,8.45,2.440213,-0.63579,1.268176,0.19096400000000002,1.045303,0.23176599999999997
846,8.46,2.0921990000000004,-0.9180290000000001,1.292451,0.181381,0.9228059999999999,0.176376
847,8.47,1.722321,-1.1677440000000001,1.162572,0.176056,0.812012,0.115646
848,8.48,1.283717,-1.396382,1.01369,0.161133,0.70549,0.059189
849,8.49,0.9967010000000001,-1.628102,0.880324,0.137695,0.6053470000000001,0.018706999999999998
850,8.5,0.718223,-1.8003209999999998,0.860766,0.113205,0.5148010000000001,-0.013244999999999998
851,8.51,0.54179,-1.793298,0.970864,0.091888,0.445557,-0.031356999999999996
852,8.52,0.337631,-1.7480490000000002,0.8856379999999999,0.083374,0.380585,-0.03775
853,8.53,0.19539700000000002,-1.607357,0.709785,0.068451,0.306015,-0.031356999999999996
854,8.54,0.058955000000000014,-1.488241,0.578182,0.037567,0.24102800000000002,-0.015381
855,8.55,0.039099,-1.320231,0.5643739999999999,-0.0018460000000000004,0.172852,0.011261
856,8.56,0.058963,-1.125119,0.578159,-0.040192,0.10681199999999999,0.044281
857,8.57,0.063263,-0.913708,0.6112989999999999,-0.07962000000000001,0.052475,0.077301
858,8.58,0.094609,-0.755337,0.6371180000000001,-0.10943599999999999,0.008803999999999996,0.106064
859,8.59,0.225163,-0.583368,0.6319859999999999,-0.132874,-0.024215999999999998,0.129501
860,8.6,0.365896,-0.43641599999999997,0.44433599999999995,-0.148849,-0.051910000000000005,0.134827
861,8.61,0.48560200000000003,-0.29632800000000004,0.281498,-0.16484100000000002,-0.071091,0.12204000000000001
862,8.62,0.531402,-0.135992,0.23104499999999997,-0.174423,-0.07962000000000001,0.096481
863,8.63,0.461294,0.10019299999999999,0.195204,-0.173355,-0.094528,0.061325
864,8.64,0.28770500000000004,0.437827,0.1884,-0.149918,-0.10943599999999999,0.021912
865,8.65,0.098909,0.723216,0.27561599999999997,-0.105179,-0.124359,-0.011124
866,8.66,-0.07017999999999999,0.867358,0.463383,-0.029541,-0.11903399999999999,-0.033493
867,8.67,-0.162647,0.852045,0.618162,0.07591200000000001,-0.07962000000000001,-0.050537
868,8.68,-0.117521,0.6108210000000001,0.6457069999999999,0.189896,-0.011443999999999996,-0.061188
869,8.69,-0.104532,0.257769,0.515942,0.28471399999999997,0.052475,-0.073959
870,8.7,-0.20702600000000002,-0.09451500000000003,0.343548,0.339035,0.08017,-0.085678
871,8.71,-0.519355,-0.262795,0.413422,0.361404,0.06633,-0.092072
872,8.72,-0.8880959999999999,-0.22018800000000002,0.633965,0.364609,0.03331,-0.091003
873,8.73,-1.222487,0.01469799999999996,1.2068,0.358215,-0.0039829999999999996,-0.0793
874,8.74,-1.489776,0.22612800000000002,1.78374,0.362473,-0.022095,-0.056915
875,8.75,-1.557984,0.415415,2.306172,0.382706,-0.024215999999999998,-0.032425
876,8.76,-1.664871,0.43990799999999997,2.389426,0.412537,-0.026351999999999997,0.0005949999999999982
877,8.77,-1.5830870000000001,0.30048400000000003,2.496081,0.441299,-0.031677,0.028305
878,8.78,-1.420641,0.171824,2.240314,0.464737,-0.035934,0.030425999999999998
879,8.79,-1.162642,0.042598000000000004,2.105546,0.459412,-0.033813,0.016586
880,8.8,-1.081238,0.068255,2.059392,0.446625,-0.030608999999999997,-0.015381
881,8.81,-1.095901,0.34877899999999995,2.042261,0.41679399999999994,-0.039139,-0.048401
882,8.82,-1.292118,0.833709,2.059252,0.37738,-0.059372,-0.06758099999999999
883,8.83,-1.535937,1.2484600000000001,2.141222,0.326248,-0.10304300000000001,-0.068634
884,8.84,-1.4315879999999999,1.2815450000000002,2.093237,0.264465,-0.149918,-0.043075999999999996
885,8.85,-1.000433,1.164468,1.9505400000000002,0.204819,-0.215973,-0.013244999999999998
886,8.86,-0.7547010000000001,1.188576,1.761869,0.136642,-0.268158,-0.005783
887,8.87,-0.601925,1.433292,1.6828759999999998,0.058868,-0.331009,-0.034546
888,8.88,-0.473013,1.569611,1.6115709999999999,-0.022095000000000004,-0.41943400000000003,-0.068634
889,8.89,-0.428375,1.460282,1.62445,-0.10731500000000001,-0.537674,-0.089951
890,8.9,-0.234169,1.094211,1.465285,-0.163773,-0.6793520000000001,-0.128296
891,8.91,0.04838300000000001,0.4457370000000001,1.193337,-0.175491,-0.834885,-0.223099
892,8.92,0.144887,0.105742,1.2127059999999998,-0.094528,-0.9872129999999999,-0.362656
893,8.93,0.076157,0.006152,1.533159,0.143021,-1.176834,-0.560791
894,8.94,-0.010673000000000007,0.21580500000000002,1.790285,0.563812,-1.369644,-0.779175
895,8.95,-0.084392,0.35285900000000003,0.986041,0.9931030000000001,-1.52092,-0.9410860000000001
896,8.96,-0.14184000000000002,0.029575999999999988,-0.47548599999999996,1.241318,-1.6732479999999998,-0.991165
897,8.97,-0.24681999999999998,-0.317126,-1.9188869999999998,1.2732700000000001,-1.801086,-0.9102020000000001
898,8.98,-0.082679,-0.6649149999999999,-3.3105910000000005,1.103897,-1.9416959999999999,-0.758926
899,8.99,0.2304,-1.041941,-4.142057,0.796036,-2.015198,-0.552277
900,9.0,0.5259020000000001,-1.144079,-4.687533999999999,0.44023100000000004,-2.008804,-0.32324200000000003
901,9.01,0.9674889999999999,-0.939256,-4.805075,0.04075599999999999,-1.961929,-0.105927
902,9.02,1.0743280000000002,-0.614406,-4.6298639999999995,-0.32356300000000005,-1.82132,0.067719
903,9.03,1.412878,-0.35165100000000005,-4.1483360000000005,-0.6197050000000001,-1.5954899999999999,0.179565
904,9.04,1.3830719999999999,0.00583800000000001,-3.4020300000000003,-0.802933,-1.336624,0.21579
905,9.05,1.145129,0.442271,-2.991802,-0.875366,-1.069244,0.21791100000000002
906,9.06,0.7946770000000001,0.985878,-2.7507610000000002,-0.8796229999999999,-0.796539,0.216858
907,9.07,0.7390369999999999,1.1411069999999999,-2.514611,-0.8529969999999999,-0.586685,0.23176599999999997
908,9.08,0.53614,0.933517,-2.183834,-0.822098,-0.43861400000000006,0.238159
909,9.09,0.38567199999999996,0.383283,-1.997238,-0.7794949999999999,-0.32995599999999997,0.23069800000000001
910,9.1,0.25839,-0.234344,-1.9279130000000002,-0.7731020000000001,-0.271362,0.20726
911,9.11,0.074792,-0.747319,-1.654159,-0.7912140000000001,-0.175491,0.192352
912,9.12,-0.164603,-1.1042239999999999,-1.110025,-0.823166,-0.094528,0.192352
913,9.13,-0.163249,-1.152109,-0.618576,-0.816772,0.010941,0.204071
914,9.14,-0.38049299999999997,-1.099583,-0.17377200000000004,-0.795471,0.089767,0.20619200000000001
915,9.15,-0.459987,-1.019112,0.24285,-0.74115,0.127045,0.209396
916,9.16,-0.403375,-1.027252,0.4236,-0.6665800000000001,0.125977,0.20619200000000001
917,9.17,-0.29889299999999996,-1.0331489999999999,0.614835,-0.555786,0.085495,0.194473
918,9.18,-0.16230999999999998,-1.0085540000000002,0.703194,-0.430084,0.027985000000000003,0.164658
919,9.19,-0.065682,-1.009682,0.752494,-0.290543,-0.014633000000000002,0.126297
920,9.2,-0.009135999999999991,-0.994849,0.657103,-0.165894,-0.026351999999999997,0.095413
921,9.21,0.033255,-1.001448,0.3437140000000001,-0.07428,-0.022095,0.086884
922,9.22,0.14796800000000002,-0.9389290000000001,-0.05638499999999999,-0.034866,-0.0007779999999999992,0.094345
923,9.23,0.12861199999999998,-1.016499,-0.313138,-0.046585,0.03331,0.102875
924,9.24,0.113474,-1.0480530000000001,-0.46056499999999995,-0.08706699999999999,0.040756,0.12204000000000001
925,9.25,0.031205000000000014,-1.085051,-0.577056,-0.137131,0.064194,0.134827
926,9.26,-0.013983,-1.104056,-0.539049,-0.19253499999999998,0.08230599999999999,0.14440899999999998
927,9.27,-0.060427,-0.9072479999999999,-0.562974,-0.236206,0.113205,0.15293900000000002
928,9.28,-0.013356999999999994,-0.617794,-0.686139,-0.277756,0.138763,0.16571
929,9.29,0.181134,-0.379272,-0.779788,-0.30864,0.17924500000000002,0.181702
930,9.3,0.373793,-0.08779399999999997,-0.721968,-0.319305,0.22291599999999998,0.205139
931,9.31,0.512992,0.235453,-0.552643,-0.285202,0.264465,0.22963000000000003
932,9.32,0.530836,0.538802,-0.38997800000000005,-0.206375,0.288971,0.254135
933,9.33,0.545056,0.758329,-0.255589,-0.099854,0.29643200000000003,0.269043
934,9.34,0.531138,0.783216,-0.15038900000000002,0.039703,0.285767,0.271179
935,9.35,0.323229,0.7091609999999999,-0.144071,0.183502,0.27511599999999997,0.253067
936,9.36,0.06820599999999999,0.597014,-0.24347800000000003,0.310272,0.25595100000000004,0.23069800000000001
937,9.37,-0.1711,0.499041,-0.30089499999999997,0.405075,0.234634,0.209396
938,9.38,-0.334555,0.30245500000000003,-0.35631799999999997,0.467926,0.21119699999999997,0.190216
939,9.39,-0.509734,0.157546,-0.388251,0.494568,0.183502,0.169983
940,9.4,-0.76899,-0.017506,-0.38539,0.48924300000000004,0.14941400000000002,0.154007
941,9.41,-1.0083719999999998,-0.142035,-0.318798,0.45195,0.113205,0.140152
942,9.42,-1.199881,-0.298708,-0.22286,0.402954,0.07804900000000001,0.13269
943,9.43,-1.408462,-0.381885,-0.048993000000000016,0.34010300000000004,0.043961,0.13056900000000002
944,9.44,-1.670393,-0.483145,0.200593,0.27511599999999997,0.006668,0.123108
945,9.45,-1.8182580000000002,-0.608325,0.481709,0.213333,-0.031677,0.102875
946,9.46,-2.041419,-0.684446,0.709639,0.155807,-0.056183000000000004,0.08048999999999999
947,9.47,-2.1520029999999997,-0.7127060000000001,0.88018,0.10893199999999999,-0.08706699999999999,0.045349
948,9.48,-2.221429,-0.695638,0.848884,0.056747000000000006,-0.096664,0.011261
949,9.49,-2.056325,-0.53883,0.9690549999999999,-0.011443999999999996,-0.147797,-0.028168000000000002
950,9.5,-1.924289,-0.29961,0.8978450000000001,-0.08706699999999999,-0.140335,-0.06012000000000001
951,9.51,-1.9785990000000002,-0.05107500000000001,0.843535,-0.180817,-0.162704,-0.077164
952,9.52,-1.6876810000000002,0.293707,0.618626,-0.270294,-0.206375,-0.0793
953,9.53,-1.507662,0.33426999999999996,0.57609,-0.364044,-0.24578899999999998,-0.07823200000000001
954,9.54,-1.1813049999999998,0.27227199999999996,0.503132,-0.42794799999999994,-0.280945,-0.086746
955,9.55,-1.0248629999999999,0.163885,0.269004,-0.47908,-0.30864,-0.11871300000000001
956,9.56,-0.812034,0.521494,0.044124000000000003,-0.538742,-0.310776,-0.148529
957,9.57,-0.757138,1.321674,-0.197784,-0.589874,-0.337402,-0.169846
958,9.58,-0.795171,1.9592759999999998,-0.325246,-0.642075,-0.358719,-0.179428
959,9.59,-0.9053959999999999,2.337567,-0.612549,-0.681488,-0.33847,-0.165573
960,9.6,-0.934667,2.446342,-0.9178059999999999,-0.714508,-0.24259899999999998,-0.133621
961,9.61,-0.842325,2.624038,-1.220666,-0.705994,-0.12329099999999997,-0.088882
962,9.62,-0.48101700000000003,2.6429709999999997,-1.4649860000000001,-0.564316,0.045029,-0.073959
963,9.63,-0.322633,2.187656,-1.7523380000000002,-0.30545,0.27618400000000004,-0.084625
964,9.64,-0.140207,1.651304,-2.3800939999999997,-0.01570099999999999,0.520126,-0.096344
965,9.65,0.070977,1.069533,-2.963085,0.225052,0.741699,-0.10485799999999999
966,9.66,0.291453,0.438172,-3.1377770000000003,0.37738,0.954758,-0.10485799999999999
967,9.67,0.592025,0.074985,-2.8138650000000003,0.435974,1.122009,-0.080353
968,9.68,0.923467,-0.13838699999999998,-1.9414900000000002,0.42746000000000006,1.269012,-0.030289
969,9.69,1.404326,-0.12564,-0.778712,0.395493,1.342514,0.049606
970,9.7,1.924942,0.266498,0.228196,0.375259,1.405365,0.13908399999999999
971,9.71,2.256334,0.44646099999999994,0.97356,0.350754,1.392578,0.20726
972,9.72,2.4987220000000003,0.5493,1.254499,0.33371,1.371277,0.271179
973,9.73,2.751621,0.50376,1.143075,0.315598,1.339325,0.313797
974,9.74,2.861439,0.325614,1.014433,0.285767,1.3094940000000002,0.33403
975,9.75,2.903496,0.105143,0.963541,0.24955700000000003,1.270081,0.33616599999999996
976,9.76,2.89925,-0.250529,0.962041,0.21653699999999998,1.220016,0.31485
977,9.77,2.811026,-0.5222289999999999,1.041614,0.199493,1.1635440000000001,0.279694
978,9.78,2.4792810000000003,-0.650381,1.1242860000000001,0.18457,1.100693,0.24028000000000002
979,9.79,2.042789,-0.748768,1.183483,0.166458,1.015472,0.19554100000000002
980,9.8,1.629821,-0.8160029999999999,1.2152459999999998,0.150482,0.915344,0.171051
981,9.81,1.407734,-0.879761,1.115045,0.12171900000000001,0.807755,0.14866600000000002
982,9.82,1.254838,-1.0565440000000001,0.914595,0.08444199999999999,0.698029,0.126297
983,9.83,1.3016510000000001,-1.246984,0.737899,0.032242,0.61174,0.10180700000000001
984,9.84,1.427798,-1.423498,0.5999979999999999,-0.017822,0.546768,0.070908
985,9.85,1.436884,-1.414715,0.5456840000000001,-0.067902,0.500961,0.044281
986,9.86,1.2839399999999999,-1.31558,0.613476,-0.099854,0.46048,0.03363
987,9.87,1.133926,-1.096647,0.711447,-0.116898,0.41679399999999994,0.045349
988,9.88,1.1352520000000001,-0.812967,0.659704,-0.121155,0.36886599999999997,0.07623300000000001
989,9.89,0.9929600000000001,-0.662374,0.484501,-0.131805,0.299622,0.104996
990,9.9,0.9734219999999999,-0.534108,0.29279,-0.14565999999999998,0.23144499999999998,0.145477
991,9.91,0.884797,-0.503361,0.23048400000000002,-0.171219,0.162201,0.180634
992,9.92,0.874365,-0.52142,0.172236,-0.17868,0.10787999999999999,0.21365399999999998
993,9.93,0.773888,-0.516986,0.06243200000000001,-0.18293800000000002,0.062073,0.233902
994,9.94,0.740905,-0.400252,-0.08335,-0.186142,0.019455,0.241348
995,9.95,0.592236,-0.342328,-0.09829199999999999,-0.186142,-0.010376000000000002,0.24667399999999998
996,9.96,0.516948,-0.011525000000000007,0.139546,-0.146729,-0.015701,0.265854
997,9.97,0.28642199999999995,0.345254,0.23694400000000002,-0.07428,-0.0007780000000000009,0.277573
998,9.98,0.123525,0.5737800000000001,0.282968,0.02478,0.025848000000000003,0.295685
999,9.99,0.036532,0.665464,0.229764,0.134506,0.052475,0.311661
1000,10.0,0.058786,0.506083,0.153697,0.236771,0.086563,0.316986
1001,10.01,0.09566000000000001,0.3145,-0.060634,0.320923,0.11639400000000001,0.311661
1002,10.02,0.11773800000000001,-0.032768000000000005,-0.2759,0.359268,0.137695,0.30101
1003,10.03,0.188333,-0.298786,-0.242076,0.361404,0.163269,0.291412
1004,10.04,0.069937,-0.380486,-0.082786,0.328384,0.17924500000000002,0.288223
1005,10.05,-0.098588,-0.23429,0.235833,0.285767,0.18670699999999998,0.280762
1006,10.06,-0.282242,-0.069219,0.596671,0.247421,0.17392,0.276505
1007,10.07,-0.49289499999999997,0.080647,0.8342459999999999,0.219727,0.162201,0.257324
1008,10.08,-0.7200449999999999,0.331906,1.116327,0.187775,0.138763,0.22963000000000003
1009,10.09,-0.965784,0.456161,1.454913,0.16539,0.11853,0.190216
1010,10.1,-1.197003,0.572052,1.799518,0.16539,0.089767,0.154007
1011,10.11,-1.420858,0.692787,1.9906689999999998,0.181381,0.055679,0.115646
1012,10.12,-1.5606389999999999,0.8088390000000001,2.001118,0.20587199999999997,-0.0039829999999999996,0.083694
1013,10.13,-1.561763,0.9582700000000001,2.15022,0.23144499999999998,-0.039139,0.049606
1014,10.14,-1.621779,0.950644,2.304896,0.261276,-0.073227,0.009125
1015,10.15,-1.557792,0.971094,2.365907,0.314529,-0.092392,-0.033493
1016,10.16,-1.7055060000000002,1.082278,2.21811,0.365662,-0.10943599999999999,-0.073959
1017,10.17,-1.794288,1.102306,1.8950069999999999,0.39975,-0.147797,-0.116577
1018,10.18,-1.94249,1.115055,1.574819,0.407211,-0.204254,-0.149597
1019,10.19,-2.118203,1.073126,1.335434,0.38697800000000004,-0.27882399999999996,-0.184753
1020,10.2,-2.3121650000000002,1.142666,1.368008,0.355011,-0.341675,-0.21138
1021,10.21,-2.372087,1.013818,1.465539,0.324127,-0.40239,-0.232697
1022,10.22,-2.235264,0.798864,1.653995,0.308136,-0.43861400000000006,-0.247604
1023,10.23,-2.042983,0.7322850000000001,1.7602200000000001,0.30069,-0.44606,-0.268906
1024,10.24,-2.115382,0.78809,1.938436,0.310272,-0.43328900000000004,-0.284882
1025,10.25,-2.137942,0.804095,1.891919,0.314529,-0.450333,-0.30938699999999997
1026,10.26,-2.155422,0.580332,1.8415650000000001,0.330521,-0.513184,-0.32217399999999996
1027,10.27,-1.492499,0.192092,1.409065,0.373123,-0.586685,-0.30938699999999997
1028,10.28,-0.47252200000000005,-0.28247900000000004,1.0409709999999999,0.42532299999999995,-0.694275,-0.32324200000000003
1029,10.29,1.636496,-0.680971,0.082893,0.513733,-0.932892,-0.34668000000000004
1030,10.3,1.279836,-0.239657,-0.08167000000000002,0.543564,-1.01918,-0.460663
1031,10.31,1.175714,-1.072554,-0.032965999999999995,0.57872,-1.1906889999999999,-0.652405
1032,10.32,0.572758,-1.824843,-0.271433,0.636246,-1.294022,-0.795151
1033,10.33,-0.103872,-1.993543,-0.472592,0.6522220000000001,-1.447418,-0.8367
1034,10.34,-0.102837,-1.583667,-1.07047,0.618134,-1.580566,-0.8036800000000001
1035,10.35,-0.132638,-0.934793,-1.566517,0.492432,-1.715866,-0.708862
1036,10.36,0.1774,-0.244667,-2.008856,0.316666,-1.8138580000000002,-0.555466
1037,10.37,0.45204099999999997,0.2067,-2.2587580000000003,0.11213699999999999,-1.8649900000000001,-0.36904899999999996
1038,10.38,0.709371,0.581433,-2.617469,-0.072159,-1.887375,-0.18582200000000001
1039,10.39,1.124681,0.625672,-3.112491,-0.25006100000000003,-1.8468930000000001,-0.0271
1040,10.4,1.542698,0.35868,-3.3036489999999996,-0.407715,-1.760605,0.07623300000000001
1041,10.41,2.200639,0.10871900000000001,-3.333264,-0.512115,-1.633835,0.10713199999999999
1042,10.42,2.108079,0.32355300000000004,-3.6020809999999996,-0.5738979999999999,-1.435699,0.084763
1043,10.43,1.482344,0.905748,-4.120638,-0.623962,-1.207733,0.062393
1044,10.44,0.9916159999999999,1.1990290000000001,-4.364108,-0.7113189999999999,-0.976562,0.064514
1045,10.45,0.479267,0.730821,-3.766863,-0.800797,-0.799728,0.083694
1046,10.46,0.149306,0.212277,-3.100653,-0.82637,-0.639938,0.120972
1047,10.47,-0.08629500000000001,-0.387933,-2.359612,-0.8466030000000001,-0.511047,0.150803
1048,10.48,-0.274988,-0.901299,-1.6411169999999997,-0.845535,-0.353394,0.15826400000000002
1049,10.49,-0.386295,-1.192421,-1.0095049999999999,-0.8316959999999999,-0.189331,0.17424
1050,10.5,-0.655999,-1.347958,-0.35939699999999997,-0.806122,-0.021027000000000004,0.19128399999999998
1051,10.51,-0.672129,-1.167649,0.201788,-0.746475,0.10360699999999999,0.21472199999999997
1052,10.52,-0.43004899999999996,-1.054581,0.44408100000000006,-0.665512,0.181381,0.237091
1053,10.53,-0.132876,-0.8842049999999999,0.5707270000000001,-0.5738979999999999,0.170731,0.24667399999999998
1054,10.54,0.056455999999999985,-0.9613700000000001,0.721352,-0.482285,0.113205,0.24560500000000002
1055,10.55,0.296533,-1.169319,0.678615,-0.38853499999999996,0.040756,0.221115
1056,10.56,0.482889,-1.344625,0.622344,-0.30438200000000004,-0.035934,0.194473
1057,10.57,0.714197,-1.477883,0.427882,-0.236206,-0.100922,0.172104
1058,10.58,0.652459,-1.493394,0.170673,-0.188263,-0.146729,0.14866600000000002
1059,10.59,0.776065,-1.55179,-0.165036,-0.170166,-0.175491,0.14440899999999998
1060,10.6,0.6231300000000001,-1.5059559999999999,-0.512884,-0.171219,-0.181885,0.14440899999999998
1061,10.61,0.666972,-1.434641,-0.765663,-0.206375,-0.20105,0.157196
1062,10.62,0.6120979999999999,-1.2810700000000002,-0.9837450000000001,-0.238342,-0.193604,0.172104
1063,10.63,0.479703,-1.02321,-1.001016,-0.28733800000000004,-0.196793,0.181702
1064,10.64,0.341475,-0.7122430000000001,-0.853881,-0.310776,-0.18293800000000002,0.198746
1065,10.65,0.23917,-0.43385100000000004,-0.64679,-0.309708,-0.180817,0.220047
1066,10.66,0.075347,-0.156531,-0.46456899999999995,-0.273499,-0.154175,0.24881
1067,10.67,-0.04276,0.182279,-0.29985900000000004,-0.19786099999999998,-0.11264,0.275436
1068,10.68,-0.12121900000000001,0.458056,-0.15631199999999998,-0.092392,-0.045531999999999996,0.294617
1069,10.69,-0.24062600000000003,0.6554409999999999,0.047497000000000004,0.045029,0.015198,0.30101
1070,10.7,-0.32818200000000003,0.743025,0.16874,0.199493,0.076981,0.293549
1071,10.71,-0.423382,0.653207,0.163449,0.341171,0.11853,0.276505
1072,10.72,-0.545326,0.549316,0.078227,0.46154799999999996,0.138763,0.242416
1073,10.73,-0.770373,0.46412,-0.031455000000000004,0.542496,0.122787,0.19554100000000002
1074,10.74,-0.997532,0.42347399999999996,0.037243,0.591507,0.087631,0.14761400000000002
1075,10.75,-1.247085,0.40875100000000003,0.15320699999999998,0.625595,0.037567,0.106064
1076,10.76,-1.592317,0.35907,0.299996,0.645828,-0.002914,0.065582
1077,10.77,-1.8926470000000002,0.355679,0.44526899999999997,0.645828,-0.014633000000000002,0.041076999999999995
1078,10.78,-2.275826,0.27276999999999996,0.527406,0.617065,-0.010376,0.031494
1079,10.79,-2.431645,0.253729,0.600053,0.557419,-0.02742,0.03363
1080,10.8,-2.709644,0.09272899999999999,0.43788900000000003,0.48710600000000004,-0.046585,0.034683
1081,10.81,-2.664781,-0.124423,0.30306500000000003,0.375259,-0.096664,0.032562
1082,10.82,-2.7201169999999997,-0.32416300000000003,0.24608899999999997,0.25914,-0.100922,0.020844
1083,10.83,-2.698024,-0.278419,0.27817800000000004,0.127045,-0.12008699999999999,0.004867999999999999
1084,10.84,-2.628043,-0.01702700000000001,0.326355,-0.0018460000000000004,-0.10943599999999999,-0.015381
1085,10.85,-2.7534259999999997,0.597424,0.386793,-0.14247100000000001,-0.105179,-0.035614
1086,10.86,-2.988707,0.8840680000000001,0.509445,-0.279877,-0.100922,-0.054794
1087,10.87,-2.863219,0.673655,0.552171,-0.394928,-0.071091,-0.048401
1088,10.88,-2.44277,0.476342,0.271478,-0.46737700000000004,-0.035934,-0.038818
1089,10.89,-2.024797,0.688524,-0.10625,-0.5259550000000001,0.008804000000000003,-0.049469
1090,10.9,-1.5748520000000001,1.247893,-0.296033,-0.58136,0.05354299999999999,-0.080353
1091,10.91,-1.179772,1.852554,-0.447299,-0.636749,0.027985000000000003,-0.106995
1092,10.92,-0.465157,2.399541,-0.607313,-0.658051,-0.037002999999999994,-0.121902
1093,10.93,-0.041768000000000034,2.431476,-0.642555,-0.6974640000000001,-0.083878,-0.13894700000000001
1094,10.94,0.408875,1.858856,-0.33131,-0.694275,-0.061507999999999986,-0.154922
1095,10.95,0.578171,1.0101129999999998,-0.343555,-0.6452640000000001,0.016265999999999996,-0.18689
1096,10.96,0.695988,0.29525500000000005,-0.561172,-0.537674,0.119598,-0.20605500000000002
1097,10.97,0.558282,-0.209679,-0.973958,-0.343796,0.247421,-0.218842
1098,10.98,0.16526300000000002,-0.48654899999999995,-1.6453799999999998,-0.125427,0.390167,-0.22630300000000003
1099,10.99,-0.207396,-0.609685,-2.172269,0.067398,0.533981,-0.19966099999999998
1100,11.0,-0.243457,-0.36333699999999997,-2.372091,0.212265,0.717209,-0.160248
1101,11.01,-0.169074,0.12088400000000002,-1.992933,0.291092,0.8972319999999999,-0.10485799999999999
1102,11.02,0.024706999999999996,0.621359,-1.140407,0.320923,1.034653,-0.032425
1103,11.03,0.594133,1.1833870000000002,-0.126203,0.334778,1.133728,0.060257000000000005
1104,11.04,1.287741,1.5856649999999999,0.578393,0.355011,1.204025,0.14440899999999998
1105,11.05,2.0557790000000002,1.604258,0.912324,0.359268,1.247711,0.20726
1106,11.06,2.168768,1.199381,0.951233,0.357147,1.260483,0.257324
1107,11.07,2.199671,0.697799,0.774652,0.34436,1.2647549999999999,0.309525
1108,11.08,2.341052,0.272887,0.795164,0.310272,1.256226,0.35320999999999997
1109,11.09,2.6157880000000002,0.031944,0.788427,0.28471399999999997,1.232788,0.370255
1110,11.1,2.812665,0.017253000000000004,0.635983,0.248489,1.2082979999999999,0.33403
1111,11.11,2.823032,-0.143941,0.558371,0.209076,1.181656,0.265854
1112,11.12,2.7192830000000003,-0.321133,0.7086979999999999,0.160065,1.117737,0.201935
1113,11.13,2.547646,-0.489367,0.791503,0.130249,1.0516969999999999,0.145477
1114,11.14,2.2970479999999998,-0.549674,0.87964,0.101486,0.969666,0.098602
1115,11.15,2.072884,-0.6362180000000001,0.824126,0.07484400000000001,0.891907,0.061325
1116,11.16,1.699007,-0.813068,0.8787940000000001,0.04715,0.817337,0.038956
1117,11.17,1.441716,-1.042505,0.999761,0.038635,0.783249,0.031494
1118,11.18,1.365566,-1.140562,0.920586,0.04715,0.75769,0.030425999999999998
1119,11.19,1.133307,-1.318907,0.749911,0.052475,0.7342529999999999,0.021912
1120,11.2,0.956073,-1.432862,0.5388850000000001,0.05140700000000001,0.725723,0.021912
1121,11.21,0.787258,-1.486278,0.332586,0.049286,0.695892,0.035751
1122,11.22,0.6624760000000001,-1.4327940000000001,0.063441,0.042892,0.677795,0.053863999999999995
1123,11.23,0.64118,-1.3486129999999998,-0.186252,0.020523,0.6522220000000001,0.067719
1124,11.24,0.5330630000000001,-1.227266,-0.377125,-0.002914,0.61174,0.092209
1125,11.25,0.515702,-1.135319,-0.421204,-0.037002999999999994,0.565933,0.129501
1126,11.26,0.38824699999999995,-1.067426,-0.21059499999999998,-0.066833,0.539307,0.169983
1127,11.27,0.306291,-0.9690190000000001,-0.060358,-0.075348,0.505219,0.209396
1128,11.28,0.264764,-0.9738969999999999,0.091869,-0.078552,0.48710600000000004,0.242416
1129,11.29,0.13575299999999998,-0.851835,0.338068,-0.072159,0.458344,0.279694
1130,11.3,0.018034999999999995,-0.718924,0.52818,-0.052979,0.44236800000000004,0.310593
1131,11.31,-0.108904,-0.57985,0.768428,-0.031677,0.408279,0.338287
1132,11.32,-0.201413,-0.429858,0.8403719999999999,0.00027499999999999915,0.380585,0.36705
1133,11.33,-0.139723,-0.26829899999999995,0.8841030000000001,0.032242,0.337967,0.385162
1134,11.34,-0.172103,-0.151746,0.8598819999999999,0.062073,0.287903,0.384094
1135,11.35,-0.046349,-0.08059,0.802657,0.089767,0.244232,0.370255
1136,11.36,-0.102808,-0.028849,0.8317469999999999,0.12171900000000001,0.200546,0.335098
1137,11.37,-0.059271000000000004,-0.05980599999999999,0.866557,0.160065,0.180313,0.299942
1138,11.38,-0.08744600000000001,-0.014348,1.061916,0.198425,0.18243399999999999,0.258392
1139,11.39,-0.24783899999999998,0.101984,1.3858110000000001,0.24955700000000003,0.20161400000000002,0.224304
1140,11.4,-0.297849,0.339192,1.575927,0.308136,0.202682,0.181702
1141,11.41,-0.529728,0.585912,1.5012219999999998,0.35182199999999997,0.176056,0.14440899999999998
1142,11.42,-0.871776,0.7488060000000001,1.414842,0.365662,0.11746199999999998,0.11671400000000001
1143,11.43,-1.178023,0.947291,1.51649,0.364609,0.025848,0.109253
1144,11.44,-1.427022,1.204609,1.6340299999999999,0.360336,-0.094528,0.113525
1145,11.45,-1.5809950000000002,1.2390379999999999,1.6739669999999998,0.349686,-0.224487,0.11991900000000001
1146,11.46,-1.417461,1.328415,1.633009,0.337967,-0.354446,0.110321
1147,11.47,-1.3449790000000001,1.3513469999999999,1.480648,0.310272,-0.45458999999999994,0.070908
1148,11.48,-1.267953,1.2173969999999998,1.3046790000000001,0.27511599999999997,-0.515305,0.002730999999999997
1149,11.49,-1.302116,1.25676,1.341905,0.243164,-0.548325,-0.06758099999999999
1150,11.5,-1.577685,1.753957,1.4785059999999999,0.221863,-0.5706939999999999,-0.13894700000000001
1151,11.51,-2.120126,2.3235759999999996,1.6269360000000002,0.20161400000000002,-0.6165010000000001,-0.183685
1152,11.52,-2.526752,2.314151,1.623105,0.183502,-0.68042,-0.210327
1153,11.53,-2.499475,1.847937,1.483795,0.174988,-0.746475,-0.22630300000000003
1154,11.54,-2.3079810000000003,1.561979,1.434023,0.187775,-0.786942,-0.259323
1155,11.55,-2.32499,1.4731450000000001,1.562645,0.21653699999999998,-0.782684,-0.30938699999999997
1156,11.56,-2.3664080000000003,1.411166,1.8435240000000002,0.265533,-0.784821,-0.364777
1157,11.57,-2.343989,1.300836,2.115313,0.35289,-0.8253020000000001,-0.396744
1158,11.58,-2.070565,0.9398709999999999,2.245661,0.479645,-0.845535,-0.42336999999999997
1159,11.59,-1.458361,0.1594,2.008548,0.6298520000000001,-0.931824,-0.489426
1160,11.6,-0.877192,-0.8862059999999999,0.9968899999999999,0.806686,-0.9968110000000001,-0.600204
1161,11.61,-0.23934500000000006,-1.950394,0.20757000000000006,0.93132,-1.116119,-0.712067
1162,11.62,-0.182265,-2.4932369999999997,-0.27345899999999995,1.045303,-1.229034,-0.7983399999999999
1163,11.63,-0.135517,-2.4342580000000003,-0.864351,1.079391,-1.372849,-0.824982
1164,11.64,-0.148411,-1.9383709999999998,-1.3036590000000001,1.0090940000000002,-1.508133,-0.777039
1165,11.65,-0.31749499999999997,-1.30845,-1.8153099999999998,0.851425,-1.623184,-0.660934
1166,11.66,-0.20965999999999999,-0.573183,-2.262395,0.604294,-1.7403560000000002,-0.487289
1167,11.67,-0.014807999999999988,0.09614,-2.589599,0.316666,-1.792557,-0.27955599999999997
1168,11.68,0.3888799999999999,0.48159700000000005,-2.874565,-0.0029139999999999717,-1.79895,-0.059051999999999986
1169,11.69,0.965191,0.316531,-3.118369,-0.311844,-1.709473,0.127365
1170,11.7,1.7003810000000001,0.05192900000000002,-3.040897,-0.554718,-1.601883,0.22963000000000003
1171,11.71,2.149998,0.274158,-2.969291,-0.691071,-1.428238,0.243484
1172,11.72,2.2028220000000003,0.8538949999999998,-3.025077,-0.7390140000000001,-1.239685,0.211517
1173,11.73,1.940009,1.4977719999999999,-3.230517,-0.742203,-1.01918,0.175308
1174,11.74,1.597712,1.61169,-3.3434220000000003,-0.736877,-0.8423459999999999,0.150803
1175,11.75,0.974714,1.1556469999999999,-3.573404,-0.750732,-0.639938,0.134827
1176,11.76,0.254774,0.308312,-3.63038,-0.80719,-0.448196,0.157196
1177,11.77,-0.255829,-0.804373,-3.018528,-0.88176,-0.277756,0.20619200000000001
1178,11.78,-0.399921,-1.460045,-1.991625,-0.929688,-0.140335,0.256271
1179,11.79,-0.456823,-1.7056930000000001,-0.9818370000000001,-0.9307559999999999,0.007736000000000006,0.285034
1180,11.8,-0.461595,-1.746313,-0.01917000000000002,-0.8934780000000001,0.12278699999999998,0.302078
1181,11.81,-0.345945,-1.625802,0.7051990000000001,-0.80719,0.234634,0.30101
1182,11.82,-0.21472399999999997,-1.596518,1.148725,-0.696396,0.25488299999999997,0.285034
1183,11.83,-0.03457099999999999,-1.6923599999999999,1.499711,-0.564316,0.230377,0.26159699999999997
1184,11.84,0.17486300000000002,-1.9184720000000002,1.439908,-0.434341,0.204819,0.233902
1185,11.85,0.114849,-2.124822,1.350367,-0.33421300000000004,0.168594,0.21472199999999997
1186,11.86,0.19559400000000002,-2.3601240000000003,1.188584,-0.243668,0.136642,0.201935
1187,11.87,0.255963,-2.444556,0.960625,-0.175491,0.10360699999999999,0.189148
1188,11.88,0.29541300000000004,-2.4426080000000003,0.622975,-0.12648,0.095093,0.182755
1189,11.89,0.32025,-2.266788,0.27454,-0.10624700000000001,0.095093,0.188095
1190,11.9,0.291535,-1.9839810000000002,-0.126862,-0.11476099999999999,0.119598,0.205139
1191,11.91,0.27358499999999997,-1.7255369999999999,-0.27812,-0.158447,0.120651,0.233902
1192,11.92,0.315762,-1.467373,-0.406308,-0.19253499999999998,0.12492400000000001,0.260529
1193,11.93,0.28503,-1.24347,-0.621691,-0.244736,0.09828200000000001,0.288223
1194,11.94,0.218506,-1.0555,-0.587248,-0.28308099999999997,0.072723,0.308456
1195,11.95,0.08402000000000001,-0.8081550000000001,-0.39768400000000004,-0.301193,0.052475,0.31912199999999996
1196,11.96,-0.044086000000000014,-0.588743,-0.13008599999999998,-0.288406,0.05140700000000001,0.312729
1197,11.97,-0.226809,-0.34031300000000003,0.07449500000000002,-0.23940999999999998,0.0578,0.291412
1198,11.98,-0.40015700000000004,-0.18241300000000002,0.277049,-0.161636,0.072723,0.258392
1199,11.99,-0.46416499999999994,0.021446999999999997,0.290799,-0.045532,0.09295700000000001,0.211517
1200,12.0,-0.47558500000000004,0.229895,0.25548000000000004,0.08444199999999999,0.129181,0.151871
1201,12.01,-0.542868,0.567396,0.260477,0.238907,0.152618,0.08048999999999999
1202,12.02,-0.9366110000000001,0.902806,0.313729,0.395493,0.178177,-0.005783000000000003
1203,12.03,-1.583473,1.167168,0.43232600000000004,0.49563599999999997,0.167526,-0.085678
1204,12.04,-2.214625,1.462056,0.682449,0.532913,0.167526,-0.120834
1205,12.05,-2.560302,1.659648,0.9449860000000001,0.531845,0.14941400000000002,-0.11338800000000002
1206,12.06,-2.679728,1.594876,1.053532,0.488174,0.150482,-0.063309
1207,12.07,-2.7663130000000002,1.055539,0.81197,0.409348,0.16539,0.005936000000000004
1208,12.08,-2.539612,0.837625,0.442658,0.29536399999999996,0.18457,0.075165
1209,12.09,-2.046657,0.855635,0.199229,0.136642,0.188828,0.114578
1210,12.1,-1.332163,0.9973709999999999,0.33812,-0.034865999999999994,0.174988,0.13908399999999999
1211,12.11,-1.0324870000000002,1.586342,0.8716219999999999,-0.185074,0.19203199999999998,0.15293900000000002
1212,12.12,-0.765085,1.713239,1.3467639999999999,-0.282013,0.128113,0.12204000000000001
1213,12.13,-0.42457700000000004,1.50367,1.469379,-0.341675,0.046082,0.041076999999999995
1214,12.14,-0.035807,1.610183,1.338544,-0.391739,-0.111572,-0.08248899999999999
1215,12.15,0.107351,1.839741,1.438731,-0.42794799999999994,-0.28733800000000004,-0.21991
1216,12.16,-0.227686,2.0106759999999997,1.183662,-0.436478,-0.475891,-0.349869
1217,12.17,-0.8593040000000001,1.865998,0.16757699999999998,-0.44393900000000003,-0.661255,-0.46278400000000003
1218,12.18,-1.499496,1.048851,-1.288659,-0.505722,-0.800797,-0.556534
1219,12.19,-1.7347270000000001,0.163126,-2.326492,-0.630356,-0.775238,-0.611923
1220,12.2,-1.8776970000000002,-0.17743499999999998,-3.092402,-0.760315,-0.6165010000000001,-0.63855
1221,12.21,-2.269101,0.203609,-3.7005239999999997,-0.911591,-0.408783,-0.625778
1222,12.22,-2.9479040000000003,1.028705,-3.817303,-1.007462,-0.110504,-0.535233
1223,12.23,-3.374401,2.492207,-3.368587,-0.928635,0.36993400000000004,-0.353073
1224,12.24,-2.55843,4.017818,-2.058351,-0.6452640000000001,0.8759309999999999,-0.11232
1225,12.25,-1.377501,5.395897,-0.606107,-0.16056800000000002,1.362747,0.07943700000000001
1226,12.26,0.4792969999999999,4.659955,0.08262199999999997,0.379517,1.8101650000000002,0.27331500000000003
1227,12.27,1.931629,2.6495490000000004,0.719647,0.710815,2.154251,0.369186
1228,12.28,3.132023,1.373933,1.24171,0.93132,2.2511900000000002,0.388351
1229,12.29,3.09497,0.55585,1.27158,1.055954,2.305511,0.36598200000000003
1230,12.3,3.003587,-0.02291100000000001,0.920457,1.100693,2.193665,0.328705
1231,12.31,3.10806,-0.248594,0.3287,1.070877,2.095657,0.288223
1232,12.32,3.9194120000000003,-1.015641,-0.18953299999999998,0.9888459999999999,2.0285490000000004,0.239227
1233,12.33,4.041999,-1.548435,-0.199026,0.8439639999999999,1.867691,0.14122
1234,12.34,3.4864379999999997,-1.9719490000000002,0.06505100000000001,0.690567,1.6589049999999999,0.04002399999999999
1235,12.35,3.018631,-2.268015,0.474872,0.569138,1.533203,-0.020706
1236,12.36,2.3734990000000002,-2.688949,0.8306549999999999,0.46048,1.423477,-0.059052
1237,12.37,1.8848080000000003,-3.049848,1.085317,0.357147,1.345703,-0.068634
1238,12.38,1.573727,-3.296518,1.382794,0.262329,1.282852,-0.071838
1239,12.39,1.282249,-3.430761,1.455185,0.203751,1.2263950000000001,-0.066513
1240,12.4,1.128687,-3.55139,1.358479,0.135574,1.17421,-0.053725999999999996
1241,12.41,0.847133,-3.304854,1.396955,0.06951900000000001,1.09964,-0.028168000000000002
1242,12.42,0.6873090000000001,-2.95368,1.379001,0.003479000000000003,1.0197450000000001,0.016585999999999997
1243,12.43,0.44001999999999997,-2.782479,1.617399,-0.06044,0.9281309999999999,0.08048999999999999
1244,12.44,0.26050300000000004,-2.618248,1.743844,-0.111572,0.821594,0.15293900000000002
1245,12.45,0.220106,-2.507459,1.79713,-0.141403,0.708679,0.22963000000000003
1246,12.46,0.22025300000000003,-2.403104,1.811781,-0.162704,0.601089,0.29035900000000003
1247,12.47,0.23936999999999997,-2.386715,1.749464,-0.175491,0.498825,0.33403
1248,12.48,0.293973,-2.316129,1.626333,-0.18293800000000002,0.410416,0.3564
1249,12.49,0.42339499999999997,-2.213453,1.462564,-0.18721,0.326248,0.362793
1250,12.5,0.46040699999999996,-2.048164,1.284359,-0.20318599999999998,0.24102800000000002,0.352142
1251,12.51,0.378321,-1.687707,1.255787,-0.214905,0.160065,0.331894
1252,12.52,0.352926,-1.228615,1.380655,-0.22023,0.07484400000000001,0.309525
1253,12.53,0.29237399999999997,-0.682469,1.516299,-0.206375,0.003479000000000003,0.29035900000000003
1254,12.54,0.217658,-0.108713,1.489047,-0.185074,-0.054047000000000005,0.275436
1255,12.55,0.199517,0.604383,1.16446,-0.149918,-0.11050399999999999,0.264786
1256,12.56,0.025996999999999992,1.358994,0.635984,-0.130753,-0.147797,0.263718
1257,12.57,-0.124977,2.139845,0.265148,-0.115829,-0.143524,0.271179
1258,12.58,-0.463739,2.724698,-0.057242999999999995,-0.091324,-0.11264,0.274368
1259,12.59,-1.07785,3.601943,-0.142344,-0.041260000000000005,-0.046585,0.260529
1260,12.6,-1.8288659999999999,3.9106629999999996,-0.168908,0.002411,0.071655,0.24560500000000002
1261,12.61,-2.20535,3.7185550000000003,0.200228,0.05140700000000001,0.166458,0.220047
1262,12.62,-2.2361880000000003,3.467521,1.0243010000000001,0.09295700000000001,0.1931,0.19128399999999998
1263,12.63,-2.1234490000000004,3.274557,1.6797240000000002,0.159012,0.197357,0.14761400000000002
1264,12.64,-1.950764,3.230281,2.1611029999999998,0.227188,0.168594,0.086884
1265,12.65,-1.4160469999999998,3.069408,2.2650509999999997,0.326248,0.087631,0.027237000000000004
1266,12.66,-1.1541299999999999,3.448703,2.026078,0.39975,-0.03167699999999999,-0.049469
1267,12.67,-1.443826,4.009974,1.890713,0.41679399999999994,-0.186142,-0.159195
1268,12.68,-1.815047,3.3464980000000004,1.742315,0.393356,-0.403458,-0.27211
1269,12.69,-2.052822,2.0815360000000003,1.410669,0.374191,-0.625031,-0.345612
1270,12.7,-2.176884,1.153823,0.9152870000000001,0.356079,-0.849792,-0.434021
1271,12.71,-2.031704,0.442392,0.7857649999999999,0.362473,-1.040482,-0.549072
1272,12.72,-1.9079220000000001,0.137364,1.357256,0.519058,-1.225845,-0.7450869999999999
1273,12.73,-1.7896619999999999,-0.289405,2.105629,0.9206700000000001,-1.430374,-0.9624020000000001
1274,12.74,-1.965196,-0.674894,2.2326919999999997,1.416016,-1.665787,-1.162674
1275,12.75,-1.600822,-0.336279,0.549614,1.740921,-1.7765810000000002,-1.248947
1276,12.76,-1.158236,-0.108365,-1.532306,1.707901,-1.870316,-1.183975
1277,12.77,-1.040915,-0.398386,-2.747158,1.4458469999999999,-1.976852,-1.002884
1278,12.78,-0.876326,-0.400713,-3.5638,1.09111,-2.041824,-0.747208
1279,12.79,-0.190901,-0.15276199999999998,-3.961386,0.64476,-2.091904,-0.446808
1280,12.8,0.838434,0.11248399999999999,-3.911655,0.168594,-2.083374,-0.160248
1281,12.81,1.478601,0.075311,-4.034565,-0.292664,-1.9321139999999999,0.07197600000000001
1282,12.82,2.100323,-0.160863,-3.233124,-0.709183,-1.845825,0.204071
1283,12.83,2.4741869999999997,-0.12103399999999999,-1.98037,-0.927567,-1.747818,0.23069800000000001
1284,12.84,2.733859,0.26518,-1.714046,-0.9818879999999999,-1.6881560000000002,0.181702
1285,12.85,2.9813560000000003,0.5277069999999999,-2.7640990000000003,-0.9605870000000001,-1.572052,0.077301
1286,12.86,2.3122700000000003,0.331442,-3.963807,-0.984024,-1.4548649999999999,-0.036682000000000006
1287,12.87,1.014817,-0.323298,-4.993044,-1.031967,-1.214127,-0.096344
1288,12.88,-0.8506290000000001,-0.9809760000000001,-5.423629,-1.1384889999999999,-0.96698,-0.068634
1289,12.89,-1.626325,-1.708934,-4.65205,-1.269516,-0.661255,0.027237
1290,12.9,-1.327523,-2.474279,-2.931953,-1.340881,-0.34272800000000003,0.09967000000000001
1291,12.91,-0.6456,-2.775002,-0.8214600000000001,-1.296143,-0.03167699999999998,0.138016
1292,12.92,-0.022031000000000026,-2.768104,0.529221,-1.1171879999999998,0.341171,0.142288
1293,12.93,0.615256,-2.5910330000000004,1.29369,-0.89241,0.6053470000000001,0.156128
1294,12.94,1.086147,-2.6181970000000003,1.749807,-0.658051,0.722534,0.175308
1295,12.95,1.177667,-2.6968080000000003,2.016016,-0.43966700000000003,0.7214659999999999,0.204071
1296,12.96,1.356251,-2.788383,1.9831889999999999,-0.259644,0.641571,0.24667399999999998
1297,12.97,1.5420280000000002,-2.951107,1.98705,-0.122223,0.513733,0.305267
1298,12.98,1.93482,-3.171618,1.9685119999999998,0.009872000000000006,0.353943,0.346817
1299,12.99,2.1331990000000003,-3.343951,1.9554639999999999,0.131302,0.17924500000000002,0.355331
1300,13.0,2.262988,-3.40581,1.6661290000000002,0.232513,0.0578,0.350006
1301,13.01,2.165918,-3.3970870000000004,1.284404,0.294296,-0.035934000000000015,0.31912199999999996
1302,13.02,1.910565,-3.167222,0.8860979999999999,0.312408,-0.10199,0.283966
1303,13.03,1.7350290000000002,-2.9426200000000002,0.624316,0.294296,-0.185074,0.250946
1304,13.04,1.261124,-2.4484790000000003,0.248099,0.24635300000000002,-0.268158,0.21579
1305,13.05,1.070866,-2.117124,-0.126486,0.146225,-0.36084,0.188095
1306,13.06,0.472249,-1.66025,-0.308705,0.029037,-0.45138500000000004,0.16677899999999998
1307,13.07,-0.039714,-1.320827,-0.384921,-0.099854,-0.524887,0.157196
1308,13.08,-0.438039,-0.775077,-0.390435,-0.20211800000000002,-0.577087,0.173172
1309,13.09,-0.941957,0.056678999999999924,-0.468875,-0.276688,-0.629288,0.182755
1310,13.1,-1.486501,1.13612,-0.355906,-0.296921,-0.6793520000000001,0.188095
1311,13.11,-2.04723,2.41383,-0.234683,-0.254318,-0.7315520000000001,0.160385
1312,13.12,-3.133622,3.324057,0.016707,-0.171219,-0.786942,0.084763
1313,13.13,-4.40564,3.6150949999999997,0.408036,-0.10199,-0.6878810000000001,0.055999999999999994
1314,13.14,-4.906346,4.181847,0.561258,-0.08067300000000001,-0.374695,0.125244
1315,13.15,-4.2065790000000005,3.898911,0.704773,-0.111572,-0.059372000000000015,0.25945999999999997
1316,13.16,-3.5144290000000002,3.018246,0.9425040000000001,-0.144592,0.08017,0.354263
1317,13.17,-2.874831,2.607096,0.6412479999999999,-0.171219,0.094025,0.38302600000000003
1318,13.18,-2.203971,2.68423,0.64303,-0.25325,0.023712,0.370255
1319,13.19,-1.4985950000000001,3.0643759999999998,1.105445,-0.326752,-0.078552,0.311661
1320,13.2,-0.8643280000000001,3.265068,1.635063,-0.375763,-0.206375,0.212585
1321,13.21,-0.292748,3.01408,2.05585,-0.383209,-0.36084,0.082626
1322,13.22,0.04438,2.991519,2.014266,-0.349121,-0.52063,-0.069702
1323,13.23,0.042124,2.7789599999999997,1.861266,-0.311844,-0.636749,-0.22630300000000003
1324,13.24,-0.668218,2.28483,0.8800540000000001,-0.260712,-0.761383,-0.352005
1325,13.25,-1.726716,1.7555830000000001,-1.390878,-0.270294,-0.884949,-0.43829300000000004
1326,13.26,-2.363244,1.189889,-3.5272449999999997,-0.405579,-0.90094,-0.48196400000000006
1327,13.27,-2.571807,0.785656,-4.485405,-0.6069180000000001,-0.709183,-0.493683
1328,13.28,-2.391994,1.32838,-4.791689,-0.7443390000000001,-0.323563,-0.46917700000000007
1329,13.29,-2.734914,2.3810599999999997,-3.7452300000000003,-0.686813,0.114258,-0.348801
1330,13.3,-2.858901,4.090223,-1.957768,-0.349121,0.509476,-0.16557300000000005
1331,13.31,-1.423292,4.948789,-0.6851189999999999,0.202682,0.894043,-0.020706
1332,13.32,-0.026638999999999968,5.474861,-0.399665,0.799225,1.242386,0.084763
1333,13.33,1.051928,3.1828119999999998,-0.453017,1.120941,1.615219,0.15506
1334,13.34,2.4072270000000002,1.487031,0.411067,1.277527,1.768616,0.162521
1335,13.35,3.766854,0.259706,0.617714,1.355301,1.89325,0.163589
1336,13.36,4.134361,-0.510718,0.533574,1.3776700000000002,1.868759,0.134827
1337,13.37,3.4014279999999997,-0.9191940000000001,0.372963,1.318008,1.720688,0.094345
1338,13.38,3.330174,-1.4172559999999998,0.180026,1.227463,1.656769,0.082626
1339,13.39,3.062042,-1.7613590000000001,0.27476100000000003,1.09964,1.575806,0.068771
1340,13.4,2.896713,-2.771688,0.30930799999999997,0.9771270000000001,1.50444,0.036819
1341,13.41,2.3588459999999998,-3.197955,0.5943069999999999,0.840775,1.4138950000000001,-0.0004580000000000001
1342,13.42,1.96122,-3.6229739999999997,1.110908,0.7214659999999999,1.365952,-0.017502
1343,13.43,1.7284680000000001,-3.988167,1.4385219999999999,0.645828,1.369141,-0.029220999999999997
1344,13.44,1.50301,-4.238795,1.392786,0.57872,1.359558,-0.038818
1345,13.45,1.320502,-4.5271419999999996,1.308252,0.500961,1.3606260000000001,-0.050537
1346,13.46,1.1238709999999998,-4.660549,1.171365,0.407211,1.338257,-0.049469
1347,13.47,0.905216,-4.759946,1.15909,0.30494699999999997,1.2764739999999999,-0.030289
1348,13.48,0.700847,-4.6202190000000005,1.1256709999999999,0.204819,1.191254,0.011261
1349,13.49,0.40873,-4.173722,1.083383,0.10787999999999999,1.085785,0.084763
1350,13.5,0.197131,-3.842304,1.214711,0.00027499999999999747,0.9749909999999999,0.177429
1351,13.51,-0.08344899999999998,-3.610071,1.4712020000000001,-0.088135,0.8620760000000001,0.276505
1352,13.52,-0.150497,-3.373049,1.7936599999999998,-0.15098599999999998,0.73851,0.37558
1353,13.53,-0.22795700000000002,-3.12121,1.967832,-0.191467,0.6277159999999999,0.468246
1354,13.54,-0.177979,-2.9575150000000003,2.017044,-0.221298,0.529724,0.536423
1355,13.55,-0.009653999999999996,-2.706202,2.002639,-0.24259899999999998,0.42958100000000005,0.572647
1356,13.56,0.18111300000000002,-2.39679,1.9231639999999999,-0.26178,0.324127,0.565186
1357,13.57,0.311449,-2.097829,1.8899560000000002,-0.280945,0.229309,0.533234
1358,13.58,0.289917,-1.458467,2.004629,-0.290543,0.1409,0.491684
1359,13.59,0.197906,-0.5757439999999999,2.0971189999999997,-0.299057,0.048218000000000004,0.446945
1360,13.6,0.14214300000000002,0.565271,1.96697,-0.30438200000000004,-0.037002999999999994,0.391556
1361,13.61,0.134529,1.8366369999999999,1.7300669999999998,-0.32142600000000005,-0.10731500000000001,0.326569
1362,13.62,0.145095,2.474153,1.472449,-0.348053,-0.152054,0.24881
1363,13.63,-0.260889,3.536569,1.283036,-0.34272800000000003,-0.19786099999999998,0.201935
1364,13.64,-0.881394,4.2981,0.878102,-0.256454,-0.116898,0.175308
1365,13.65,-1.8286240000000002,5.318348,0.556508,-0.12008699999999999,0.07591200000000001,0.126297
1366,13.66,-2.889606,5.917974,0.617857,0.010941000000000006,0.25807199999999997,0.044281
1367,13.67,-3.170632,5.849983,0.970549,0.134506,0.41467299999999996,-0.017501999999999997
1368,13.68,-2.610552,4.802657,1.4036799999999998,0.22824099999999997,0.376312,-0.07823200000000001
1369,13.69,-2.857103,4.338535,1.7824470000000001,0.328384,0.268723,-0.14640799999999998
1370,13.7,-3.17486,4.410346,2.157481,0.395493,0.159012,-0.227371
1371,13.71,-3.2824940000000002,4.300178,2.6179259999999998,0.434906,0.073792,-0.312592
1372,13.72,-3.5542519999999995,3.5011879999999995,2.513976,0.459412,-0.058303999999999995,-0.362656
1373,13.73,-3.157408,2.01304,1.617692,0.454086,-0.273499,-0.366913
1374,13.74,-2.078246,0.915298,0.396505,0.396561,-0.512115,-0.397812
1375,13.75,-0.9537200000000001,0.057956000000000014,-0.225454,0.29216,-0.752853,-0.477707
1376,13.76,-0.187877,-0.384377,0.15978800000000004,0.288971,-0.969116,-0.625778
1377,13.77,-0.2164,-0.628285,0.64174,0.46366899999999994,-1.166183,-0.809006
1378,13.78,-0.560476,-0.166329,0.48458500000000004,0.707611,-1.398407,-0.9528049999999999
1379,13.79,-0.751581,0.8186039999999999,-0.266447,0.876999,-1.593353,-1.006073
1380,13.8,-0.679126,1.8107900000000001,-1.062978,0.921738,-1.764862,-0.928314
1381,13.81,-0.21210199999999998,2.592722,-1.624087,0.8546299999999999,-1.967255,-0.781296
1382,13.82,0.821307,2.87137,-2.378044,0.682053,-2.051422,-0.567184
1383,13.83,1.874559,2.056959,-3.3894029999999997,0.355011,-2.030106,-0.331757
1384,13.84,2.5398509999999996,0.6661839999999999,-3.882692,-0.03167700000000001,-1.972595,-0.144272
1385,13.85,2.874255,-0.49040900000000004,-3.711677,-0.392807,-1.8894959999999998,-0.016449000000000002
1386,13.86,3.268036,-1.303717,-3.2549080000000004,-0.665512,-1.802139,0.027237
1387,13.87,2.961481,-1.343836,-3.110795,-0.8529969999999999,-1.7669979999999998,-0.00473
1388,13.88,2.6731380000000002,-1.00722,-4.0704910000000005,-0.9914860000000001,-1.662598,-0.035614
1389,13.89,1.959513,-1.255296,-5.234504,-1.153397,-1.4175870000000002,-0.066513
1390,13.9,0.3251720000000001,-1.6248989999999999,-5.696115,-1.321716,-1.177902,-0.065445
1391,13.91,-1.004314,-1.9601,-5.45204,-1.4644620000000002,-0.8668370000000001,-0.019638
1392,13.92,-1.5844129999999998,-2.644091,-4.362667,-1.555008,-0.568573,0.012314000000000002
1393,13.93,-1.5677940000000001,-3.3461830000000004,-2.615855,-1.535828,-0.288406,0.044281
1394,13.94,-1.1230120000000001,-3.5134019999999997,-0.8745290000000001,-1.3653870000000001,0.020523000000000013,0.060257000000000005
1395,13.95,-0.6027859999999999,-3.4225769999999995,0.436749,-1.1118620000000001,0.310272,0.095413
1396,13.96,-0.297721,-3.319265,1.3880379999999999,-0.824234,0.531845,0.143341
1397,13.97,0.046196,-3.39206,2.013162,-0.533417,0.6745909999999999,0.21579
1398,13.98,0.672489,-3.364075,1.94595,-0.26603699999999997,0.769409,0.29035900000000003
1399,13.99,1.0406959999999998,-3.4883910000000005,1.630183,-0.097717,0.7331850000000001,0.352142
1400,14.0,1.404477,-3.801819,1.328486,0.021591,0.6426390000000001,0.410736
1401,14.01,1.508404,-3.84988,1.503203,0.122787,0.525452,0.468246
1402,14.02,1.8976529999999998,-4.037202,1.5140069999999999,0.225052,0.400818,0.501282
1403,14.03,2.12865,-3.928209,1.343065,0.309204,0.25807199999999997,0.466125
1404,14.04,2.027243,-3.5059839999999998,1.099218,0.355011,0.155807,0.404343
1405,14.05,1.74836,-3.019622,1.016247,0.34436,0.081238,0.332962
1406,14.06,1.296935,-2.515966,1.051564,0.312408,0.003479000000000003,0.264786
1407,14.07,0.9842799999999999,-1.8734369999999998,0.9806959999999999,0.25914,-0.083878,0.218979
1408,14.08,0.896803,-1.28881,0.704396,0.177109,-0.172287,0.182755
1409,14.09,0.323579,-0.8425290000000001,0.541177,0.071655,-0.302261,0.14122
1410,14.1,-0.07790199999999997,-0.475735,0.206134,-0.031677,-0.41517600000000005,0.109253
1411,14.11,-0.4945580000000001,0.108557,0.07788400000000001,-0.157379,-0.5142359999999999,0.086884
1412,14.12,-1.243394,1.017995,0.200107,-0.251114,-0.53981,0.050674000000000004
1413,14.13,-2.04898,2.225625,0.024658000000000003,-0.303314,-0.534485,0.017639000000000002
1414,14.14,-3.336735,3.377639,0.200291,-0.341675,-0.633545,-0.042007
1415,14.15,-3.8782370000000004,3.7500080000000002,0.877288,-0.39813200000000004,-0.586685,-0.0271
1416,14.16,-3.3228410000000004,3.7541269999999995,1.4719360000000001,-0.408783,-0.268158,0.01445
1417,14.17,-2.420004,2.973138,1.855272,-0.370438,-0.085999,0.037888
1418,14.18,-1.431389,2.636425,2.063904,-0.28308099999999997,-0.097717,0.015518
1419,14.19,-0.598128,2.953003,2.269806,-0.195724,-0.221298,-0.065445
1420,14.2,-0.205823,3.7429089999999996,2.67578,-0.130753,-0.403458,-0.19433599999999998
1421,14.21,-0.048179,4.10635,2.968076,-0.042328,-0.601593,-0.345612
1422,14.22,-0.185755,2.9915279999999997,2.163125,0.0578,-0.814651,-0.47131300000000004
1423,14.23,-0.730377,2.142809,0.091677,0.100418,-0.9659120000000001,-0.566116
