,ts,ax,ay,az,wx,wy,wz
0,0.0,-0.28474393596316044,-0.03562305572638552,-6.564948218986996,0.048068085411478785,-0.004526609361557795,-0.14941747612207645
1,0.01,-0.0566021807537615,-0.007829886780891096,-1.2919433133749534,0.07605475168918929,-0.007891669579112002,-0.14882857548528355
2,0.02,0.07938199214179538,0.007504486852673853,1.849061718952706,0.10237147540024832,-0.010394252375579104,-0.14602120287447326
3,0.03,0.14765009496861664,0.013469256986263469,3.4269587816951805,0.12380890987743542,-0.0162386939462417,-0.14370161424183833
4,0.04,0.16827039043831327,0.014887430249505389,3.9002105370948223,0.14231252032368752,-0.0240925317854558,-0.1416753208594914
5,0.05,0.15675365551106646,0.014085009472904385,3.6326655260120777,0.1533978521388219,-0.03042637329768129,-0.13479250703515838
6,0.06,0.12568601791822223,0.012504151270967085,2.908648949866452,0.1605411584026579,-0.035952498538137936,-0.1253289694843795
7,0.07,0.08408801402034857,0.009233436758293311,1.9451765090824473,0.16670545541074575,-0.041981241723830734,-0.1143965373812296
8,0.08,0.039024050383265924,0.005165364437591198,0.9036911827028709,0.17173882793374526,-0.048590595294537665,-0.10176727881240974
9,0.09,-0.004125203085809867,0.0026740854174060746,-0.09983507181460194,0.1771128500277796,-0.056212200253918654,-0.08194919533368641
10,0.1,-0.04195619474884302,0.0014420539300218256,-0.9875148298187043,0.18266813088697464,-0.06437242158726393,-0.05830595651375047
11,0.11,-0.07178533123839248,0.003085566609837007,-1.7105260117034409,0.1852299695165661,-0.06824902149694857,-0.03865920559933717
12,0.12,-0.09367072192067949,0.004397902858741115,-2.2449925218284243,0.18627569594731344,-0.06995606201730706,-0.02103658730594936
13,0.13,-0.10788098565737655,0.003827071474346229,-2.584631077206995,0.1873214223780608,-0.07166310253766554,-0.003413969012561552
14,0.14,-0.11719577154967978,-0.005580986173004956,-2.7350128172882044,0.1798895321057246,-0.07529982621942573,0.030807784773653327
15,0.15,-0.11874092342510764,-0.013591453477522308,-2.713613334407777,0.16811369667457918,-0.07992532282175896,0.0735349637035007
16,0.16,-0.11080648021068461,-0.010667900139390032,-2.5433516564913456,0.15687658386651576,-0.0826786202328259,0.110119410338817
17,0.17,-0.09665360067007672,-0.0050132266075344194,-2.251002477206044,0.14596588834717705,-0.08429753390394623,0.14298191559830775
18,0.18,-0.07894578652835657,-0.0006244905511404927,-1.8646715795270987,0.12995019157757587,-0.08506303143703174,0.1702782960841536
19,0.19,-0.05890578110068673,0.0014629788335865507,-1.4130030848989186,0.1108518436921386,-0.08531319428532162,0.1942135763658659
20,0.2,-0.03817299380802308,0.002762755699479146,-0.9232587762542979,0.08792070429104044,-0.08511793050939175,0.2150648361396804
21,0.21,-0.01714962962634583,0.0019422666678018717,-0.4206031007586766,0.06282987436110524,-0.08467167899836367,0.23417832075551115
22,0.22,0.003670419631641768,0.0005896664049728807,0.07249655716862435,0.03779078036919481,-0.08451942682885773,0.2524923611663517
23,0.23,0.023275335930752573,-0.0024395320786632715,0.5370183640363352,0.012779336564815495,-0.08452430212697823,0.270379139928277
24,0.24,0.041175034734656946,-0.005013222487074653,0.9568762796073504,-0.011810732891349936,-0.08108153203401879,0.2851043389534333
25,0.25,0.05647066154612987,-0.008656878878570178,1.3202372186596227,-0.036188531059317415,-0.07590197817262058,0.29823686247209685
26,0.26,0.06829198946667753,-0.011351103356868347,1.6179708093142298,-0.05832818872794776,-0.07388433038725914,0.30673114992831185
27,0.27,0.07697915246819909,-0.014428890473378846,1.84479673656767,-0.07922629084595079,-0.0736206752759181,0.31265248553893965
28,0.28,0.08289200214661085,-0.016590595982759502,1.9976740272722457,-0.09663840903323463,-0.0741628057080997,0.3152737287995097
29,0.29,0.08583845837812987,-0.018757703893155758,2.077183355053986,-0.11234362580829237,-0.0750994865769801,0.3162790918940378
30,0.3,0.0854893516816344,-0.0191610303463194,2.085326299679113,-0.12679460684142851,-0.07638542601471958,0.31325088806602097
31,0.31,0.08252427603854552,-0.019165066223844722,2.027094133559805,-0.14067069171926944,-0.07783145290789499,0.3083738435150117
32,0.32,0.07701831804052245,-0.016867229508974374,1.9077658283254737,-0.14776112487948,-0.07909970698531871,0.2897673572024009
33,0.33,0.0696247954743307,-0.013991980888070417,1.7356072096253872,-0.15075753729038108,-0.08026070451220955,0.2628774190140635
34,0.34,0.0609007672179283,-0.011794262174862683,1.519539799558907,-0.15375394970128214,-0.08142170203910039,0.2359874808257261
35,0.35,0.050996900663173396,-0.009226625922906705,1.2680320244392438,-0.15675036211218324,-0.08258269956599122,0.2090975426373886
36,0.36,0.039867244568701464,-0.0040957024165418875,0.990157257546956,-0.159290951555314,-0.0804871010632244,0.17912625330151927
37,0.37,0.02798757594397688,0.0025244899780407348,0.6949621426305213,-0.16134382646306805,-0.07490705940639,0.14585802666869435
38,0.38,0.016170728505066893,0.0074337426588405,0.39212783784550953,-0.1597793586184342,-0.07314945515016262,0.10862997159100624
39,0.39,0.004479303883851444,0.01186766282395413,0.08925600628719804,-0.15631630984154676,-0.07339807680623918,0.06932358020541647
40,0.4,-0.005529020872867647,0.015699080353044785,-0.2054375112473255,-0.15132824582639348,-0.06833319748948892,0.0369419219695764
41,0.41,-0.015462495310903879,0.019811949354440396,-0.485129042601778,-0.14559109141534884,-0.06065831635280256,0.007961705874397755
42,0.42,-0.025220293057976757,0.023986175161538923,-0.7428995367457778,-0.13685054381530526,-0.0516358172798347,-0.017229943774638056
43,0.43,-0.03487317137083955,0.02825795889881268,-0.973629215429473,-0.1265517351074822,-0.04191412882801846,-0.04045595809863986
44,0.44,-0.0428513508396496,0.030792982128910622,-1.1732133778019638,-0.11175293932502407,-0.033292075823491134,-0.062238858458685674
45,0.45,-0.050192252730806186,0.03309730265976056,-1.3375731676948417,-0.09447740647048004,-0.02527524853026232,-0.08322748679205802
46,0.46,-0.056967539552666896,0.0346340830366848,-1.464038234865769,-0.07012163066911797,-0.01761277168551378,-0.10029470630657666
47,0.47,-0.06254565472726555,0.03527936548992877,-1.5512694523662998,-0.03782967587010309,-0.01034748298927387,-0.1129664548544693
48,0.48,-0.06612361041005695,0.03401606801775703,-1.5995038128916512,-0.00953499840493149,-0.004996721889315294,-0.12109492344199135
49,0.49,-0.06820413725082687,0.03275265796415229,-1.6087754491892523,0.01648966675180794,-0.0007332011395810889,-0.12664331049667207
50,0.5,-0.06950975243179056,0.030097345744351817,-1.5807762005059507,0.04063381588474418,-0.000246932711516261,-0.13433717800693334
51,0.51,-0.06903250667966523,0.02781005534517267,-1.517479993234074,0.06386217468638596,-0.0016001440386138447,-0.14307587057177104
52,0.52,-0.06575473205277835,0.024321719722384526,-1.4222926444893869,0.0783489719760954,-0.002885838765673947,-0.14277937971640134
53,0.53,-0.06061197772051128,0.020977393672888044,-1.298446078540223,0.08871074038631485,-0.0041396732896548365,-0.1382193036321261
54,0.54,-0.054163878392461354,0.018067523700590504,-1.1498829429672899,0.09907250879653433,-0.005393507813635727,-0.1336592275478508
55,0.55,-0.046495498756434155,0.01445564037945447,-0.981216919577865,0.10943427720675376,-0.006647342337616618,-0.12909915146357553
56,0.56,-0.03821238574842252,0.006022130686170985,-0.7980198492473534,0.11876113748362495,-0.00957276178019568,-0.11686288381902925
57,0.57,-0.029294857118312166,-0.005153249342114911,-0.6044371153366821,0.1268789593774779,-0.01445102153964529,-0.09565885378793916
58,0.58,-0.01927561970150532,-0.012639563263192936,-0.40353468374719315,0.1349967812713308,-0.019329281299094902,-0.07445482375684909
59,0.59,-0.008941746859858993,-0.01820721017508648,-0.19918259883690176,0.1428969183360125,-0.023239085459670832,-0.049579644974163874
60,0.6,0.0015155866203909255,-0.023132046651426083,0.0025373825933871497,0.1506801493458027,-0.02662878758174926,-0.022732902444464617
61,0.61,0.012341433184929895,-0.029010360493364994,0.19734767682674417,0.15867817012930058,-0.024905490742059732,0.005157068703616414
62,0.62,0.022455455464109098,-0.03483936227829308,0.3810317377592732,0.1667854164863644,-0.02058211553457417,0.03357754576096958
63,0.63,0.031196941520343704,-0.040954197162489034,0.5511749569846484,0.16661470225463318,-0.017719520692877157,0.06474365441529123
64,0.64,0.03856183769085178,-0.04628044893293793,0.7041531623062474,0.16223068470827912,-0.015600431536075975,0.09730723030615654
65,0.65,0.045299599851435356,-0.04937055931525436,0.8379125295189462,0.15039540730076792,-0.01147090945180806,0.13466863094141665
66,0.66,0.05038742927773756,-0.05158922257993501,0.9504919527060844,0.13506170590260325,-0.00639747359777435,0.1742826473089826
67,0.67,0.053315725691933935,-0.05164835329825464,1.040812254600741,0.11657715477947078,-0.00149308337820191,0.2064120109562673
68,0.68,0.054578063150850786,-0.051546467724167155,1.1082755340532577,0.09650176831739672,0.0033259572396222127,0.23476244158977566
69,0.69,0.054663955094254424,-0.05035093308142318,1.1525443062204082,0.07300465147074721,0.005570586782822657,0.2578053151343419
70,0.7,0.05356335848866594,-0.04922878697899964,1.1740678167709366,0.04761271686607616,0.006389610193338393,0.2779090753375486
71,0.71,0.05125406885700952,-0.04597770803048301,1.1732261574909857,0.0249089749587138,0.00983522393057448,0.29662105180328674
72,0.72,0.048037735104689554,-0.04305768643638796,1.1512597571936167,0.003445423661522944,0.014492608186801672,0.3146909325128962
73,0.73,0.044001094327534226,-0.03917552400250417,1.1089702303763929,-0.011768334732740426,0.0188367282236196,0.3240158326587181
74,0.74,0.03942773599531477,-0.03538451295859767,1.0483549565194248,-0.02378254689638503,0.02302047440998094,0.3288637893226857
75,0.75,0.03469096950550946,-0.030797110141587043,0.97111001397148,-0.03584196410835703,0.026707021028053286,0.3285583152238544
76,0.76,0.029630575939211996,-0.025596333703265015,0.8792279856245033,-0.047928458088962615,0.030095756711873863,0.3251660564052525
77,0.77,0.02402213857068971,-0.018925235036462935,0.7748384463633788,-0.05987046887325467,0.0312381341242005,0.3202146971983001
78,0.78,0.01811700886140155,-0.010686470594920935,0.6600190887218061,-0.07163913796095768,0.029685474578162008,0.3133928290784433
79,0.79,0.012564378143298452,-0.0009629001765311465,0.5369182313722689,-0.08535112256170625,0.030853755611623724,0.3007714903875075
80,0.8,0.007245555724591175,0.009840030585704693,0.4079751821991766,-0.10130076306301854,0.0351550990335289,0.2814722759443309
81,0.81,0.0019317789852573665,0.020029564485493725,0.2758115110310812,-0.113618723520646,0.038537605643332466,0.26257396987025744
82,0.82,-0.0033436622477989782,0.029408171532139277,0.1427940302776739,-0.12390713246516198,0.041406623559233614,0.2438997100164857
83,0.83,-0.007921799535578613,0.039045234237643875,0.01129294713181797,-0.13097152183578156,0.045640254884057804,0.22324218824427375
84,0.84,-0.012386725524460997,0.047826477291383354,-0.11653466049592069,-0.13635274725838514,0.05058630995204884,0.20154926489211514
85,0.85,-0.01677962971434871,0.05577925465235216,-0.23848433729041574,-0.1357289405024996,0.05568321351122515,0.17687643277685489
86,0.86,-0.02100610326163687,0.062493803295648416,-0.3527821083196869,-0.1320295184451559,0.06085737759355956,0.15067737187275068
87,0.87,-0.02395824530646733,0.06688758896456182,-0.45724955032952636,-0.12652327150537898,0.06724599652556225,0.1284024265329289
88,0.88,-0.026705388807708032,0.07032318499789086,-0.5509881458394883,-0.12017687481804228,0.07419932095021763,0.1079521431915004
89,0.89,-0.02926746212947208,0.07298216714973754,-0.6331611258910922,-0.11167299791926684,0.07880137388211701,0.08432359701601552
90,0.9,-0.03156456907499421,0.07484671992842594,-0.7022683276108541,-0.1018327061526771,0.08194697119299751,0.058726329327937005
91,0.91,-0.034110259463175405,0.07325750351065499,-0.7579545332859436,-0.09258924317228263,0.08513506299540542,0.038035387831890935
92,0.92,-0.0358814473123497,0.07101510318059766,-0.7988324734878506,-0.08367656841874123,0.08834670707583428,0.02006374369375408
93,0.93,-0.036316082027287006,0.06956447149858351,-0.8242145701786171,-0.07476389366519977,0.09155835115626312,0.002092099555617212
94,0.94,-0.03207465665555703,0.07213728018371238,-0.8364120714921071,-0.05296670335724131,0.0828622440065245,-0.026156566165172184
95,0.95,-0.030467089737029992,0.06715517596703413,-0.832947745961621,-0.030105872226839032,0.07252983547327836,-0.046402018114085834
96,0.96,-0.03073327518968009,0.05721192595812437,-0.8139779148426851,-0.01088092046969523,0.06514174621794132,-0.058111927919573626
97,0.97,-0.030908820184637302,0.04685011118324289,-0.7820083680174726,0.004047011242005234,0.05501840413825356,-0.07580881618537409
98,0.98,-0.029369086793054992,0.036750469768345465,-0.737903108110177,0.016864238505496575,0.043551500650362514,-0.0964465196984561
99,0.99,-0.025758779319113335,0.02515044998021653,-0.6824313714510948,0.030886242655434062,0.03483637754159101,-0.10612746733853658
100,1.0,-0.020723001754900806,0.013856040402725561,-0.6176974902875938,0.045492831104795226,0.027456478923920592,-0.11049195553452136
101,1.01,-0.015149643223791757,0.0021500155440921653,-0.5447605367845503,0.060233553208350776,0.02158810963219995,-0.1105190818970552
102,1.02,-0.009386030310829413,-0.009725413203352844,-0.465559164984581,0.07511494939013233,0.01730497259197223,-0.1059973544949024
103,1.03,-0.0030491040254607077,-0.021308205869859258,-0.3816191684598535,0.09066925821316957,0.015972267465082516,-0.1010955684654534
104,1.04,0.002997879012195769,-0.03191293392395708,-0.2952085809108247,0.10663059764845084,0.016424216146790287,-0.09596389301756764
105,1.05,0.008048443956978318,-0.04293484173816946,-0.20750299692374355,0.11696957274821662,0.015350532171828737,-0.08246208976219163
106,1.06,0.01220233750292558,-0.05283579390044315,-0.1201619869075597,0.12376949074710307,0.013316522475388679,-0.06369162042887283
107,1.07,0.015564764126848419,-0.06039192682069559,-0.03472912552993279,0.13056940874598952,0.011282512778948626,-0.044921151095554
108,1.08,0.018197326017431938,-0.06719503873675663,0.047884138271571924,0.13628764532687168,0.011570603021294142,-0.028022135902098382
109,1.09,0.020012677548428087,-0.07291936852535139,0.12712939455609001,0.14141933165085946,0.013117870219958305,-0.012137931435934404
110,1.1,0.02076184630955324,-0.07830536574572818,0.20162822149229967,0.14389669632314936,0.010590922642450344,0.004865143864378956
111,1.11,0.020868568385857635,-0.08238845390581888,0.2711601046178922,0.1449623261953941,0.005897052009968484,0.022463304877953137
112,1.12,0.019833259066810313,-0.08428451827943455,0.3342893377480756,0.1362669640070163,0.0003025753158217752,0.04392358174499488
113,1.13,0.01861926495429757,-0.08474899678769202,0.3909802370386111,0.1220619554865474,-0.005800253485722742,0.0675638514154332
114,1.14,0.01779303714369565,-0.08417729795561826,0.44090787965088263,0.10785694696607853,-0.011903082287267256,0.09120412108587153
115,1.15,0.01707827639927947,-0.08248229730778592,0.4829657880384852,0.09365193844560964,-0.018005911088811773,0.11484439075630985
116,1.16,0.015232577529088614,-0.07789247167904176,0.5159453934382318,0.07987195844766931,-0.025560488766931483,0.13607411124713806
117,1.17,0.013425862182568851,-0.07230677354811925,0.5397967501355335,0.06635148612067526,-0.034001453945630436,0.15583203403464818
118,1.18,0.01160976121013393,-0.06631003642623604,0.5550262106343303,0.05760501958752294,-0.04131661217688525,0.17626696454234844
119,1.19,0.010315958092118688,-0.05995461105038856,0.5608508556448446,0.051720513021632095,-0.047956862468437465,0.19710775316509546
120,1.2,0.0097057279230542,-0.051841086434860566,0.558069169691709,0.04288244028577594,-0.05063843178239123,0.2137253464860116
121,1.21,0.009438267365494463,-0.04329319678543038,0.5456837338651769,0.03260862450608615,-0.051395666800353824,0.2282900237967793
122,1.22,0.00878554486830467,-0.033704666938567045,0.524669469623418,0.021042778288665912,-0.051424408128443386,0.23380595953426464
123,1.23,0.008097835510274272,-0.023926813634104423,0.4948671614926827,0.008886907974772994,-0.05112047244010879,0.2351896585882481
124,1.24,0.0077911089665275894,-0.01235166036863642,0.4573291745466769,-0.011077716518495002,-0.04956899473120621,0.24044090407295265
125,1.25,0.007230070016283771,-0.0007868019212473772,0.4130531977676105,-0.035362748341202885,-0.0473272801976278,0.2478319756505787
126,1.26,0.005679007914384732,0.011752848054325658,0.3631704890295871,-0.05738996710550862,-0.04477764354821519,0.2493638839681513
127,1.27,0.003656121608010508,0.023960076042125147,0.3090971978033053,-0.07761199180494469,-0.04198181327622722,0.2462112030533292
128,1.28,0.0027529377594172327,0.03566761348426429,0.25102800064036246,-0.09482225692150974,-0.03587237610494807,0.24114167317898125
129,1.29,0.001661724925166677,0.04581902168203589,0.19149674350725207,-0.11030583042070817,-0.02786319325383616,0.2349731820698139
130,1.3,-0.000738810931092555,0.05496556428306398,0.13122878455508397,-0.1198478655802404,-0.026250735383615886,0.23015411653177906
131,1.31,-0.0035075974423862963,0.06262625778329087,0.07220463122642874,-0.12617934675093262,-0.02809479495531919,0.22606422303680224
132,1.32,-0.005927907461337815,0.06784630031221585,0.014365138885427054,-0.12349756601365836,-0.030942447736490818,0.2109270411834389
133,1.33,-0.008048516573162528,0.07224652658022862,-0.04042994430194749,-0.1158354717954878,-0.03434463991100163,0.1896856364970532
134,1.34,-0.009879953908693473,0.07665610800398664,-0.09098992183359819,-0.10817337757731726,-0.03774683208551245,0.16844423181066742
135,1.35,-0.011332565666785126,0.0808480105102225,-0.1375433508875518,-0.10051128335914672,-0.04114902426002326,0.14720282712428168
136,1.36,-0.015609812488025216,0.08738876636528692,-0.18167602528336707,-0.09060001447208962,-0.048858364432913685,0.11520325449020795
137,1.37,-0.018371194569463276,0.09213907859877617,-0.22118343754389935,-0.07961712493591147,-0.05861984790873796,0.07807794614563826
138,1.38,-0.016926767642696426,0.0915448634372298,-0.2526857790131196,-0.07651576101341079,-0.06195464132873691,0.04298077740061975
139,1.39,-0.013728029661793813,0.08851189805169649,-0.2793401614350685,-0.07816149768084983,-0.061418592268388576,0.009105171987553326
140,1.4,-0.009867735750065953,0.08465784982234306,-0.3019791171991336,-0.07791387164895408,-0.0585426461412594,-0.026337861920057926
141,1.41,-0.006318806353650734,0.07999881558670821,-0.32099898607544763,-0.07650973283421726,-0.054237432991380036,-0.0627383199338731
142,1.42,-0.002884457809384598,0.07383794249701468,-0.3358155007184064,-0.07077545540291716,-0.04722135433283455,-0.09311993327434956
143,1.43,-0.00045034369703640404,0.06678850381890031,-0.3463819673658034,-0.06282339791804077,-0.03881684357420556,-0.12041885692654565
144,1.44,0.0018486235869112017,0.057895115037658734,-0.35215245539204826,-0.04671899415720438,-0.028572454066984943,-0.14593481359204702
145,1.45,0.003048949800204275,0.04830765876925779,-0.35282772212491265,-0.025677106428333124,-0.017213738509718145,-0.1703709129239241
146,1.46,0.0030950680351751565,0.03623770603645573,-0.34843643493598425,-0.0016565847588820776,-0.010850224556821816,-0.18885473146409876
147,1.47,0.002166792499015505,0.024273625155680996,-0.33860034914641884,0.02415111727491684,-0.0074838315665477625,-0.20376718152925188
148,1.48,0.0014208963736773573,0.01193200009250828,-0.32392281454803845,0.047002537576474455,-0.0030417603399219865,-0.21001313920474224
149,1.49,0.0002889417931990798,0.0006513938423338902,-0.303939824587779,0.06807184927169141,0.0020487522790613496,-0.21103475357561294
150,1.5,-0.0013418548377189064,-0.01029282630070619,-0.2792753736017447,0.08595125848964677,0.006567198197762786,-0.21351448957382285
151,1.51,-0.0030527051356076204,-0.020417249601219118,-0.2501181827217996,0.10145063395776127,0.01065881663081649,-0.21708215183597895
152,1.52,-0.004368649177997475,-0.030184393248159098,-0.21751784333870144,0.1101525981550986,0.009783334755328698,-0.21233268270261374
153,1.53,-0.005319787897854151,-0.03887425680331576,-0.18155458964165852,0.11553828329323665,0.0064845346367658355,-0.20352550283484674
154,1.54,-0.006281500953110459,-0.0470365470083252,-0.14337962633259171,0.11767189514173185,0.0015327080001934705,-0.19027071360424894
155,1.55,-0.006613131429317288,-0.054622099406164124,-0.1036377470952095,0.11784341755797975,-0.004416447285933129,-0.17433252626040255
156,1.56,-0.00603319823406878,-0.061699504926558485,-0.06303358291586447,0.12040814517645675,-0.00712656871656073,-0.15931625762981566
157,1.57,-0.004663657726976173,-0.06831589348839481,-0.022731497336513102,0.12407594984577852,-0.008343753432199383,-0.14472492012272534
158,1.58,-0.0029301866947737797,-0.07578806518417394,0.01674711106818887,0.12899751965761858,-0.009833561896475915,-0.12632531793532298
159,1.59,-0.0007790299534442763,-0.08244664911152502,0.05408495402528405,0.1346675043692883,-0.011486108714698216,-0.10565243350981676
160,1.6,0.0017751522447379325,-0.08720875155997573,0.0890639254433592,0.13724001066867425,-0.012535438729434,-0.08156762276687489
161,1.61,0.004419259469408422,-0.09028158942710349,0.12044382705448739,0.13816508359682111,-0.013263940199178178,-0.05566813552666945
162,1.62,0.0068749246379398625,-0.09207779713085967,0.14847988476509305,0.13428329803236425,-0.011845486723931282,-0.03170686984604698
163,1.63,0.009022208680930493,-0.09228678577023686,0.172141810742185,0.12758206841790648,-0.0091677452220888,-0.008882460441131022
164,1.64,0.011187382234521034,-0.08980534371073864,0.1915504176889975,0.11564984741277702,-0.004763165443853294,0.01623890841381376
165,1.65,0.012732747385359006,-0.08590453481314748,0.206269979115081,0.10117134840986892,0.0004819835459359961,0.04247836309085109
166,1.66,0.013632898307124216,-0.07984411398800004,0.2164863526898813,0.08579442970259782,0.003195322766924147,0.06954434440152266
167,1.67,0.013718411216949966,-0.07301450523236078,0.22254312710705804,0.06994241028329623,0.0045697948437014545,0.09704740805827904
168,1.68,0.01281456774328659,-0.06433790368421723,0.2245501352155454,0.052969325354197135,0.007766624395979295,0.11712107399115487
169,1.69,0.011340503139969793,-0.055451968858880124,0.22322412909536465,0.03541536953016272,0.011907693520730695,0.13334525845574402
170,1.7,0.009627665172792024,-0.04428556503119535,0.21825647675117452,0.02068639816404377,0.015846418253694504,0.1453648250394315
171,1.71,0.0076932339880084535,-0.033654143504222286,0.21087785219742572,0.007325058038904352,0.01968718403652309,0.15534885236406562
172,1.72,0.005587022125878683,-0.024591157108496742,0.20170145656092153,-0.006036282086235061,0.02352794981935168,0.16533287968869975
173,1.73,0.003929935418849724,-0.01511741598052747,0.1907365896519231,-0.022187710732399203,0.0255839164918874,0.17641036767333404
174,1.74,0.002936273568215207,-0.004285384976445778,0.17798974958740274,-0.044084041744735715,0.02396491136528538,0.18973933430662568
175,1.75,-1.229615965577793e-05,0.007619736703328127,0.1622503751793141,-0.05947909778554264,0.025415370529042858,0.1949029913456932
176,1.76,-0.003303781572547149,0.01930700080095613,0.14474324722715973,-0.07095337850687305,0.028716955800580462,0.19514233054355026
177,1.77,-0.005780999809134614,0.030708472303915192,0.12611351106059274,-0.07894822970571957,0.030340377441676083,0.1920685597783462
178,1.78,-0.007634605282599662,0.04161800882930136,0.10658129173041862,-0.08422804804057338,0.030654311599733208,0.18640953692695791
179,1.79,-0.009085540025346625,0.052656502498058,0.08642910171864722,-0.09370503248227524,0.03402403431702442,0.1722859947895415
180,1.8,-0.010120056447519545,0.06277411295642817,0.0657794597895999,-0.1057337913330449,0.03925160179110357,0.15301623180946994
181,1.81,-0.010196760568632095,0.07232887863435036,0.04465835269387199,-0.11715312280674288,0.04224938586508915,0.1358153636728756
182,1.82,-0.010022515272094168,0.08040566442330874,0.023455898434015923,-0.12820382456062324,0.04389842116119757,0.11986592623200673
183,1.83,-0.00998003993136796,0.08726215553492425,0.0022216940394128816,-0.13596898016120856,0.04650496958893145,0.10466006070121782
184,1.84,-0.00998413367623134,0.09216263654868194,-0.018402025341650245,-0.14216586871772585,0.049568561143904497,0.0898091192126018
185,1.85,-0.009965249036461243,0.09552302015228398,-0.03821782267303167,-0.14339319401430115,0.05107147271182897,0.07212574375514436
186,1.86,-0.009787113142321141,0.09699265341478072,-0.056812123906053794,-0.1417367904406952,0.0516687558169781,0.05279876881387121
187,1.87,-0.00912207801691885,0.09585022989341661,-0.07371183796999989,-0.13403030006080224,0.052259569803725585,0.031918635934914334
188,1.88,-0.008257732384002197,0.09309711505614766,-0.08898738177475539,-0.12289991151023574,0.05284672275165323,0.01015953143259559
189,1.89,-0.007388541630505606,0.08879381988304728,-0.10226570502128124,-0.1130458725253396,0.0541568341241161,-0.00857715361562124
190,1.9,-0.006414745856736848,0.08352631375042004,-0.11379628619892108,-0.10387097587866516,0.05585162982451077,-0.025705617005481098
191,1.91,-0.006061093415694516,0.0738046567137372,-0.12322157891709527,-0.09584768320324807,0.056927389268030926,-0.0390683875361444
192,1.92,-0.005301149422482533,0.06437184214351595,-0.13081597029995365,-0.08836906578953485,0.057710362524951576,-0.05065009461550704
193,1.93,-0.0037487795927129983,0.057061213954481896,-0.13660116792361807,-0.08089044837582163,0.058493335781872234,-0.062231801694869686
194,1.94,-0.0017419025769610866,0.05034991727816232,-0.14029332654179752,-0.0734118309621084,0.059276309038792885,-0.07381350877423233
195,1.95,0.004205738959978954,0.04762337342165982,-0.1412611570544284,-0.05929501574798113,0.06086356995077302,-0.0982724876944582
196,1.96,0.00940523905463508,0.04298745503485832,-0.13998602398595075,-0.041168022010215855,0.06293670627323664,-0.13051071039920306
197,1.97,0.008298702520108912,0.02801639936151438,-0.137312501287497,-0.025719134250427086,0.061706780966546734,-0.14971485024667014
198,1.98,0.005450235124663357,0.010263560025531193,-0.1325552431656103,-0.011913060128629064,0.0584506794233222,-0.16092357495645254
199,1.99,0.004027284093222045,-0.006645963796694451,-0.1257749658126765,0.004637176745026925,0.05544354643438264,-0.16906107124612188
200,2.0,0.0036119081103299,-0.02183749344724425,-0.11681226031643573,0.023218199103919042,0.05262065970633992,-0.17492574093569713
201,2.01,0.0035606857341460444,-0.03563613471547773,-0.10576012905371868,0.04004410837704736,0.04822606654350855,-0.17577182471426142
202,2.02,0.003961911488635731,-0.0474834774850728,-0.09291324608881063,0.055650362793966936,0.04273927060395965,-0.17313041658856387
203,2.03,0.004557016860582439,-0.05820541119769895,-0.07850042605501605,0.0687285055378414,0.036245898201203865,-0.17074693368178656
204,2.04,0.005470040170072594,-0.06693207564362377,-0.0631097035085607,0.08034657305928045,0.029171191765982294,-0.16851241184559876
205,2.05,0.005988485011658086,-0.07427937119889821,-0.047009806993175265,0.08596525634475799,0.02008699151534194,-0.15697837317728944
206,2.06,0.006737049087616758,-0.07978760546822622,-0.030853175941450848,0.08830496903173754,0.009904500026889952,-0.14036167251010642
207,2.07,0.008068130360445826,-0.08353358510074371,-0.015035105649580034,0.0894791527293848,0.0060158071680182406,-0.1251140292722781
208,2.08,0.009434413991532001,-0.08588207382775588,0.00015468329559204593,0.09010560804559807,0.005084820353357637,-0.11050976051653816
209,2.09,0.010157838549261201,-0.0879547718536584,0.014773663152098262,0.09450836272550102,0.0033373215672700685,-0.09246434111381027
210,2.1,0.010527433257595455,-0.08887677129456202,0.028334108978492718,0.10076520325669816,0.0011889320816284533,-0.0727293870338003
211,2.11,0.010130862720817688,-0.08843423882981505,0.041338982009182804,0.09782738762994908,-0.0014100426341113045,-0.051370981281541314
212,2.12,0.009407798892925479,-0.08673212688712933,0.052925292674478326,0.08850006518157627,-0.00432213589958028,-0.02888441419771947
213,2.13,0.008785816929621569,-0.08375147275785774,0.06235413468803327,0.07917274273320353,-0.007234229165049255,-0.006397847113897626
214,2.14,0.00801845074527786,-0.07963967348665477,0.06996132382019929,0.06984542028483075,-0.01014632243051823,0.016088719969924208
215,2.15,0.0069718995498262385,-0.07446762698141438,0.07598115464102145,0.06051809783645797,-0.013058415695987206,0.03857528705374606
216,2.16,0.0050636104524483935,-0.06699255241320903,0.08076782423676582,0.05070355103863988,-0.01619544919484651,0.058758029410849476
217,2.17,0.002913162538262912,-0.05869662408142758,0.08420294718517754,0.04056648228904505,-0.019481383632644428,0.07741573705189513
218,2.18,0.001129421702387945,-0.049983192073851046,0.08610357657517881,0.032735892662241604,-0.019024431308987892,0.09525314067458916
219,2.19,-0.000556775821028979,-0.041182547181877124,0.08669829489190921,0.02643018458173546,-0.01609294587726013,0.11254821705591447
220,2.2,-0.0025617033003505403,-0.03120867076220809,0.08646222511998791,0.013841501349494821,-0.013628138200480162,0.12601998022678362
221,2.21,-0.004567805881568533,-0.021217366738910733,0.08507896138387046,-0.002683749918608105,-0.011455725239389659,0.13709626478888934
222,2.22,-0.006070415222579683,-0.01084785914964714,0.08252052557502428,-0.01863886348765841,-0.010030468416077756,0.1422771149948572
223,2.23,-0.007436035526957465,-0.0009084674663497605,0.07874994913176533,-0.03427355290157105,-0.009025122211904772,0.14414466110626334
224,2.24,-0.008921534973191281,0.01016388731685065,0.07363440386958367,-0.053568775495667166,-0.006866177779463155,0.14568797023073435
225,2.25,-0.010327571878443145,0.020533201281853212,0.06758789929486402,-0.0749132343374124,-0.0040614270701137,0.14704976530964148
226,2.26,-0.011378504691975036,0.030841004715997558,0.06023446784494801,-0.08916500832913518,-0.003465003356650322,0.14504527940711268
227,2.27,-0.012199253692179305,0.03978799001489082,0.052547824220955226,-0.1000683000134795,-0.003911138847633675,0.14145156001312725
228,2.28,-0.01327165835988602,0.04811170658713844,0.04435475061502629,-0.10881282351659932,-0.006336096610720458,0.13800349807248166
229,2.29,-0.013915043920027358,0.055211767328924834,0.036317824194533666,-0.11656140501356313,-0.009673978809439349,0.13462263481372908
230,2.3,-0.014089346677516266,0.06208053176387719,0.028008135148833133,-0.12008793882874592,-0.011618936852009086,0.1257376154170555
231,2.31,-0.013631072303139482,0.06786910816932254,0.02004670991384144,-0.12164401859238468,-0.012913809141444969,0.1142837745432824
232,2.32,-0.013350182618806656,0.07295281228119561,0.011889137855162683,-0.12081404382372538,-0.017300364172515764,0.094261427367533
233,2.33,-0.012365770760605056,0.07691359951027264,0.004221597855485166,-0.11885708687903368,-0.02314718396141412,0.07019200006564404
234,2.34,-0.010747476109639196,0.07969734412057376,-0.002885747857427674,-0.11298426442130205,-0.02963108174867848,0.04666578710999053
235,2.35,-0.008500396604366512,0.08145627819335235,-0.009579769915440468,-0.1049439370974898,-0.036467614134075205,0.023440253463896915
236,2.36,-0.006253097271250346,0.08183688791833073,-0.01521820615979823,-0.10006776241102933,-0.04062514782557143,-0.0036716392206301296
237,2.37,-0.0036667396414058638,0.08135113353460671,-0.02087427976928196,-0.09675146112088648,-0.043461980757548486,-0.03269944076525081
238,2.38,-0.0004700856965864611,0.08027207972551763,-0.02634746168871808,-0.09164359528080712,-0.04366330169744655,-0.06093027554714259
239,2.39,0.002684525952094756,0.0782238522667117,-0.03205726309631089,-0.08544418399720352,-0.04225888584912267,-0.08867554287430444
240,2.4,0.005865660770330062,0.07376324628452506,-0.03724675764623657,-0.07693169528017506,-0.03811020589921737,-0.11236094306787234
241,2.41,0.008373866337085156,0.06829571854630465,-0.04259197477124732,-0.06721696874820537,-0.03253517591475152,-0.13393619955370598
242,2.42,0.010459391746793688,0.06123783404897763,-0.04801299119371538,-0.053247046229889135,-0.027733696965784163,-0.1472945309313084
243,2.43,0.011588010562180163,0.05382707416076694,-0.05313538816500943,-0.037299426792768486,-0.02329174305499416,-0.15683386371971827
244,2.44,0.012290421176187751,0.04459371109020775,-0.05763526513420619,-0.02113724298204577,-0.0187636973321862,-0.16811766780411044
245,2.45,0.01209552940282783,0.035440840600469384,-0.06102231199911725,-0.0048768474901116285,-0.014196245153148454,-0.18019996166538085
246,2.46,0.011454218697714362,0.025514441848582294,-0.06320835699872732,0.012142244679853323,-0.008993396610021565,-0.1864760413239982
247,2.47,0.010391898551578637,0.015291977427541702,-0.06390479244415549,0.0298494301756601,-0.003214280883903081,-0.1874862257217808
248,2.48,0.008918319350289179,0.004862171859915845,-0.06323551663366717,0.04437673047978456,0.0003258098011486723,-0.18768399387324236
249,2.49,0.007179080294511931,-0.005303699632711337,-0.060955211146273225,0.05649929147316365,0.0021726722061102713,-0.18726738472286708
250,2.5,0.005376577198209775,-0.014623744987840193,-0.057252276253973486,0.06557165395321693,0.0027942252276451306,-0.1839723385004059
251,2.51,0.0036030038032409772,-0.023572976059324062,-0.05203011678029294,0.07294830159149131,0.0027345847799122545,-0.1790770657868037
252,2.52,0.001933921554114522,-0.03238051956115222,-0.04537659206363556,0.08032494922976567,0.0026749443321793785,-0.17418179307320156
253,2.53,0.0008036095693842045,-0.045142814606577625,-0.038650010206746306,0.08606152058938778,0.0020617155033745387,-0.16319070675743186
254,2.54,0.00011657356606747157,-0.05865079276285104,-0.03152526380710118,0.090210942177579,0.0009127630110293751,-0.1463005233744721
255,2.55,-0.0005119480136457858,-0.06499381916455663,-0.02240866377441464,0.09196874190506986,0.0009281976207694257,-0.13176873601016115
256,2.56,-0.00087441011181033,-0.0690588062424694,-0.01296175906201247,0.0926010725216429,0.001491579102078989,-0.11834678206639075
257,2.57,-0.0013731714240951265,-0.07358591999137992,-0.0034606868485205036,0.09232713853277744,0.0013747956293194204,-0.10572560410191503
258,2.58,-0.0014396335430368508,-0.07795973836873582,0.005125429267806403,0.0915886256983771,0.0009093388803020556,-0.0935149282995675
259,2.59,-0.0004406728654304066,-0.08206220130127993,0.01291475752718766,0.09103694727048564,0.0014398220492533964,-0.08085740933564461
260,2.6,0.0008366542233229266,-0.08527231162387068,0.01937626347042675,0.09059114069726168,0.0025346659707181016,-0.06794668158033554
261,2.61,0.002006124832953355,-0.08704044215013043,0.025316695218755448,0.08737407253623661,0.006271066916121894,-0.05633067392741752
262,2.62,0.00291271624513099,-0.08741029892773758,0.02974595944897649,0.08273446816065022,0.011363424493668756,-0.04537926836095692
263,2.63,0.004304424505930941,-0.0856951745649312,0.032214648168529994,0.07113426653507819,0.018750433284654,-0.029349771484667306
264,2.64,0.005173964628221614,-0.0826378540581266,0.03346779987131257,0.05589207685867588,0.02733807069988309,-0.010663268721208964
265,2.65,0.004917855377385727,-0.07700735701785738,0.03307034964518135,0.03989341705646518,0.0300543669268085,0.0014471572267833422
266,2.66,0.004072969891389246,-0.07062403445942113,0.032533157614239167,0.02353450147836758,0.02997453875552492,0.010425840658287094
267,2.67,0.0030772627952017715,-0.06292967087583783,0.03147860537433303,0.006868035683168664,0.03043929709874293,0.020947623224234067
268,2.68,0.001944924844073979,-0.05482787549610624,0.030924053206408942,-0.009972556037609156,0.03121238437695285,0.03234306332675305
269,2.69,-0.000515315792644072,-0.044893480767016214,0.030753024168738544,-0.021270094400454857,0.025171431491455683,0.03678051404190287
270,2.7,-0.0026846969454672616,-0.03483400774171648,0.031118435188149773,-0.029469917051969833,0.015322476425617132,0.037329517063565784
271,2.71,-0.003663151662279155,-0.02560102351646474,0.031992789030930724,-0.037669739703484806,0.0054735213597785866,0.03787852008522872
272,2.72,-0.004335014751872183,-0.015421746571417556,0.033076254468441896,-0.04112710024666871,0.0007657743496697133,0.03624613021447022
273,2.73,-0.004508740650024608,-0.00489153337626334,0.033633792098183374,-0.0420986617972371,-0.0012471678283016278,0.03347034602012732
274,2.74,-0.004165832905380059,0.005640058093122933,0.03325911355372734,-0.043070223347805484,-0.0032601100062729683,0.030694561825784412
275,2.75,-0.0038391783679950007,0.01747930904112758,0.03340943259348457,-0.046003774588470464,-0.0016213348982779213,0.025584008961982603
276,2.76,-0.0035170074029630925,0.02952952961237324,0.032492181396929734,-0.05027501607529279,0.0025071916186151662,0.018881604065556102
277,2.77,-0.00254829995589596,0.04047022979619626,0.029704000744087876,-0.05566062060868848,0.007616949254544318,0.010312139483181576
278,2.78,-0.0018708216220759011,0.050837520666577554,0.025278372655446857,-0.06159310694728984,0.013208253229749964,0.0008264017215970122
279,2.79,-0.001898602190716735,0.060776068355615165,0.019600073998594463,-0.06752559328589118,0.018799557204955613,-0.008659336039987548
280,2.8,-0.0013215976251324865,0.07370241002998568,0.014668227213950818,-0.07730068045339075,0.02592988381793112,-0.026130275024514784
281,2.81,-0.0012616097994598285,0.0849982155417663,0.009367675389253812,-0.08943290998156654,0.0340042833687577,-0.04849952556916271
282,2.82,-0.0023084998841512213,0.09049775408903696,0.0012478994417964183,-0.09289051331395508,0.038403749969045615,-0.06464558745575176
283,2.83,-0.003977581650276756,0.09269517165269633,-0.006881941384173453,-0.09050454000399323,0.040327634121481104,-0.0765994594931882
284,2.84,-0.0058614226758088766,0.09275092737719454,-0.014411354157320129,-0.08471213932825154,0.038355177080404,-0.0860521423045816
285,2.85,-0.0076673305529518145,0.0917100495908906,-0.019737428438563003,-0.07728707228192899,0.034515242899240975,-0.09430603027982422
286,2.86,-0.009757421243790561,0.08863710355311841,-0.023574775624553505,-0.0622913296045162,0.028840913172435294,-0.10167548467123183
287,2.87,-0.01120281993668966,0.08505803346072144,-0.02525920241466758,-0.04355830791877581,0.022261030454091314,-0.1086083366736066
288,2.88,-0.012294421129049257,0.08043592349231155,-0.025149308802151604,-0.03192705602408232,0.014802473757731112,-0.11852754985403885
289,2.89,-0.012285975294233436,0.0755933539576134,-0.023719955092681128,-0.023550997720355786,0.006941164791733321,-0.12981560264109715
290,2.9,-0.011506251453910706,0.069612896319852,-0.01973642140908768,-0.020542082872266103,0.0021332952166800727,-0.13521239919387612
291,2.91,-0.00976735752725951,0.06310876879324401,-0.016001496903096976,-0.02039531536221766,-0.0010462606199945932,-0.13746755373763586
292,2.92,-0.0071003456570279105,0.056325845372797466,-0.014006736137123655,-0.02024854785216921,-0.004225816456669259,-0.13972270828139566
293,2.93,-0.003977102722833125,0.048660387152923486,-0.013261526065549981,-0.02010178034212077,-0.007405372293343925,-0.14197786282515534
294,2.94,-0.0007460127560647732,0.039806797569086796,-0.013353841778626177,-0.01995501283207232,-0.01058492813001859,-0.14423301736891514
295,2.95,0.0011640410149644396,0.031135075453407213,-0.012894578652622127,-0.014936075778744009,-0.013790194891877786,-0.15207132505794338
296,2.96,0.0029373637950403913,0.02109303625295104,-0.012810584894503804,-0.006712104118695786,-0.017012374941391517,-0.16358237009452226
297,2.97,0.006708630468155707,0.0067985121075341964,-0.013205822996304083,0.0017813703653003809,-0.01648564855356324,-0.16793554298272445
298,2.98,0.010984866804241766,-0.009405074158280406,-0.013874308573761474,0.010561476618720336,-0.011971744332870576,-0.16467590673912036
299,2.99,0.013417178880783674,-0.02371604914030594,-0.015287192709565408,0.01934158287214029,-0.007457840112177916,-0.16141627049551627
300,3.0,0.014464496643127267,-0.0365196632488628,-0.01679153365411483,0.028121689125560248,-0.0029439358914852554,-0.15815663425191215
301,3.01,0.01560225949962512,-0.050812044650752536,-0.017183842058008176,0.036750209398439225,0.0018411546859237516,-0.15066842672393746
302,3.02,0.015817942945404784,-0.06332432180735238,-0.01710405596106066,0.045286412223796466,0.006791400590793955,-0.1406049750589808
303,3.03,0.013955176800133232,-0.07088042999247801,-0.018843761252700465,0.045563722610889666,0.007592506322706582,-0.12701367751489395
304,3.04,0.011353775698051849,-0.07585524276816076,-0.01975846037863662,0.04114886312126489,0.0060363382822144285,-0.11141808553453787
305,3.05,0.009000226806638707,-0.07957924343778021,-0.019633975566417106,0.03795754540953936,0.005495722853650759,-0.09861786792652008
306,3.06,0.0068792186760940266,-0.08228869826078479,-0.017787670343571316,0.035645714070308615,0.0056850904128981795,-0.08782697579549067
307,3.07,0.004113339820080041,-0.08438121414700353,-0.014301813683493245,0.035779031936766494,-0.0002086904252125736,-0.0763155612328817
308,3.08,0.0018211300115273158,-0.08541009970315339,-0.009304647367840466,0.03724290968599872,-0.009412695931681913,-0.06441206497649782
309,3.09,0.00025166089316271123,-0.08483691970492671,-0.0029828425416391635,0.034268416120808894,-0.01780815310077346,-0.05049252026255259
310,3.1,-0.0005210827258798458,-0.08298636514248899,0.003607552211077409,0.028858557902220063,-0.02575995427492471,-0.035466755990741505
311,3.11,-0.0015617793214247533,-0.0800344085311546,0.010724342023770225,0.02937730611182485,-0.03142631603563241,-0.02753840188730729
312,3.12,-0.0018841183267543499,-0.07590296719700065,0.016732334092709945,0.032875947409680216,-0.03594394829401575,-0.023177416230638008
313,3.13,-0.0009048288544986982,-0.07053688715225205,0.022142113219862293,0.030765068393267907,-0.03800747612559549,-0.016830832684754844
314,3.14,0.00047562682974275523,-0.06399590200292402,0.025531058112279893,0.025986418390743053,-0.0389038830234895,-0.00953994015304663
315,3.15,0.001476348499929532,-0.055641985529901294,0.027658573540176437,0.01982572522116095,-0.03608290564281538,0.0005689032515669713
316,3.16,0.0022423480723318175,-0.0465210336271079,0.027743714706408414,0.012977528697136769,-0.03141269936525546,0.012079548512992744
317,3.17,0.0031536334683133593,-0.0363169736986097,0.02613015614274606,0.005026408583077061,-0.02719642097553455,0.014339306597645882
318,3.18,0.0036885674149167696,-0.02594333720184784,0.023227501020097047,-0.003609926057087723,-0.023262154853355643,0.01085175604718347
319,3.19,0.004063143775406114,-0.015424999894706606,0.0191228533907542,-0.011402673366610931,-0.017249324559598756,0.01137426704936857
320,3.2,0.0037180310687163656,-0.005313191321981969,0.014793319759999906,-0.018781986205789903,-0.01021780888954624,0.013862072709079777
321,3.21,0.0029075189027855004,0.004661251022332174,0.010052419287589159,-0.02429810926556438,-0.004457647489312561,0.017645120910985624
322,3.22,0.0014376400152958943,0.014135032305437946,0.0060960113354487505,-0.02889113560944725,0.0006726355355794363,0.022069882667892345
323,3.23,-0.0009179719878768117,0.023548867988249178,0.0023636342150968413,-0.033779564177573516,0.0012316822521596471,0.02142794044316335
324,3.24,-0.0034300792415406017,0.03228822139540506,2.8780224923842523e-06,-0.03880905952890823,-0.00039222548582038127,0.018366437451790348
325,3.25,-0.005331500637005444,0.040120373031244536,-0.00161888602712436,-0.04216061105783348,-0.001679396611568846,0.02051703728788235
326,3.26,-0.006993924847900979,0.04717951098610459,-0.0018762294739364787,-0.044720726243738525,-0.0028077390629682075,0.02512603146717161
327,3.27,-0.009228285993471223,0.054081084964178336,-0.0011803062372863302,-0.04802662326488618,-0.005538410704342989,0.030307281777150988
328,3.28,-0.010973621224668828,0.06005201699363868,0.0002852085712765594,-0.0516909460836645,-0.009039168302285764,0.035763560722045985
329,3.29,-0.01155749239886754,0.06528558812559329,0.0024769448408431937,-0.055564300196760494,-0.009475518113251927,0.03623117910887235
330,3.3,-0.011460261407346796,0.06918552165623384,0.004552077228126019,-0.059551351584811126,-0.00824506097138212,0.03398534201537205
331,3.31,-0.011199398682187119,0.07093744265036908,0.006876092645314235,-0.06277663325210663,-0.009557677144093805,0.03509767973304635
332,3.32,-0.010584760110801282,0.07141819889790217,0.008248787182552498,-0.06560049984743298,-0.012210367527924856,0.037979609949325546
333,3.33,-0.009552811835820546,0.07109671767404596,0.008116858324734872,-0.06842436644275933,-0.014863057911755902,0.04086154016560475
334,3.34,-0.009109559916734076,0.07283617887688498,0.006962661979877597,-0.0639856663241024,-0.01437698945486836,0.030146826470843126
335,3.35,-0.008204275225657403,0.07259414087521839,0.005028231193575555,-0.056190192790779386,-0.012440180144711115,0.013147715729320277
336,3.36,-0.0063470403436878715,0.06712693837652849,0.0029064618876760446,-0.05104734695439423,-0.012453456433656458,-0.0037605966973377663
337,3.37,-0.004110677106252457,0.059631287196734994,0.00044988299338811436,-0.047472442549055055,-0.013619408617695852,-0.020615239157452808
338,3.38,-0.0010335858278945529,0.051809353293574764,-0.0022371573486075786,-0.04181963180200965,-0.010593137907183437,-0.03496838827638566
339,3.39,0.0016932817687971983,0.04405113779555897,-0.005015932242789498,-0.034950124032620634,-0.005112153521456204,-0.047856813293687635
340,3.4,0.00353439274009825,0.0364223223406379,-0.007651167377136406,-0.030709544705586105,0.000633631846946983,-0.06359314299805695
341,3.41,0.00458116703710277,0.028908496000584465,-0.010052886216413912,-0.027974222252055682,0.006531035453740351,-0.0809601097468691
342,3.42,0.005870322424580191,0.020910348075100317,-0.012222922434029213,-0.023407986408196312,0.011365681111335015,-0.09387955517340316
343,3.43,0.006513765108726909,0.013032196477430778,-0.013930963109564366,-0.017829189206523398,0.015612583166336638,-0.10433936037185333
344,3.44,0.006203860634479979,0.005030554822429546,-0.01520417735270931,-0.011120464536132557,0.01885581955758294,-0.11152826756694073
345,3.45,0.0053095178044417265,-0.002577489628855588,-0.01585005290618662,-0.0038120982716738955,0.021566420275135736,-0.11698134078412233
346,3.46,0.004716038024220057,-0.010378479566199746,-0.016054532576698,0.005520252801183354,0.024695142329086303,-0.12126320201286897
347,3.47,0.0039392113355737985,-0.01753437310103538,-0.015600441896818012,0.01585310323838348,0.028030550781841992,-0.12496610788331575
348,3.48,0.00319266407869409,-0.025115410955865718,-0.014552223179703594,0.02470760309741612,0.030677488190313882,-0.1238309197204132
349,3.49,0.0023219437752767694,-0.031583507042317084,-0.012981271511906908,0.032885737635815065,0.03300944081405952,-0.12048223831007095
350,3.5,0.0006741331355738841,-0.03657714683272115,-0.011125321565248416,0.03949718529706475,0.033273849190918955,-0.1163723466226034
351,3.51,-0.0005880391837379956,-0.04052599029121603,-0.009000091111202719,0.04538684937512296,0.03258572549727312,-0.11191176004555756
352,3.52,-0.0009820151722428633,-0.04373938045007503,-0.006683345233184746,0.05127651345318117,0.03189760180362728,-0.10745117346851174
353,3.53,0.00030574760819768176,-0.048635242459091475,-0.004725702237279754,0.05636775852670105,0.03081367422220777,-0.09777458882921032
354,3.54,0.002264853483276155,-0.05359474999616757,-0.0029213158038609395,0.06065930610248079,0.029333308959759538,-0.08287365384893075
355,3.55,0.003210581407282015,-0.05543000914359844,-0.000761599248277224,0.06495085367826052,0.027852943697311314,-0.06797271886865118
356,3.56,0.002337605763022217,-0.05437136842272153,0.001790384084805562,0.06433041657663464,0.02511011690352667,-0.054560945005316094
357,3.57,0.001538408791033365,-0.052423042869107435,0.004126222179942477,0.06125877321041826,0.021737289444501588,-0.041892300711507055
358,3.58,0.0015178398613820182,-0.050687068675905056,0.005969467268206919,0.05903731575648835,0.019242715985933176,-0.030036983511738845
359,3.59,0.0021133405421013616,-0.04901077464587252,0.007327411107135737,0.057333190344729876,0.01728255380028218,-0.018676570027067373
360,3.6,0.0030476476079074563,-0.04744576376908502,0.008507545539500817,0.055213401866762817,0.01766763435041856,-0.0078033049396250016
361,3.61,0.004152382319874379,-0.045613081023585064,0.009242547146260754,0.052843469845668185,0.01946406792928363,0.0027767971607294763
362,3.62,0.005078227831935861,-0.04273865377968814,0.009812627006358788,0.04952785012753703,0.017472499599109553,0.016563936973870562
363,3.63,0.0058743112111782,-0.03940029624036251,0.009887568731823395,0.04563703084842288,0.01317693911390394,0.03230170667278825
364,3.64,0.006643562458012381,-0.03585179469745073,0.009765251061506535,0.04126324362662365,0.014298897864275106,0.042544160022119006
365,3.65,0.007129193826087495,-0.03202039273701206,0.009123427910655856,0.03663008198248478,0.018330295933598816,0.04983539367801957
366,3.66,0.007420664326850887,-0.02721371342823874,0.007992143390505507,0.028154149549645388,0.02179522373394255,0.05882027309353105
367,3.67,0.007213667263048169,-0.02212183595781665,0.006555322073889366,0.017719703502275048,0.02497144325710084,0.06866833911599403
368,3.68,0.006579956923982894,-0.015635550660749255,0.004816599902725694,0.004128878808382076,0.026976779072472742,0.08037455256737394
369,3.69,0.005443866418397539,-0.009259906129722335,0.003184171615499187,-0.01132046817086407,0.028292681296955488,0.09317487062179901
370,3.7,0.0028212328211680597,-0.0029848406179564854,0.0012221808377707276,-0.01872144645887195,0.02779170514719017,0.09737082971909183
371,3.71,0.00020450154844651753,0.002580845394010465,-0.0001711790600720086,-0.022165470211330703,0.026397466598629862,0.09733648345798557
372,3.72,-0.0016872567927892802,0.007295339139822485,-0.000637826382889577,-0.02560949396378945,0.02500322805006955,0.09730213719687927
373,3.73,-0.003111326644142183,0.011737933772119942,-0.0004945214070928815,-0.029053517716248208,0.023608989501509244,0.097267790935773
374,3.74,-0.0042420167294330464,0.01623690635909633,9.60788143539561e-06,-0.03249754146870696,0.022214750952948937,0.09723344467466673
375,3.75,-0.004241006094028037,0.023734456799743675,-0.0001171109202628617,-0.03525744767955924,0.018797917913741847,0.09742308130230884
376,3.76,-0.004280162988243258,0.03309463917696462,-0.000688130193688291,-0.03392815234721404,0.012159208238844666,0.09211354486380156
377,3.77,-0.007103915105999487,0.033728904116366414,0.0011848843083732386,-0.0316209496191331,0.008392467759353766,0.08268021627035847
378,3.78,-0.008930611467444435,0.03530818680190448,0.002895639737800304,-0.032294941600595935,0.00559682820017847,0.0754492010997686
379,3.79,-0.009901442529362633,0.0375535854715793,0.004069459150530263,-0.03433984793754241,0.0032477532977906445,0.06923092859808204
380,3.8,-0.009870328090586598,0.040857023739633264,0.004647113175429426,-0.03806720431987563,0.0029608795933043107,0.06286718395091404
381,3.81,-0.009463248720500018,0.04409352153980353,0.004665696581656855,-0.0426698030335122,0.0037468019513322522,0.056427761942566726
382,3.82,-0.009457246654443927,0.04681755593550718,0.004211947573710633,-0.04440725265088926,0.0005081314389020499,0.0512312394307681
383,3.83,-0.009261766175503425,0.04873990206871125,0.0034023401313645176,-0.04483020279230188,-0.004576978836852858,0.046604945790836086
384,3.84,-0.00845599805126567,0.04945542786014846,0.0022771367125644297,-0.042101241350791935,-0.006176446962806149,0.04171928714723275
385,3.85,-0.0074412284828137935,0.049359469172176706,0.0010315810528341491,-0.037902620256247715,-0.006150644995450181,0.03671269291540731
386,3.86,-0.006831915263927372,0.048362325630098284,-0.00011067687794134211,-0.030106085945881562,-0.006663432758718135,0.03004644353273512
387,3.87,-0.006212123005015393,0.04660920495999851,-0.0012099060391839323,-0.01948376691200164,-0.007599226453965131,0.02207670852096546
388,3.88,-0.004782387573358466,0.043212828817714266,-0.002364950729759149,-0.00950510440900796,-0.0073215963257724824,0.01606262703904529
389,3.89,-0.0031911841879353306,0.03940763876016015,-0.0034641373984155943,0.000134082608855092,-0.006403985677901037,0.011079990744015344
390,3.9,-0.00192468083062207,0.03493591904110687,-0.004295096418035827,0.0066601662697312715,-0.006015125834599269,0.00505305750233144
391,3.91,-0.0007885016800576331,0.030433789865898158,-0.005000740805463142,0.011540711653557521,-0.005905755487201192,-0.0015258749508366284
392,3.92,0.00040893474764433393,0.025925565098473744,-0.005598533898481503,0.01599589941863455,-0.005435548655059572,-0.007679762776021341
393,3.93,0.0016370440653680055,0.020941431059769713,-0.006026229701033407,0.019716800258433496,-0.0043424365280989455,-0.013099903986050486
394,3.94,0.0028494395641603804,0.01574536009922263,-0.006428211154994047,0.02108817889203365,-0.00334357652375526,-0.014117180672793148
395,3.95,0.003855925919979163,0.01018146096715384,-0.006683446441710124,0.02105284918635092,-0.002401147246701816,-0.0124983698072244
396,3.96,0.004565674509936539,0.0036351137531087808,-0.006883176660245067,0.02460730223649309,-0.0019247613605402395,-0.013751227345000751
397,3.97,0.00506101361661584,-0.0031673269114275357,-0.006820593636995843,0.029937064080391755,-0.001678854861684178,-0.016424253877945088
398,3.98,0.005013604944976845,-0.010372455565597382,-0.006465650185015877,0.03513063139526127,-0.003600274502627433,-0.0149395874137429
399,3.99,0.004949689619612971,-0.017416992680713783,-0.0058532735048499335,0.04023987100951429,-0.006863639603187364,-0.010880598083431857
400,4.0,0.005361644506460421,-0.024354226138801074,-0.00494056811426449,0.043816474301954116,-0.007858744899740434,-0.006874364179322942
401,4.01,0.005913315479574815,-0.030681150502916633,-0.003913143819419556,0.04655687879748505,-0.007616298865822989,-0.002896913374826624
402,4.02,0.006199311670002206,-0.036435608925787906,-0.0028865737396247715,0.04706821111123978,-0.007775941387561473,0.003595835475651011
403,4.03,0.00643629883036405,-0.04133806482743365,-0.0018855281900669863,0.046426108502406215,-0.00814364490699142,0.011390127017600013
404,4.04,0.0071437995672465815,-0.04525036997962921,-0.0011704684542670025,0.04535658544825517,-0.005866021730111573,0.019087492856616862
405,4.05,0.007675645843069527,-0.048290974086519355,-0.00043855326202590374,0.044075014788378115,-0.002276025225140273,0.02673677287413116
406,4.06,0.007344586549074879,-0.05017218026583435,0.00040614162164917447,0.039957548347831835,-0.0041917776863998855,0.034342653346945695
407,4.07,0.006752026642255328,-0.05131530612519959,0.0012963894847346819,0.03422611768376648,-0.00924096047882528,0.041923834282866126
408,4.08,0.0066066612365055025,-0.051797555970798034,0.0020951622214348833,0.03206378082634336,-0.008952450997287838,0.05041667597206928
409,4.09,0.006403930585999876,-0.051621383181172695,0.0028385443121406715,0.031929172816570366,-0.005631409116727759,0.059427464487231865
410,4.1,0.00568258375278616,-0.050685521288901886,0.0037652554510251477,0.031633120001518696,-0.003851321263096213,0.06522674159270746
411,4.11,0.004740139651211639,-0.048936827591306784,0.004559476298558528,0.031229974391481757,-0.0030934098331823977,0.06889569476241594
412,4.12,0.003650639642316377,-0.046030398052439664,0.0053797595059583495,0.027285001703554992,-0.003735852897567727,0.0755356577853264
413,4.13,0.0025880443005577873,-0.04230139167414393,0.005853511957327712,0.021089824895006482,-0.00526797334712921,0.08406317163075351
414,4.14,0.0016783368675186191,-0.03802735093252649,0.005729026666912547,0.01489464808645797,-0.006800093796690692,0.09259068547618064
415,4.15,0.0012541881200444495,-0.03186581256881023,0.005289336491144876,0.0076208429750818625,-0.005230724878168745,0.09585677821611076
416,4.16,0.0007429689588898962,-0.025457083631933053,0.0046340932047642495,-0.00016758095728879564,-0.002181620264091487,0.09661262130009476
417,4.17,-9.398026618379638e-05,-0.019519776653455178,0.003856926261729322,-0.007956004889659455,0.0008674843499857731,0.09736846438407876
418,4.18,-0.0010591648009672938,-0.012619398532343047,0.003470923882247544,-0.017738823416988816,0.003422028214171159,0.09832139108510402
419,4.19,-0.0020924382091122916,-0.005598936177987875,0.003130198932970292,-0.029093123614259718,0.005586883320127782,0.09942960966889354
420,4.2,-0.0029464575358695046,0.000803377114864343,0.0017318976022929096,-0.03551813709376093,0.0063432026871433215,0.10296399720811113
421,4.21,-0.0038059563046690015,0.00668751758589973,0.00035923665179024176,-0.03915475024269977,0.006302741151576407,0.10787082070097853
422,4.22,-0.005084787366793262,0.012661332445308735,-0.0004847212201483349,-0.04307282895611842,0.006177203196783648,0.10876641787318088
423,4.23,-0.006243261698925917,0.018293288739363624,-0.0008344058777837778,-0.04714313326758394,0.006005653187833306,0.10749261529414528
424,4.24,-0.00663620790624882,0.023375823865827233,-0.0010504662233738807,-0.049272750908077007,0.005922725504127453,0.10730985263587477
425,4.25,-0.006774339792929281,0.02807343358569045,-0.0009519172508501103,-0.05034214804315093,0.005888213264226882,0.10772313822873504
426,4.26,-0.00711254021946222,0.03297785503286366,-0.00064553258473623,-0.054948573321459034,0.005845366318935385,0.1077495975789324
427,4.27,-0.0073750121183102065,0.03746796871179324,-0.00015933917936404671,-0.0618211339401001,0.00579717941883641,0.10752822157595517
428,4.28,-0.007379687891523591,0.041785928603573504,0.00038849017675641594,-0.06671286555961957,0.005209021896858841,0.10510760070751872
429,4.29,-0.00715597669092426,0.04507618201610658,0.0009586710263055755,-0.07066600245074177,0.004365005045575496,0.1016448910782199
430,4.3,-0.006932925363737476,0.045455286420885845,0.0018736612888813231,-0.07225998515422104,0.0036532003695361522,0.09898215072555668
431,4.31,-0.006491929950999424,0.04528519174684004,0.0025213349398126293,-0.07274581724281104,0.003003498884572619,0.09669517489495803
432,4.32,-0.005768444403243609,0.04556253484896866,0.002646359909903696,-0.07323164933140104,0.0023537973996090858,0.09440819906435938
433,4.33,-0.004871565466995095,0.04579661099663227,0.0023772853504451497,-0.07371748141999104,0.0017040959146455525,0.09212122323376074
434,4.34,-0.004267324188731976,0.049957225065342906,0.0012177653117516653,-0.06672183942139627,0.0011082578318342613,0.07611417538608588
435,4.35,-0.0037587921029538806,0.054831317303591955,-0.00032070959023815346,-0.05132680951214129,0.0005728917367077938,0.04470371830506013
436,4.36,-0.0021711371253773787,0.04801634878284888,0.00018981051540168541,-0.03835189422037138,0.0036410872029434592,0.022368552009169398
437,4.37,-0.000432668395808141,0.03770782488652438,0.0009244592091800126,-0.026922964962517698,0.009011262834074172,0.0058307445268571964
438,4.38,0.0016133629632943407,0.029433292301697844,0.0009626011037969923,-0.020702953094567163,0.017426894966806727,-0.008262685452771675
439,4.39,0.003112830963324032,0.02282525098780009,0.0003004187461015072,-0.01762968214582986,0.02768230720621758,-0.020879451063599543
440,4.4,0.003940776855704561,0.01719308248124529,-0.0013435453576104675,-0.01341579520718802,0.034275983144844084,-0.034275125478447833
441,4.41,0.0040083386218070765,0.012397091651859593,-0.0031319622363924636,-0.008645431578931991,0.039083193776184216,-0.04805080911340962
442,4.42,0.003727422042796712,0.0074205234284138765,-0.005302826267131008,-0.002750421694025223,0.039502067992587486,-0.05622891433219049
443,4.43,0.00305658541896927,0.0029051768955776526,-0.00685396246071863,0.003667051273203769,0.037882306721559636,-0.061806621376377636
444,4.44,0.0020211216127095826,-0.0018527975881491871,-0.008106499426787058,0.013575505378776252,0.0357127189237033,-0.062153499304565214
445,4.45,0.0010030369316672005,-0.006213431337105061,-0.008462093603307578,0.02539279449193485,0.0332424912538688,-0.05964021003630132
446,4.46,-0.0003894692215506367,-0.011211637035324863,-0.008442604581716986,0.036946953968934014,0.026131738377670383,-0.05987125492764184
447,4.47,-0.0013297196013091679,-0.015667507677294086,-0.007594672901427586,0.04834710668995654,0.01630493935976372,-0.061708527104533936
448,4.48,-0.0018092424458408373,-0.019948750237766915,-0.005721687231770351,0.0587218998537076,0.010529501084270542,-0.056114613022104735
449,4.49,-0.0014942101377542144,-0.023267752363397214,-0.0033858729450383894,0.06862801271275801,0.006605894172459584,-0.047123987400189735
450,4.5,-0.0007512966851937241,-0.026426267666661347,0.00013831902343983734,0.07326166895023767,0.0026663414419843524,-0.03567062958904134
451,4.51,0.0005137825334946399,-0.02884134234613563,0.0031221552965214785,0.07521415890753708,-0.0012813201065203358,-0.022964915433058744
452,4.52,0.0020953276494149187,-0.030679780394893393,0.005633525417812206,0.07435608715582047,-0.0028505253384765532,-0.010136890758720077
453,4.53,0.0038076214931582067,-0.03205601627590685,0.006976662194554742,0.07175706017544209,-0.0029464357670646872,0.002766897111199477
454,4.54,0.005648795036953718,-0.032994504152846584,0.007458745410205459,0.06834254673018636,-0.0017684539744651313,0.015954541334619703
455,4.55,0.0072358980375096926,-0.03375218867128441,0.006859187632934565,0.06443202656087686,0.00018435258180953722,0.029314836688458006
456,4.56,0.008882525893595828,-0.034494697239561826,0.0053060952993684175,0.06316987477972075,0.006529665989366129,0.041485470928941684
457,4.57,0.009849988860474447,-0.035135213125183654,0.0031850924776770564,0.0632317085749431,0.015070903401020918,0.05306136383287055
458,4.58,0.010015675584678474,-0.03530349670741636,0.0007344441458898314,0.059997199730438,0.019035659871497915,0.06520946432627038
459,4.59,0.009420769753725277,-0.035250480983414656,-0.0015281433518138819,0.05499241403637743,0.020542650524502545,0.07766486474552499
460,4.6,0.008146079012389047,-0.03465129416607337,-0.0037725179492809186,0.048000104944821625,0.020750549220366687,0.08761490538951294
461,4.61,0.006478294422651445,-0.033825851615550385,-0.005267588603492143,0.04009720989308355,0.02036326755324812,0.09641711278563156
462,4.62,0.004735168888701017,-0.03182712690674122,-0.006335669748001633,0.026992365902828747,0.020325596157855542,0.10655641583005246
463,4.63,0.0029172617912731863,-0.029671196333496037,-0.00644246318702858,0.011316086304592264,0.02046074466366883,0.11735667410528385
464,4.64,0.0007883606066656954,-0.02622175709371615,-0.005986159742468971,-0.0017624545094347575,0.021409937834545967,0.12084870740609835
465,4.65,-0.0011645888832747908,-0.022983408852214064,-0.004695778488041193,-0.013567290316002891,0.022758267659381392,0.12075742324553697
466,4.66,-0.002903411108981197,-0.01948860676692863,-0.002908026753486852,-0.024304259258773667,0.02274056914519229,0.1168669557301434
467,4.67,-0.004216656510531361,-0.016334791620538767,-0.0006738686323160955,-0.034553571592949445,0.022099054339256383,0.11124153703960067
468,4.68,-0.005027450341671783,-0.01264589386484485,0.0018554346935484912,-0.04174822403235349,0.021323410548399944,0.1066307695159028
469,4.69,-0.005491888751282955,-0.008922408981644809,0.004286405272032932,-0.0472886418162414,0.020475129926338667,0.10256948088061653
470,4.7,-0.005738532887555844,-0.004442698914918221,0.006615220335550144,-0.05197403770520949,0.020982301930134364,0.0940284104860386
471,4.71,-0.005804869953013396,7.22334222212212e-05,0.008381587681420818,-0.05622444056012965,0.022179061479854892,0.083208247741984
472,4.72,-0.005471574036181754,0.004665856047824404,0.009658748584558128,-0.06025530419550663,0.02318096862460631,0.0681521214704541
473,4.73,-0.005111122569701857,0.009304804131131817,0.010163176895023412,-0.06417739955896096,0.024086338305971657,0.05099733404047861
474,4.74,-0.005241840680308469,0.013579062594898491,0.01018927609155107,-0.06680015412730844,0.024672602673828217,0.03941519913276117
475,4.75,-0.005322730807335328,0.018170678189280386,0.009480079469641394,-0.0688173370217599,0.025110144597520524,0.030430258532074705
476,4.76,-0.00511833230313018,0.02327468208858814,0.008038654556587982,-0.07083451991621137,0.025547686521212826,0.02144531793138824
477,4.77,-0.00416213775507737,0.03190799150657998,0.006618099321046106,-0.07109367066814196,0.02570439591640511,0.003554454599077739
478,4.78,-0.00328146777755057,0.039352849839585605,0.004832932290581245,-0.0705492447289625,0.025732739925919915,-0.01840720570381481
479,4.79,-0.0027740155290695966,0.04172279620926729,0.0020812702858662995,-0.0659750175880543,0.027155578349496563,-0.03552147880044231
480,4.8,-0.002504991959488261,0.04240071910742199,-0.000666052398458523,-0.059027984083369976,0.02939951564477852,-0.04978153883917048
481,4.81,-0.002316532943428574,0.04318690214062883,-0.0033079134176434146,-0.052303875136157495,0.030144087998004106,-0.05958479273555824
482,4.82,-0.0021695442403704603,0.04405659390584561,-0.0053356994458311656,-0.045725555752332975,0.0299080965105266,-0.06647335733541704
483,4.83,-0.0020938642535370264,0.0443536727123698,-0.006682273374503269,-0.04078865568817503,0.026981391369712768,-0.07349249221565564
484,4.84,-0.0019664190101503116,0.04437764388907633,-0.007293832336710473,-0.03683955193732597,0.02243543087160523,-0.08059020350841815
485,4.85,-0.002129388699484055,0.04335730437390504,-0.0072520631292824714,-0.02953150604309572,0.018013736421479996,-0.08549380002401771
486,4.86,-0.0020547665692247073,0.042011474004711946,-0.006756359086789116,-0.0205023325049188,0.013655716104833892,-0.08927312841121011
487,4.87,-0.0018407590850426534,0.039719243912126244,-0.005593046867283842,-0.013657479861990538,0.010633186574691913,-0.09185342913758994
488,4.88,-0.0012370643297899176,0.03710578575509721,-0.00445539084749513,-0.007824094027176697,0.008229066457759227,-0.0938785107642665
489,4.89,-0.00022265832058898432,0.034293355004037435,-0.0036580543166806704,-0.001990708192362856,0.005824946340826541,-0.09590359239094304
490,4.9,0.0007754925113878694,0.030038487722035736,-0.0027563185430707366,0.003707225565614835,0.004436899604130807,-0.09776287527748892
491,4.91,0.0018166539366179537,0.025017239779312483,-0.0021311996450641183,0.009326356296290509,0.003639981923510919,-0.0995257001181315
492,4.92,0.0029201952691378973,0.019706799642457643,-0.0019885410568153132,0.014945487026966181,0.002843064242891032,-0.10128852495877406
493,4.93,0.0037880451780186453,0.013012547968978865,-0.0018588827120232865,0.0182855939469289,-8.271415251271969e-05,-0.10204968728740854
494,4.94,0.004437631240044151,0.005532157270033738,-0.001796375536873182,0.01936574078851285,-0.005119545624775436,-0.10181756587828396
495,4.95,0.0046255240400664786,-0.0014755469151043268,-0.001969289537212293,0.022688499353908168,-0.009238142064695684,-0.10248233280099836
496,4.96,0.004727080532581258,-0.008301433044843053,-0.0022749730341781508,0.0273683439865216,-0.012801081029185576,-0.10368983953286737
497,4.97,0.005150545786543666,-0.015641211480684272,-0.002690870926520725,0.030280046987876126,-0.0162535216902754,-0.09907755080863616
498,4.98,0.0055134822236557,-0.02278253294835481,-0.003013247499175283,0.032136286332627995,-0.01964000216961666,-0.09099122896161632
499,4.99,0.005461859143721379,-0.029102483419843315,-0.003207341246179674,0.032165438411892344,-0.020757739605823,-0.0830015063573773
500,5.0,0.005143127762527352,-0.034803220623854256,-0.0031487218118209934,0.03108234817896158,-0.020494376064676918,-0.0750705886975853
501,5.01,0.004454168064887737,-0.040162244234626145,-0.0029943842578207284,0.028667462140417026,-0.022788817105386213,-0.06624138456839017
502,5.02,0.003515837883495293,-0.04496456241827279,-0.0026843664130138563,0.024612276826893098,-0.02823356465965493,-0.056305810650166724
503,5.03,0.0023514035508596254,-0.04836962909724189,-0.0022556086543874874,0.01899335497334307,-0.03466791491171685,-0.0442523976425447
504,5.04,0.001358720837510285,-0.050793913179245975,-0.0014386936682011537,0.012472874783536468,-0.04167281176094568,-0.030977963422573536
505,5.05,0.0003649747579189959,-0.05198565352149873,-0.00045731411609284747,0.009051609575324727,-0.04713945246124667,-0.019918854927900225
506,5.06,-0.0003270573407453395,-0.05239364056835583,0.0008279794890471235,0.007316083811324613,-0.05176939771416881,-0.010064716717343677
507,5.07,-0.0012049284319982606,-0.05205643795812936,0.002400336332644437,0.004907266550544568,-0.05628984861775717,-0.00031835101865823086
508,5.08,-0.0017676024370009633,-0.05091955409481788,0.00400755586348657,0.0020941295561028236,-0.06074454683269311,0.009363295975715377
509,5.09,-0.0023530466698947067,-0.04884522194240961,0.005817193964803062,-0.0004283387085922542,-0.0663968645237324,0.019696931740728108
510,5.1,-0.002467069233633512,-0.045836030677722336,0.0072441832285410675,-0.002807058232182605,-0.07264145883208244,0.030353005234338187
511,5.11,-0.002428118375052959,-0.040897878505167004,0.008912929201510045,-0.00758824742066721,-0.07546105917151155,0.034313229908737
512,5.12,-0.0020274493630419973,-0.035367627150958085,0.00972863875941828,-0.013482947721213879,-0.07669322267506001,0.035170022238566516
513,5.13,-0.0012886845300504482,-0.029818663200355477,0.00933463341763924,-0.01937764802176055,-0.07792538617860847,0.036026814568396015
514,5.14,-0.0005347326620538021,-0.023972323642937055,0.008173867870008844,-0.02527234832230722,-0.07915754968215694,0.03688360689822552
515,5.15,0.00031649826013934856,-0.016618462612801116,0.0070534108488452445,-0.03367634120461386,-0.07669195076426248,0.037193558816875534
516,5.16,0.0008829892757414039,-0.008873079781926679,0.005733429295030731,-0.043991923432151324,-0.07140938131953234,0.03708692547514142
517,5.17,0.0009870810299584714,-0.0012090208705757693,0.003839273377038342,-0.047798389245158765,-0.06651020697995905,0.03298966988704696
518,5.18,0.0006186852786955492,0.005881093206957353,0.0017945220447987578,-0.047707710218451584,-0.06184057935002804,0.02650314486448096
519,5.19,0.0002165715607026792,0.012305756821127379,-0.0003212433161424201,-0.049314778242244436,-0.05840934686246494,0.020518631436098604
520,5.2,-0.0005247431274951241,0.01813536838914038,-0.002115082271178275,-0.05183641965021956,-0.05564523568486183,0.01480455078064085
521,5.21,-0.0019252128299384877,0.02357836176388082,-0.003501137989171314,-0.053303466446730736,-0.05475911553646473,0.010586358112952984
522,5.22,-0.003414930868848218,0.028599922412048895,-0.004390060330097175,-0.05418702986237292,-0.054912045410750426,0.007195806484786137
523,5.23,-0.003959567094681309,0.03326126083641423,-0.005180153743333744,-0.05421020853479975,-0.051140893101773784,0.0019691485887172455
524,5.24,-0.004399875884447398,0.03743548566088018,-0.005444668094541191,-0.05382942993249138,-0.045527353933792994,-0.004119575365536369
525,5.25,-0.004866859414027621,0.04099423255073799,-0.005423503082839129,-0.05446834482130411,-0.04245540328623089,-0.009017697642713277
526,5.26,-0.0053493322016452014,0.04394945314824318,-0.004910676421057323,-0.05560519308478098,-0.04062455279278303,-0.013334429221499257
527,5.27,-0.00525521603314138,0.046269877329332264,-0.004134827733959089,-0.054976111497012085,-0.036722175443999285,-0.013738663272071893
528,5.28,-0.005058283614779083,0.047856811875688965,-0.003092837950001041,-0.05333328110277484,-0.0316306184255461,-0.011896890950002615
529,5.29,-0.0050285461636971895,0.04861815115556204,-0.0017794944908486108,-0.050985971789487085,-0.02917146502698782,-0.013381306969494385
530,5.3,-0.0049186672370643315,0.048505789333006845,-0.0004786425233198415,-0.04824786944398971,-0.028172575328022982,-0.01671084736751379
531,5.31,-0.003538695142981777,0.04585914431730434,0.0008959457027594392,-0.045868511295727374,-0.026840863793549948,-0.018481588152611972
532,5.32,-0.0021233800723950225,0.04270719860951719,0.001935840511004369,-0.0436873786711352,-0.025325250238804636,-0.019391008052383862
533,5.33,-0.0013636268124480313,0.04016267649559569,0.0024304049449996425,-0.041506246046543016,-0.023809636684059318,-0.020300427952155756
534,5.34,-0.0008551318729236833,0.037589782252118065,0.0024921054765822672,-0.03932511342195085,-0.02229402312931401,-0.02120984785192764
535,5.35,-0.0003450608953694174,0.03457050215260924,0.0022245733571476414,-0.03714398079735867,-0.0207784095745687,-0.02211926775169953
536,5.36,-0.0019316457537117827,0.032641069786675456,0.0008590693657673314,-0.02336300966918626,-0.01870583473163627,-0.03456867786305316
537,5.37,-0.0028924868527301847,0.02957764253065063,-0.0004927083078493039,-0.0025055954416634205,-0.01629348749763301,-0.05405802082124034
538,5.38,6.355895610732961e-05,0.021587051838183074,5.44512395433505e-06,0.004609666766695591,-0.015776500879394383,-0.0639353963767787
539,5.39,0.004014511435224269,0.012477090435766345,0.0007037213272190238,0.0036714394095018095,-0.016370276747317582,-0.06817974741958313
540,5.4,0.007857407307953448,0.004359526630817316,0.0008017980774453551,0.0056450542363139155,-0.01153211562567705,-0.073752575323871
541,5.41,0.010685973583841261,-0.002787237363461115,0.00034309836635131475,0.009213624873247808,-0.003718621737271921,-0.08005307380744847
542,5.42,0.012418449642091108,-0.009088838725918732,-0.0006518801088158679,0.009172687424868904,0.001181425883368509,-0.08229159225983171
543,5.43,0.013010539400807389,-0.01477603052702359,-0.0018046732621610456,0.007230558694913034,0.004546910202667225,-0.08239059451257827
544,5.44,0.013486782033054187,-0.020432522046570045,-0.0030175011590938506,0.010089032208589229,0.011518608050922908,-0.07847833491092365
545,5.45,0.013006437145022216,-0.02556323945561665,-0.003991875379037681,0.015326984608803959,0.02027777099564335,-0.07257784291538844
546,5.46,0.011355643212432393,-0.030798772777230858,-0.004659261805500059,0.022216272345807347,0.022233803451441,-0.06549774065180285
547,5.47,0.009051133144899408,-0.0351113313507035,-0.004949580494725799,0.029869870352793083,0.021041049355607324,-0.057871663126644476
548,5.48,0.006998498482764541,-0.03843325981305879,-0.004919718439143515,0.03230770820004178,0.024401295313931,-0.05174474269635705
549,5.49,0.0047816001155612416,-0.04067929660878068,-0.004572198663970421,0.03236148082492489,0.029842666315222994,-0.04630307008868512
550,5.5,0.002366584775554882,-0.042158966046580496,-0.003865813374012816,0.03252215509168383,0.03129411269945042,-0.03909067769723147
551,5.51,7.502549576898256e-06,-0.042811605449939484,-0.0029867840085327467,0.032747354339202964,0.03033727231994612,-0.030809492928267512
552,5.52,-0.00199147475297837,-0.042283039710484666,-0.0021282855232535682,0.029907219317099512,0.031859305488238725,-0.023370257707626355
553,5.53,-0.003688671658487449,-0.04115036853719049,-0.0012439331650287468,0.025400503977365502,0.034729068300764235,-0.01638877894101314
554,5.54,-0.005373438865122407,-0.03934809320480447,-0.0003825131908212409,0.022117938562040244,0.03399245424235844,-0.007680362977628969
555,5.55,-0.006675221675567571,-0.03727813144590239,0.00048348651115409495,0.01956923653709949,0.031093859935671982,0.0020633313948238987
556,5.56,-0.007099686593968108,-0.03528458921647676,0.0012379848962208368,0.016740733589466827,0.030590991927621675,0.011352734327648035
557,5.57,-0.006984298250058928,-0.03308218727062823,0.0019181839868813836,0.013617255634591978,0.03261377456965367,0.02016320881590055
558,5.58,-0.007131473734761048,-0.029847866484587468,0.0024809908136903818,0.012277520989480805,0.03400794846523974,0.02396055219107613
559,5.59,-0.007159213996382987,-0.026251790678517514,0.0030904927385528936,0.011764144453633866,0.035110905607643524,0.025435452911290984
560,5.6,-0.007466949952763195,-0.022355589747438502,0.003750596870154453,0.00829554497176513,0.03238235491257285,0.02774776776947396
561,5.61,-0.007463205722022091,-0.018265425778500575,0.004370322700839574,0.003100997921072952,0.027416077400336258,0.0305491600752553
562,5.62,-0.006955924572155512,-0.01372835242653254,0.005005504013826205,-1.7012754470667208e-05,0.024477383315068532,0.03649134532049977
563,5.63,-0.00606546874347387,-0.00905611141019019,0.005450002754767119,-0.0019649425832295123,0.022681186207723827,0.04420329569298393
564,5.64,-0.0053240209671990635,-0.003840861325367066,0.005826384355285991,-0.0054660773348362115,0.021821219625614445,0.04314569183407073
565,5.65,-0.0044046654058868045,0.0012346547385536158,0.00587083687974517,-0.009755286818174278,0.02143628348485901,0.037638537245147936
566,5.66,-0.0029536379522055985,0.006091814814092728,0.005594975118838478,-0.011576363708444184,0.022946983872821385,0.03343964170142104
567,5.67,-0.0015438322484749303,0.010621422232120138,0.004999449361242356,-0.012111188352919822,0.025445583674745902,0.029922537378996382
568,5.68,-0.0007613219144278188,0.014980908261637445,0.004483912866194423,-0.013824099034419956,0.02424937405769069,0.02389757396207229
569,5.69,-0.0002451899803796744,0.019024425931476796,0.0037138661066693146,-0.01612067937954536,0.02122261208455953,0.016630119565624248
570,5.7,0.00011854279024869473,0.02273925429977557,0.0025451978760613584,-0.01839285343199345,0.021032946192825357,0.011891666677948656
571,5.71,0.0003645808428768484,0.02610351911250792,0.0012439638887823709,-0.020653152682013586,0.02222366018430989,0.008383691259904737
572,5.72,0.0005119954323532989,0.029083164329997878,-1.597923347020449e-05,-0.02291345193203372,0.02341437417579444,0.0048757158418608155
573,5.73,0.0009315431767758929,0.032457401975025446,-0.0010033771488197727,-0.02389423275487032,0.022760018739554508,-0.00056671224105702
574,5.74,0.0016165633112866782,0.03616128091019007,-0.0016701601544555436,-0.02260524371866704,0.01883264832681028,-0.009440714468737323
575,5.75,0.0009671891022819462,0.036800024082119076,-0.0029637715182457645,-0.01711676508070475,0.01783617247659243,-0.015846036067570218
576,5.76,-7.276805850970768e-05,0.036234868713851946,-0.004092069794165152,-0.009087022269607396,0.018613287717983647,-0.020757469067566068
577,5.77,-0.0011368877239748862,0.03515033816216616,-0.0047729710344387305,-0.0022592149456544105,0.015285612450856157,-0.028521878861687017
578,5.78,-0.0019091870081465044,0.03402180556951766,-0.004941701610751834,0.0038344204441408056,0.009450629579298422,-0.038028957470776135
579,5.79,-0.002277234262513331,0.03278900577029167,-0.004731539642087875,0.008258704837398698,0.005852218954671047,-0.0419797257565706
580,5.8,-0.0022752723434999334,0.031510621350060275,-0.004190965923060726,0.01163529758960062,0.003657490391268196,-0.04244333053217232
581,5.81,-0.002667373636800853,0.029776410442942228,-0.0033026761686353124,0.014866837214013225,-0.0011571385403245395,-0.044482693536102916
582,5.82,-0.002589727418278801,0.027879000432017416,-0.002334058658905262,0.018032013076855997,-0.007170407211860147,-0.047242987173865936
583,5.83,-0.0017344316402894125,0.025547875344836737,-0.001571435795966942,0.02080007519640356,-0.011504442870286971,-0.04657274580298831
584,5.84,-0.00046185281556345575,0.022642787867761346,-0.001018824785963614,0.023019742146638718,-0.01351953770108738,-0.04116509894398787
585,5.85,0.0003395864310024423,0.019366936433565088,-0.00013915612542599975,0.0241369145328632,-0.01897131211230096,-0.03603969828930302
586,5.86,0.0011962358054016919,0.015830411005853515,0.0006266653893449779,0.024572032172624603,-0.026549177387279358,-0.03108890834890989
587,5.87,0.0024246487357735907,0.011722421213383656,0.0010331902217998055,0.027674552514128224,-0.03153834858821375,-0.023455424782280587
588,5.88,0.003757294708751275,0.0073253074451494656,0.0011376981302333566,0.03285593830645585,-0.034509996649590716,-0.013731158638620242
589,5.89,0.004370959430659972,0.0029251290221080483,0.0012909638576361236,0.03307811515024641,-0.039438235004762935,-0.0055036825359619825
590,5.9,0.0049651629560009715,-0.0014855342274995645,0.0011888715411054662,0.030729575420956886,-0.04538071558025357,0.001947899063206884
591,5.91,0.005346910690298181,-0.00588979762930421,0.000957282056063804,0.027432514208833626,-0.049389050648408116,0.008134454627461407
592,5.92,0.0058824340522262725,-0.0103173330415938,0.00047014449067583333,0.02366211646300424,-0.05243219752979578,0.013689729773453323
593,5.93,0.006674471013801584,-0.014727972012631138,-0.00027379861301390267,0.019891718717174857,-0.05547534441118344,0.019245004919445242
594,5.94,0.00741008197808154,-0.01903720015489395,-0.0010832190319715292,0.016121320971345474,-0.05851849129257111,0.02480028006543716
595,5.95,0.007529140915331515,-0.022342677496789316,-0.0019685865887532393,0.010413411320021885,-0.06097374942729573,0.02970931626392323
596,5.96,0.007370580430709372,-0.025469864726537922,-0.0026759091687496264,0.0035300445743624742,-0.06307234498049724,0.03422628975903815
597,5.97,0.006656952914920994,-0.028513410935744117,-0.003099418079936338,-0.0011338854986131207,-0.06689952973672038,0.03757588542724892
598,5.98,0.00594484965084211,-0.0315469447774085,-0.0032155929145065002,-0.004758646059154614,-0.07153606274847663,0.0403788994055467
599,5.99,0.004916661023098194,-0.033905472614139384,-0.002968769042025862,-0.007947170583639505,-0.07662726817201859,0.04153533291044994
600,6.0,0.003977944158905224,-0.03583211198830279,-0.002519207190527918,-0.010871600375106344,-0.08199372960211762,0.041694936271642974
601,6.01,0.0031714867407409025,-0.037232516449943964,-0.0018292174660515998,-0.0127541889082146,-0.08494126058257788,0.04018084118060306
602,6.02,0.0024992202884071115,-0.03800260888471252,-0.0011107532113449538,-0.014011139092833516,-0.0864361944044202,0.03766166981030932
603,6.03,0.0020572305209364344,-0.0376887063573029,-0.00022636196007374046,-0.018164665840783075,-0.08602758163350609,0.035764302147114305
604,6.04,0.0015584279029452707,-0.036560821941473545,0.0005219681202009812,-0.02397598169101621,-0.08452951766799552,0.034222809561566994
605,6.05,0.0010045325117752826,-0.033972334848718436,0.0010909844631564474,-0.02733277024147918,-0.08217413848522116,0.0287292423823144
606,6.06,0.00019165619299732917,-0.03087757244751857,0.001438161195892778,-0.02956188045865604,-0.07942488476888776,0.021419981854990545
607,6.07,-0.0008533218319681326,-0.027709859251615537,0.0016106615268477015,-0.029329168765068487,-0.078296418079091,0.012841573310137216
608,6.08,-0.0020925125171578312,-0.024114791001875132,0.0016856961330514416,-0.02766360739426179,-0.07811129508026537,0.003524484879745061
609,6.09,-0.0028509448543798605,-0.019715855797400213,0.0015631912798558002,-0.02483818585560037,-0.0736010581002654,-0.005254712159341712
610,6.1,-0.0037490466167918804,-0.014780713849346726,0.0014743025600647617,-0.02133624043182548,-0.06656806622687625,-0.01372016760793307
611,6.11,-0.0051288397759257035,-0.009550131423775785,0.0015520359928719377,-0.01783429500805058,-0.05953507435348707,-0.022185623056524433
612,6.12,-0.005107482301925493,-0.005067184872146862,0.0012421151508984786,-0.015543141311230703,-0.05547307307288876,-0.02697250257051136
613,6.13,-0.005508050395782552,-0.000105080622296529,0.0011606491151541266,-0.013810066197105212,-0.05278046190481857,-0.030063851467452708
614,6.14,-0.006944609314577748,0.00570212326442673,0.0015158048011417573,-0.012076991082979724,-0.05008785073674838,-0.03315520036439406
615,6.15,-0.008717863223885767,0.011819068318312047,0.0020792657159393133,-0.010343915968854232,-0.047395239568678194,-0.036246549261335415
616,6.16,-0.012514281276821367,0.017849555993977938,0.0008032470613625504,-0.00759210864322955,-0.05223136883037977,-0.0393597776511013
617,6.17,-0.01514143697267199,0.02342052031924573,8.47234754759547e-05,-0.004363097829398935,-0.06059417679560145,-0.04248325502502437
618,6.18,-0.015307776371960754,0.02826918618160422,0.0008283465553964495,-0.0011340870155683179,-0.06895698476082313,-0.045606732398947435
619,6.19,-0.013867383112039099,0.03163703952164236,0.002105897311578666,0.0001957965517198725,-0.07809278450600089,-0.04353703693310915
620,6.2,-0.011354198780340328,0.03414491280600172,0.0035592863515319126,0.0003876616010495669,-0.08769178594628428,-0.038355424206662256
621,6.21,-0.008760967358480958,0.035869598952720155,0.005646964317056778,-0.00034306655630462525,-0.09386335793233004,-0.03449117187789895
622,6.22,-0.005777025628288538,0.036960494510835204,0.00720958001898513,-0.0015771570041679546,-0.09816494135988138,-0.031345664866573524
623,6.23,-0.003019344868298947,0.03739349311464217,0.008386290992417297,0.003552102185626385,-0.10222356155214382,-0.03281660318592401
624,6.24,-9.742605067766027e-05,0.03706975904225422,0.008512266202025748,0.012518956972866726,-0.10613565598436188,-0.03707161770501845
625,6.25,0.004004727524130803,0.03566999486802502,0.008887156553657386,0.015151821338954888,-0.10203769286876012,-0.038076160678354884
626,6.26,0.007723259235894771,0.03353271798369241,0.007832001792609641,0.01485710218095151,-0.09423746452305774,-0.03757832895420031
627,6.27,0.011409555405356202,0.030469733799290185,0.006067886928825754,0.014713676384703632,-0.08376813346630825,-0.03639228401904728
628,6.28,0.013750252145548883,0.026916859598207003,0.0030557681710166908,0.014644129665687454,-0.07199543494491438,-0.034870173070308
629,6.29,0.01527713110955131,0.023483260657916984,-0.0010029189129790563,0.012234558571749128,-0.059824466219462274,-0.040020223638175985
630,6.3,0.01523963917026924,0.01961611118117678,-0.005351744849111949,0.008667217570338108,-0.0474564460178618,-0.04847144828974652
631,6.31,0.014901815378708924,0.015301292840619232,-0.009827278284113311,0.002224048590822596,-0.034497169071326245,-0.05095096880195299
632,6.32,0.013348754547344289,0.010528981812511298,-0.013500820334282052,-0.005968297200077796,-0.02117826957584497,-0.049798294869792335
633,6.33,0.01056211321067019,0.0053957593499812774,-0.016869725408509197,-0.008648077259112714,-0.01281938347270224,-0.049299454331946976
634,6.34,0.006944796657514792,0.0001293111791383552,-0.01876606017019301,-0.00782264825553335,-0.00761436160250894,-0.0492163589934642
635,6.35,0.0031865651473591185,-0.005003073048119847,-0.019671754619310044,-0.008412202967033981,-0.0019602617414723298,-0.048262119468624666
636,6.36,-0.000542170067869132,-0.009884589569073707,-0.01869803425193682,-0.009776473305887295,0.0039397121417870645,-0.04683092108718809
637,6.37,-0.0040444807541198825,-0.0146718791058377,-0.01635333605650282,-0.012333861892849756,0.0034833396527649057,-0.04225083113810475
638,6.38,-0.006940315844261038,-0.01888790862858525,-0.012638423891677693,-0.015608955819321825,-0.0007966133894746581,-0.035776564903294145
639,6.39,-0.009856603845070443,-0.021558844697842517,-0.008437212307529505,-0.01856594109036864,-0.005697153071534712,-0.03391262710121438
640,6.4,-0.011615193144536243,-0.02359686628582356,-0.00360895990585694,-0.021364895733162727,-0.010905988975352615,-0.03433901710458797
641,6.41,-0.01215903583077438,-0.024991850463169783,0.001724115137576916,-0.022495463540522925,-0.015941994367292694,-0.036957832625350975
642,6.42,-0.011364315064035027,-0.02611292480786751,0.0067830678231505055,-0.02284199008478123,-0.020896779834718087,-0.040606956007218496
643,6.43,-0.009661265054286909,-0.027016090082301193,0.012316242200252611,-0.02573905724888754,-0.023428315915188052,-0.044868336655775824
644,6.44,-0.0071721495377374996,-0.027506036672552324,0.016456262343334624,-0.029912925659664462,-0.024746772770735555,-0.04943621343903862
645,6.45,-0.0037287998661484183,-0.02670983249320588,0.01946102922753954,-0.03568778002034523,-0.02207783235678138,-0.058156751045373566
646,6.46,-0.00023718729623576663,-0.025493114812136917,0.020457575935524518,-0.04232622039833865,-0.017258054499426058,-0.0691172707212967
647,6.47,0.0030590725956537303,-0.02393923444623612,0.020165243324807118,-0.0466763050799271,-0.011521978112037113,-0.08133339937709583
648,6.48,0.005704942769641031,-0.022262614893530472,0.018134517938695673,-0.04983647262556761,-0.005309437631131672,-0.0942024294343474
649,6.49,0.008750110577345146,-0.020414743404001852,0.014731713611735656,-0.05372284322450576,0.004852026517501337,-0.09847754082459663
650,6.5,0.010816656146280954,-0.018326635030215508,0.010443089553979167,-0.0580527966163087,0.01742559094771021,-0.0975032740600016
651,6.51,0.011206282202293649,-0.015653219097962738,0.0052452980980350235,-0.05798237111828612,0.025029792096797725,-0.10112845184007503
652,6.52,0.010377069780542095,-0.012708825772033368,0.0002118563306328135,-0.05511392946702428,0.02947418381128378,-0.10767822326404286
653,6.53,0.009783196110639278,-0.010300811904733219,-0.004918651364773278,-0.050061531177546116,0.03673049406420665,-0.11484491772632277
654,6.54,0.008532299361420269,-0.007688282638984201,-0.008886014622277987,-0.04369708082095964,0.04567611603071257,-0.12238224003601512
655,6.55,0.006265015014412266,-0.00498398149103367,-0.011904001526246424,-0.03877292817503253,0.04904777787616372,-0.1257450732358941
656,6.56,0.003465829128276628,-0.0018022066895006803,-0.013310543797550381,-0.034721837456511216,0.049040685224849584,-0.12657746604058587
657,6.57,0.0003606839043251691,0.0019782663132509636,-0.01363186403439291,-0.03194160574341414,0.04724444747798285,-0.12685082846937384
658,6.58,-0.002513970728031279,0.00600465271735239,-0.012531982087890824,-0.029860533635068368,0.04446391645191658,-0.12681664186637095
659,6.59,-0.005273871930014688,0.00993853881355887,-0.010245123112833883,-0.0275681533000664,0.03917427331785096,-0.12720657194799706
660,6.6,-0.007349988401385269,0.013560785351958947,-0.007261410372718479,-0.025135135444458463,0.03221467482343135,-0.12787877555923288
661,6.61,-0.008824885409535521,0.016506633686232675,-0.0036100850713299444,-0.022902846518242412,0.024790009580893974,-0.1251458630678382
662,6.62,-0.009389287805913166,0.0188782222733972,-0.00012740013691680836,-0.020798515299922646,0.017068880468957142,-0.12024230754589815
663,6.63,-0.009310043025893892,0.02068846040100564,0.003249644167176723,-0.01666994883777434,0.012378764209329951,-0.11710983535852525
664,6.64,-0.008413284691093889,0.02190923104351005,0.005671267221617763,-0.011506936380668631,0.009237588032282286,-0.11488244081356795
665,6.65,-0.0073926463118254085,0.022054941425503648,0.00760405421847426,-0.00578113391727356,0.005455836594479949,-0.1141492912603911
666,6.66,-0.005866730241539507,0.021661329204731634,0.008357610900652988,0.00026774349542692597,0.0013063568431293255,-0.11427392723925005
667,6.67,-0.002954729022255953,0.02034165794581379,0.008322867444965368,0.004294262318501925,0.0017335648416576472,-0.10933586589340467
668,6.68,-3.867923719178641e-05,0.01884600400175149,0.007210409524787058,0.007190593215808045,0.004718438558551679,-0.10156853410187494
669,6.69,0.0017894752880683285,0.017484865008037077,0.0052763796561545685,0.009084363989411448,0.007550084193366727,-0.09451594486422718
670,6.7,0.002955435994886303,0.016082573132198588,0.002784561824187781,0.0104181011777046,0.010296136086571572,-0.08786261331253843
671,6.71,0.004408217010449273,0.014279045937556478,-0.00035598521892133556,0.012576522196945763,0.014220535701525996,-0.08228314580264308
672,6.72,0.005278793727036877,0.012268317706321887,-0.0032774927364031935,0.015152253106546162,0.01874120765760672,-0.07724707937413716
673,6.73,0.005019421029464696,0.009951636904498646,-0.0058150824504340365,0.013605314104024595,0.01813911134917227,-0.06845240127361008
674,6.74,0.004179261298251863,0.007506502297465674,-0.007535407263633871,0.010000130602647523,0.014979471064600559,-0.057781234887051426
675,6.75,0.0032004145614602545,0.005365546599547219,-0.009262473664743224,0.00817988204824574,0.015288052116246804,-0.0509861148017294
676,6.76,0.002089514809354322,0.003041456708400519,-0.009870580030134664,0.007184252562914409,0.017198910861233502,-0.045981682773703805
677,6.77,0.0009006392059338203,0.00037636981633567103,-0.009037319910169558,0.006188623077583081,0.0191097696062202,-0.04097725074567822
678,6.78,-0.00046178097023610865,-0.002615838285878003,-0.007818971472126852,0.005089043295346272,0.01735815811380757,-0.034194349265790486
679,6.79,-0.0016706911758006164,-0.005584789344027194,-0.0060123204001511985,0.003926826795743344,0.013399673529628677,-0.026339805936703785
680,6.8,-0.0026649090089233916,-0.007831094314190719,-0.0034567986619036106,0.0009410340805658344,0.010503241864817136,-0.01832339157949818
681,6.81,-0.003321525353765874,-0.009826156889967335,-0.0006991999004349238,-0.0031810529198885496,0.008268589319864591,-0.010206113259145607
682,6.82,-0.004304082485874003,-0.011688949818683927,0.002351117462900173,-0.0041579299990820605,0.005113858503108852,-0.004472249397393963
683,6.83,-0.00483633721601494,-0.013418475683690687,0.0049483564106882075,-0.0032363833862252282,0.001403775759626494,-0.00017699554561247458
684,6.84,-0.003962586520957537,-0.015012893947336231,0.007079978788573092,-0.004350532769618446,0.0013818049087977273,0.004231405172710666
685,6.85,-0.0026721800180239757,-0.01626179284715329,0.008334487888290616,-0.006562272283050747,0.0033483604486054877,0.008700811504931825
686,6.86,-0.0022523192999768737,-0.01641164762152424,0.009296667825539614,-0.011341639303957736,0.0016207682370340632,0.012098198178694694
687,6.87,-0.0017670054925962753,-0.016243987655896103,0.009299754425310157,-0.017299552595438892,-0.0018024453380971696,0.015003525639514787
688,6.88,-0.0004679399130318716,-0.015564400713486005,0.007993516173540688,-0.021418404537232632,-0.0031982750932676943,0.017862182500949775
689,6.89,0.0008677497729717299,-0.014818590051657643,0.006166268449194009,-0.02469116474112813,-0.0036613721258953393,0.02069936775212597
690,6.9,0.001076435134224834,-0.013888198674801283,0.00439482232105259,-0.029782639413611787,-0.0076446734603076985,0.023705341491058927
691,6.91,0.0012174424245085845,-0.012841232372033391,0.0026941013345138636,-0.03580685872278438,-0.013433344323169404,0.02679787997636033
692,6.92,0.001961668812730876,-0.010987497885479465,0.0005205283551730834,-0.03875486269814805,-0.015322241027859857,0.02666478515150503
693,6.93,0.002838668102793071,-0.009056199174748694,-0.0012970011744468026,-0.040025233554517474,-0.015084371698832744,0.024772571187174682
694,6.94,0.003559380870627632,-0.007445929239043968,-0.0023218689134571237,-0.041295604410886894,-0.014846502369805637,0.022880357222844337
695,6.95,0.004069063172580003,-0.005868728995290209,-0.0027728393650758403,-0.04256597526725632,-0.014608633040778526,0.020988143258513992
696,6.96,0.004347696009904638,-0.004163841019349093,-0.0028260872046791522,-0.04383634612362574,-0.014370763711751413,0.01909592929418364
697,6.97,0.0040148663391640265,-0.0021081402210413602,-0.0029416391513465844,-0.0438429272074853,-0.01453152669495152,0.019025672380289724
698,6.98,0.003553525621954351,0.00010864278687019221,-0.002843664911075275,-0.04308571941391112,-0.014933208644966953,0.020056540479871505
699,6.99,0.0032853195369294914,0.002661948321937268,-0.002222828252618865,-0.044466817105612434,-0.01557615459114056,0.0136841434821709
700,7.0,0.003085909437721129,0.005083618005888629,-0.0014748840494805174,-0.04682758173151261,-0.01632963589396756,0.003919932699742782
701,7.01,0.0027745503057804224,0.007232871999060004,-0.0007952684322178919,-0.04861552125986212,-0.018172386862620737,-0.002846811797337623
702,7.02,0.0024254379478811793,0.009097746248840948,-0.00024648437826527494,-0.05005564124167572,-0.020676542652471482,-0.0077934939951503236
703,7.03,0.0014942898744659521,0.010731835611870053,0.00039271655140098746,-0.04957185691971017,-0.024800651894008603,-0.016289816847544075
704,7.04,0.000664922897953237,0.012068931227291682,0.0008193566429821357,-0.04794648247230268,-0.029885995465386395,-0.02689239556317234
705,7.05,0.0008891952574815807,0.013230289560229452,0.0008371253682598371,-0.04513954508741876,-0.029183238461517713,-0.03691589924961094
706,7.06,0.001320162296092978,0.01404591185969128,0.0005993072928647733,-0.04152299615825119,-0.0245144523139092,-0.04654261846205472
707,7.07,0.0002734555518562751,0.013702699529169023,0.0004617674978892126,-0.03605677845570431,-0.027836070236468956,-0.05816680973933387
708,7.08,-0.000891411982065953,0.013079197550767252,0.00021449301475107022,-0.029465050544102582,-0.036019791842066586,-0.0710064484705735
709,7.09,-0.0002507069645049237,0.012382689240397015,-0.00039552906741639467,-0.024822952766437492,-0.035892822788845216,-0.07957015143341188
710,7.1,0.0005231832979483431,0.011843807661065091,-0.0010653430077765128,-0.02117628548011768,-0.03152263101254102,-0.08595067268972514
711,7.11,0.00012739580839299966,0.011209527342933194,-0.001756867237876838,-0.015855959680077372,-0.029439508573017605,-0.09434538353762867
712,7.12,-0.0006649590244682238,0.010572691048531199,-0.0022920985776623912,-0.009473215045841095,-0.028808190978143494,-0.10401867836201498
713,7.13,-0.0009480897757867396,0.009269577293295455,-0.0027184737343174787,-0.0045724026579146105,-0.030453285521102463,-0.1094400026423238
714,7.14,-0.0011701174501246288,0.007951956681162796,-0.002903674263975,-0.0005942211363017138,-0.033515643308076604,-0.11221410787709878
715,7.15,-0.0020793566126505545,0.006655491274866821,-0.0029665036592891087,0.004822999912711229,-0.03673690256195536,-0.1119323170204769
716,7.16,-0.003006658261127208,0.005505024708497469,-0.00278718146738418,0.011118102264142265,-0.040055099129970594,-0.10978628686417664
717,7.17,-0.0032708236846275274,0.00404199916426846,-0.0026027394790336506,0.018852252691991117,-0.040497428922798534,-0.108791533101593
718,7.18,-0.003256147195466733,0.002573903777066151,-0.002227710214216803,0.027576948284039768,-0.038960202942802113,-0.10858924158064076
719,7.19,-0.00350891765829932,4.156518148618147e-06,-0.0010546973933073473,0.03577922798334027,-0.03922254430581502,-0.105957136149957
720,7.2,-0.0036760508017671424,-0.00211226999540078,0.00012638280708625934,0.04372477981290099,-0.040369236809053965,-0.1021309610947296
721,7.21,-0.0032179021337874845,-0.0030993016179054,0.0011953398828149536,0.04508251001113472,-0.03900796821664915,-0.0943064005133388
722,7.22,-0.0027195004526477384,-0.003662545634858446,0.0018621123931451052,0.043413611123639125,-0.03649447231410327,-0.08464487004923311
723,7.23,-0.0024454526193230476,-0.004199575470406094,0.00249993284460839,0.04095757272131488,-0.034788272839505925,-0.07733587435707606
724,7.24,-0.0022732529128372263,-0.0049503174347098455,0.0026888447083506946,0.03812615793538676,-0.033467062312751726,-0.07114877126255925
725,7.25,-0.0017158511307397877,-0.006471041835299343,0.00235339951478969,0.03932302425104795,-0.030863547706140356,-0.0623371371494907
726,7.26,-0.0012395402603670425,-0.008156899051867726,0.0017204143888395716,0.04275351075781268,-0.027549015121470455,-0.05207024077259903
727,7.27,-0.0007992841774510023,-0.009720142078284737,0.0009266808419770985,0.043237706977145976,-0.024113995501659543,-0.03705200667300501
728,7.28,-0.0005674273973350097,-0.011121685673281373,0.00015837487797122282,0.041929868801647216,-0.020605691551372072,-0.01914384667002401
729,7.29,-0.00039042883390733463,-0.011959743244473894,-0.0002629068491566427,0.03841923327419622,-0.017718624073404625,-0.003600390067275037
730,7.3,-0.00039519278274702355,-0.012692291273842516,-0.000557557928657731,0.03376622068419139,-0.015153731622464191,0.010716724529127341
731,7.31,-0.00010419702301789444,-0.012575409274458091,-0.0012312600158612243,0.03093194098647873,-0.01138821763761201,0.022962672311473174
732,7.32,9.857440397831969e-06,-0.012667188991232476,-0.001691334441319831,0.028990217740976237,-0.007033489864799561,0.03419217985054618
733,7.33,-0.0002200721874155409,-0.013353780002318044,-0.001678518635165136,0.027048494495473745,-0.0026787620919871123,0.0454216873896192
734,7.34,-2.191599333503007e-05,-0.014142340841453641,-0.00125548814478811,0.019758038033530247,0.0018452618613030265,0.061089702813879425
735,7.35,0.00024176167843833736,-0.014711480263176147,-0.0006274791580207484,0.008293912764810727,0.006501389278903954,0.08022112932248636
736,7.36,0.00010490391288066846,-0.014856733165919477,1.8038634945558105e-05,-0.0031702125039087953,0.011157516696504884,0.09935255583109333
737,7.37,-0.0004456553110729301,-0.01324959602072534,0.00040852085258449617,-0.010648160473646523,0.013084901668104741,0.11394102338234795
738,7.38,-0.0008580116183860133,-0.011311833167419613,0.0008055852454422379,-0.01587120652053765,0.013468690826740471,0.12595962860184842
739,7.39,4.2001801127378906e-05,-0.009078386626722326,0.001271006839267112,-0.020055812605395268,0.016179018662049755,0.13778467133681865
740,7.4,0.0011208902882007292,-0.007061422919722097,0.0017821143426538894,-0.02361682286157976,0.020286461272467738,0.14949347744535518
741,7.41,0.0010608327425808803,-0.005086401413191407,0.0024163665986453534,-0.026924335976269108,0.02286792089037171,0.1546280085072598
742,7.42,0.0007932128881777965,-0.0032503134437104047,0.0029680075375543057,-0.030067241100513724,0.024458485729861083,0.15549354388079406
743,7.43,0.001601381241410124,-0.0006188188590805005,0.0026978296844369547,-0.034636894622688486,0.0283956804533279,0.15207191155883826
744,7.44,0.0025942206443217847,0.001890504213448582,0.002330128806168941,-0.04007989389158916,0.03376930169129775,0.14602600457304624
745,7.45,0.002516002245858296,0.00396123697290866,0.0021122725983278726,-0.0418512708425662,0.03528363662647059,0.13304242960171336
746,7.46,0.0023713230460554787,0.005682822854070929,0.0021229796877255203,-0.04184109571977873,0.034925360786173684,0.11669254521277135
747,7.47,0.003293941792262535,0.0074375762316161945,0.0023097094404712255,-0.04065446383489702,0.03770090216771044,0.10157486734442328
748,7.48,0.004273732690575933,0.009182124552314198,0.0025090580244988667,-0.03877363079814193,0.04232563987779302,0.08718428732913988
749,7.49,0.004523232243351126,0.010724091056555748,0.0028822605246279875,-0.036287329418744144,0.045382390564091615,0.070022775569824
750,7.5,0.004391120448174456,0.01232226963544467,0.003040244228407012,-0.03342993453901695,0.04747811694549037,0.05116295080610112
751,7.51,0.004119400460489958,0.013015319878950037,0.0032454973536957545,-0.03281297176935438,0.049782676211837185,0.04107109476802444
752,7.52,0.003741996183874147,0.014034188824654705,0.002992471573656159,-0.033441003320966056,0.05220328262582469,0.03585154493530062
753,7.53,0.0032822431260744233,0.01597554443091022,0.0020499709775535645,-0.03406903487257773,0.054623889039812204,0.030631995102576814
754,7.54,0.004706705409462837,0.020206095254436108,0.000983072275372198,-0.03116666997209615,0.05913272999629773,0.0181046132495534
755,7.55,0.0056121636834914074,0.023866854882831308,-0.0002999915522309449,-0.026273280735322986,0.06481926469070126,0.0014558610078530439
756,7.56,0.004224745731763301,0.023146522900575173,-0.0021055177895681816,-0.0161085634666695,0.06870016983971705,-0.005811298118133686
757,7.57,0.0018928579080562278,0.021169116105269746,-0.003849431617862302,-0.002675844840814328,0.07146166072173156,-0.007262264654806305
758,7.58,-0.0005971079518659848,0.019026267889889023,-0.0053392020049226946,0.010434510276152352,0.07061962176948455,-0.008712268745524903
759,7.59,-0.0028254856679058556,0.01739435324329186,-0.006358606358597758,0.023351612285103348,0.06761730933374233,-0.010161695861285784
760,7.6,-0.004472006867033286,0.015446352116534556,-0.006870634468108132,0.0342761099220292,0.06751236957920277,-0.014173520655565652
761,7.61,-0.00561515911759644,0.013897730278194909,-0.006913553147863245,0.04397673998259418,0.0691870106240137,-0.01975918292632086
762,7.62,-0.006586802580465618,0.012498859604543455,-0.006553552580914894,0.04886916284168589,0.06617814549356855,-0.01892363881831346
763,7.63,-0.007100359827284143,0.011348704323194564,-0.005897059898721287,0.05114054815337375,0.06061621951851533,-0.01458778319852077
764,7.64,-0.007318953033510894,0.010176673912120748,-0.005330191883331847,0.05460763800508595,0.05694302657948042,-0.0066240925870503726
765,7.65,-0.007072383098919188,0.008691395459620378,-0.004595850941341344,0.058831193994364574,0.05446474637751834,0.0036347589375222413
766,7.66,-0.005944911686047702,0.00626616823287908,-0.003574828627812919,0.06065180268361145,0.05527911884873349,0.012158575819426948
767,7.67,-0.004587937569182047,0.0033443216914690373,-0.0023818608571967844,0.0612405873825683,0.05778140538883345,0.01979296108674966
768,7.68,-0.003697649195466006,5.6010798881640095e-05,-0.0009064179806062302,0.06303487322900607,0.056122889680706924,0.02676257415310196
769,7.69,-0.0028461063780206752,-0.003554938998914495,0.00045490289318454117,0.06539541152508359,0.05250994657908658,0.03341992796691143
770,7.7,-0.0017185108744667205,-0.008082131938349875,0.0018468343654167003,0.06922003096551299,0.051380391396070285,0.041461632345081635
771,7.71,-0.0006087872331443687,-0.012696353203357444,0.002919355050442945,0.07397912945875937,0.0518359081873137,0.05038692613982285
772,7.72,6.676595899357584e-06,-0.0170256045628918,0.003941004604741179,0.07536319741178192,0.049963010375386425,0.06042921106922493
773,7.73,0.0005025796407744102,-0.020802395732450882,0.0044132820247426196,0.07519164500623532,0.04701689882014234,0.07098633997669201
774,7.74,0.0007922392056353289,-0.023451880476506898,0.004285768297119874,0.07044361735902441,0.043999108311620766,0.08511112139960289
775,7.75,0.0011177449256011653,-0.025687300736350224,0.0037653995420716714,0.0636047059184191,0.040948569376893146,0.10086587926313607
776,7.76,0.0012566614063985917,-0.027034683332268213,0.002991886377659373,0.05640176393646619,0.04019884960818895,0.11046201406437174
777,7.77,0.0014380699784088532,-0.028166632699560712,0.002186028868844443,0.048975895802298164,0.0408581126180331,0.11628671216928264
778,7.78,0.001989695611092198,-0.029162516297150394,0.0014884748974889075,0.041826777999165315,0.04063893640201049,0.12226979616028362
779,7.79,0.002586718141162052,-0.02987256640520606,0.0009498716002183146,0.034925953179425616,0.03963164804424553,0.12839497972542993
780,7.8,0.002425418992568191,-0.029590124294115235,0.0006338247867820025,0.029930761371967717,0.03911931763688429,0.1330851488593575
781,7.81,0.0021067407650517756,-0.0289134395102914,0.00048403953842704483,0.02608579449366772,0.038905739911581985,0.13690915469644294
782,7.82,0.0023335780601948727,-0.028068576796709425,0.0006062346853518345,0.02602828613662309,0.04067499861901691,0.13826125610008436
783,7.83,0.0025895252747339436,-0.02677867171794286,0.0008005577389222631,0.028266612739298636,0.043646188694448994,0.1381149689184675
784,7.84,0.002487973257482749,-0.02471572915836779,0.0016414905745768876,0.027970742553975362,0.045138708451574826,0.1360683306267949
785,7.85,0.002167640443875468,-0.021884548891529743,0.002360353588349829,0.025977650241975986,0.045640921538684584,0.13274897430165536
786,7.86,0.0020710492867326864,-0.01812292602205599,0.0021236456511771256,0.02441629109712636,0.04813000115951165,0.1282065313894264
787,7.87,0.0018305571338933717,-0.013723149921212874,0.0015450559031176185,0.023091309535900374,0.05170690711835975,0.12299443816071302
788,7.88,0.0006642576175007711,-0.008625901647774326,-0.0016906711855394089,0.020331432193968317,0.04606297185494489,0.11963165427235037
789,7.89,-0.0005030888365599542,-0.0032193339350966386,-0.004147453940583125,0.016781115985245322,0.0353395657445266,0.11728759662110408
790,7.9,-0.0031376992542965967,0.002745591075184354,-0.006461683051760179,0.015470550957887878,0.01664281543267366,0.1078294012638562
791,7.91,-0.004740618982504736,0.008530408673905986,-0.006466968132410318,0.015211082797013175,-0.0057957599422680675,0.09503259940749442
792,7.92,-0.007121012563859361,0.013793243813949616,-0.004689164941612958,0.01859186476484681,-0.03392577728369695,0.08296369240297922
793,7.93,-0.007889072391513631,0.01860524717961555,-0.0014847406351436747,0.02418959713286725,-0.06552194230704925,0.07133808097597638
794,7.94,-0.00860245839111639,0.022531960087298707,0.003485314833343716,0.03288514995368234,-0.09692926387065866,0.055924197447507484
795,7.95,-0.007170557526896652,0.02607970603384703,0.008300268960008782,0.04339537907526232,-0.1282259625766261,0.038291177042600995
796,7.96,-0.0026142702652073198,0.028053562713450837,0.01459869203988808,0.05631680238140591,-0.14522700164105298,0.023148982511509358
797,7.97,0.0031748915759294257,0.03013116451411186,0.018485925268356337,0.07038809218023237,-0.15541063042892775,0.009194629768417742
798,7.98,0.00831205687948279,0.03215562610283192,0.02146495443485249,0.07698326113474241,-0.15647155013225314,0.0008099846976433778
799,7.99,0.012290447156505799,0.03392774994295406,0.022637703399062913,0.07546955855433926,-0.14763764903780693,-0.0015335536357812464
800,8.0,0.01883535375315469,0.03630886828165924,0.0206501175609794,0.07452572199397238,-0.12581477913500386,-0.0041360459643201815
801,8.01,0.023125848431806303,0.03829240986025426,0.014798721253962581,0.07387025137145516,-0.09741917802797198,-0.006869575254242262
802,8.02,0.025093090184194547,0.0386653655320364,0.006847735776042422,0.07609557217739156,-0.06714090773198697,-0.005407878904568784
803,8.03,0.023954041299855348,0.037808067272545806,-0.002216733316275891,0.08059818826651917,-0.035374368059237785,-0.0006298134951254961
804,8.04,0.020932094993416438,0.03641388863420704,-0.01320416828437171,0.08344826526457404,-0.009557622904625487,0.005738308984561613
805,8.05,0.014751132470918325,0.03406628753915719,-0.02312927952114889,0.08552281921577523,0.0134669324628976,0.012852632210995528
806,8.06,0.0074896604322663915,0.02967514979554862,-0.03246138593825777,0.09291214823727363,0.034333482347290965,0.018697530223823283
807,8.07,-0.0012335656771756912,0.024504921309656112,-0.03836114678652119,0.10306878106666408,0.054076399206405126,0.02388146231034516
808,8.08,-0.010234660812292691,0.018274952820166643,-0.04315180242281358,0.109682239402993,0.0610322940270201,0.03377151412119539
809,8.09,-0.019038059139582137,0.012142992788870356,-0.043168674237802435,0.114665599501968,0.06210529989401981,0.045826697082776924
810,8.1,-0.0288891802539723,0.008209871042237053,-0.04017041211073488,0.11313208957215524,0.05504351610500115,0.05816584172800233
811,8.11,-0.03638714045097774,0.004035026040908668,-0.03307566284403099,0.10817513541123427,0.04370836203298565,0.07065415721497108
812,8.12,-0.039829187692250724,-0.0015699290982152843,-0.021988445129551643,0.10321818125031336,0.032373207960970166,0.08314247270193982
813,8.13,-0.04254588156968908,-0.014434798109413593,-0.01991528783731937,0.08944810049584373,-0.00835080512347932,0.11173228015477396
814,8.14,-0.042526279425743094,-0.02336638113150407,-0.012073473741234627,0.07551832750694594,-0.056475693923196124,0.1433086235204303
815,8.15,-0.036720501290922185,-0.019357483820566884,0.014560666864346795,0.07581765980800596,-0.0693351754217909,0.15366887494992915
816,8.16,-0.031000986460278823,-0.021796616617957718,0.033519051231344986,0.0810619441271073,-0.0860441468649188,0.1672600043753993
817,8.17,-0.023113190325961375,-0.026630775961300653,0.04541266957678544,0.08927826653069904,-0.10506675667688713,0.18279297113626436
818,8.18,-0.01196942948124425,-0.03045680772637131,0.054946956111038406,0.09014836558278902,-0.11058670434443617,0.19112168959892545
819,8.19,0.0004462723415904514,-0.033800692778334314,0.058305508613927096,0.08747171148652644,-0.10958757313561672,0.19597220040159966
820,8.2,0.013911474682360104,-0.03619599789399163,0.057626939389246824,0.07822304076741925,-0.09915851723698893,0.19875885189477388
821,8.21,0.02572879488480067,-0.038050771921725374,0.05161140064818817,0.06542157289385794,-0.083631694316864,0.20042979204654693
822,8.22,0.03438134731992846,-0.039524791072514394,0.0402617960213523,0.05262010502029665,-0.06810487139673907,0.20210073219832
823,8.23,0.042177164269595974,-0.038410769550991666,0.026961990331202175,0.03831752207264827,-0.04643333346525795,0.2022630798006955
824,8.24,0.046565023053121136,-0.03684175890784022,0.012972783231943712,0.02324713782350191,-0.021618851821801392,0.20165380146788944
825,8.25,0.047968241960912275,-0.034639370125114616,-0.0017592200471481141,0.007850010095901647,-0.0029729553763836736,0.2002496851869583
826,8.26,0.04580074258249327,-0.03257313228641838,-0.014642456620153392,-0.0077126059677278406,0.01254868927093122,0.19844300108716664
827,8.27,0.04175600649169088,-0.029949624818255055,-0.026303798738053528,-0.022528886914439463,0.02641383300071725,0.20227335841135907
828,8.28,0.03526794359917142,-0.027236043597295836,-0.034305486014973983,-0.03695621986745462,0.039415701381635936,0.20904142548890864
829,8.29,0.026780583460159085,-0.02332920503875617,-0.04031861554908056,-0.05106780025591117,0.044878377751781884,0.21035852822278572
830,8.3,0.017251911873184242,-0.019363599800273655,-0.041922495331453445,-0.06503397859441104,0.04686930409856482,0.20916549650718147
831,8.31,0.006692212690638003,-0.016425280322976743,-0.0397601370845001,-0.0707664106272258,0.04670050604853521,0.2112123391252632
832,8.32,-0.0029746150901820805,-0.012972866255796025,-0.03429878665013987,-0.0727090108324238,0.04553762924576714,0.21475043231282195
833,8.33,-0.01080411188115838,-0.008359979047329913,-0.026426505517778993,-0.07465161103762183,0.044374752442999064,0.2182885255003807
834,8.34,-0.016814018645226816,-0.002799401422513238,-0.017581812997109435,-0.07659421124281983,0.043211875640230976,0.22182661868793946
835,8.35,-0.021046966624707508,0.009418202751207883,-0.014030674141825822,-0.08212035679378175,0.029740014902621938,0.22700419777081815
836,8.36,-0.023726858814254154,0.020238784386926757,-0.00970814640733698,-0.08947371548571373,0.009991929078502569,0.23301773395297154
837,8.37,-0.026598206722811702,0.023114154678298682,0.003642633318163285,-0.09667393135720193,0.003057278841478364,0.22871776589303655
838,8.38,-0.0278280649240864,0.023695584896511395,0.01628826054794802,-0.10380031091701032,0.00230050113518197,0.21944524272720076
839,8.39,-0.026956023970330218,0.026140184555297104,0.02492226478873401,-0.11098687557881064,0.0031321460334504557,0.20772969560456447
840,8.4,-0.024570943580632283,0.028910941656164604,0.029181489253851445,-0.11821158074226534,0.0049704060735433426,0.1944659553879192
841,8.41,-0.021057295825063285,0.0318501065224005,0.029693461821187518,-0.12133153669100287,0.007702843939838813,0.1708423810333923
842,8.42,-0.01706816524495504,0.0340554312888334,0.02710624724520263,-0.12195165743817887,0.010979845454111231,0.14090955933986585
843,8.43,-0.012169981056522297,0.034547620591333685,0.022062813262974778,-0.11834105632050808,0.017667434962141928,0.11325882650250227
844,8.44,-0.007741446294168964,0.03425665928156824,0.015745336556661656,-0.11242219427812183,0.026215824411125743,0.08685319005806835
845,8.45,-0.0036664648047049194,0.032949706220426915,0.008852881737804113,-0.1034511793163206,0.03542675626201504,0.06289976605515256
846,8.46,-0.0007611955693612987,0.031611378073523766,0.00226943993020441,-0.09284678930430744,0.04499225102556054,0.04025865592560676
847,8.47,0.0015128057311296853,0.03003115789873545,-0.003946613794294378,-0.08147342474793236,0.05353643443009566,0.01673889989538096
848,8.48,0.002584431772883487,0.028700038670813367,-0.008947926946351123,-0.0697081432136337,0.06156009441252646,-0.007228668417558572
849,8.49,0.0025420863302617596,0.026397314965847532,-0.013027531148969812,-0.058369672881042986,0.06365196151653307,-0.02949286135305257
850,8.5,0.0017645203124420404,0.024439556354983308,-0.015469026217306916,-0.04722629314145213,0.0630324729073506,-0.05097846058913718
851,8.51,0.0006253388560734856,0.021051795070431215,-0.017126510805873886,-0.03559397173282645,0.06070303827835656,-0.06431341218183716
852,8.52,-0.0005203349198292574,0.018360891947559792,-0.017137567244693175,-0.023736078374888645,0.05758472456350175,-0.07388808398348565
853,8.53,-0.0014405099517331313,0.016978971344980755,-0.015385017011647014,-0.011878185016950843,0.05446641084864694,-0.08346275578513414
854,8.54,-0.0019934750289221505,0.015826319540017477,-0.012567463954096744,-2.0291659013044194e-05,0.05134809713379213,-0.09303742758678264
855,8.55,-0.002119321211490317,0.014213434069136605,-0.009214482426403619,0.01183760169892476,0.048229783418937335,-0.1026120993884311
856,8.56,-0.0019993610865232875,0.009419903817150497,-0.0056194873762689035,0.02416237227417492,0.04356207282733772,-0.10536474158178397
857,8.57,-0.0014593887575177116,0.00406362315616279,-0.002176515669338671,0.036775852648316565,0.037936238677550416,-0.10389874400603218
858,8.58,-0.0007323159757039741,-0.001470242784226231,0.0012947836942174091,0.052096920875906415,0.03347164352992005,-0.10048373933833528
859,8.59,0.00038827774272666687,-0.006291369175611541,0.004187678527050767,0.06906343638420916,0.029712753113504037,-0.09588428984627302
860,8.6,0.0017369818464878948,-0.011037885762866054,0.0067719658486717705,0.08112933420584335,0.026709602744108038,-0.09101710574084464
861,8.61,0.0033826006243269464,-0.014967118184083568,0.008415430845223695,0.09066278785055054,0.02409698875271858,-0.0860115670430094
862,8.62,0.005024223389634709,-0.01909842594584166,0.009351104689229901,0.0972715470127135,0.02041264745542503,-0.07743696859256136
863,8.63,0.006689525460926486,-0.022720972336307772,0.009459232911556285,0.10191584237834304,0.016008446526716787,-0.06646509797795447
864,8.64,0.008538649267885088,-0.024873344309511013,0.008640147106700077,0.10292291625375677,0.014775993184812847,-0.05225962779625448
865,8.65,0.010181230548425901,-0.026560130061047457,0.007318488419053512,0.1018724856287556,0.015337734931545815,-0.03622497407988918
866,8.66,0.010864640265607323,-0.029129508871193695,0.00575093474341523,0.09943130929643766,0.012240632916320913,-0.02232448199726975
867,8.67,0.010920309340388089,-0.03206206660183279,0.004185183557996705,0.09549790664134368,0.005217706831466251,-0.010713878102102356
868,8.68,0.011617304638382845,-0.03329896653490008,0.0023841497749438507,0.08976731145086178,0.002957826993030047,0.007097832520869173
869,8.69,0.01211404887058319,-0.03403371720104281,0.0009602984067874258,0.08305187700724158,0.003308037512538323,0.028307672836786008
870,8.7,0.010582924508878338,-0.03362688796344317,2.0394880168964156e-05,0.07737307697510297,-0.001836281795382504,0.045521552933762734
871,8.71,0.008852432036728725,-0.033419864123601324,-0.0003777298791881761,0.07224077388683035,-0.009877228617702422,0.06062882724641123
872,8.72,0.007942652938634562,-0.0344531954351111,-0.0003460033764818159,0.06615838851331869,-0.016909059392957948,0.07875109303960527
873,8.73,0.0075535557181665505,-0.03712514734564423,-0.000266114565561369,0.05622769004505096,-0.019853460523033457,0.10908559705197887
874,8.74,0.005889986049220742,-0.035607007254425484,0.0007725011672487811,0.0452503964156978,-0.02501947149851995,0.13203963671934793
875,8.75,0.004128754614953316,-0.03253806825404546,0.001862229285598887,0.03364057848475492,-0.03152814319719964,0.15053319039479784
876,8.76,0.0028439757948719125,-0.028295960912932103,0.002612177326136573,0.020692329932623182,-0.03481187574981811,0.1644461991334223
877,8.77,0.0018737186713670797,-0.024051130182617623,0.0029071601288148488,0.0069375911343904535,-0.03615237574006636,0.17559913592293394
878,8.78,0.0005380085899365865,-0.01920325564101698,0.003180288723891211,-0.007515038498734954,-0.036776537047081934,0.18287724328239624
879,8.79,-0.0006811746958880717,-0.01467727449440551,0.0030092649998256643,-0.022360743116715497,-0.03699723293660692,0.18797291974667832
880,8.8,-0.001385573715259688,-0.009347315181900451,0.0022978114662884418,-0.035329473537236165,-0.035403962001056936,0.1877369257748714
881,8.81,-0.0020241757658897796,-0.0045374914284043825,0.0012139295375873634,-0.04740023108623403,-0.03294286187479992,0.18495017995043525
882,8.82,-0.0027482955781720922,0.00037178605889442995,0.00014865358940918628,-0.056845291129054586,-0.030066551467980956,0.18165080354420832
883,8.83,-0.003676889153690073,0.0049095041386454895,-0.0009945935238373006,-0.0649159001311644,-0.026972894546230426,0.17808308486512436
884,8.84,-0.0042410930751722135,0.010121566619499919,-0.002376024546433945,-0.076150875901755,-0.023421604291111533,0.17284787773053736
885,8.85,-0.005056545747834931,0.015155274716545064,-0.0036444423535119223,-0.08928528194096001,-0.019595616863090616,0.16661175057729255
