,ts,ax,ay,az,wx,wy,wz
0,0.0,-0.004267,0.014663000000000002,0.07418999999999999,-0.008484,0.038238999999999995,0.00795
1,0.01,-0.004626,-0.0175,0.061275,-0.0063479999999999995,0.041428,0.010086
2,0.02,0.020628999999999998,-0.001829,0.017757,-0.005295,0.040359,0.012206999999999999
3,0.03,0.026435000000000004,0.015916999999999997,0.003816000000000003,-0.003159,0.042496,0.010086
4,0.04,0.068583,0.013459,-0.016679,-0.003159,0.041428,0.009018
5,0.05,0.07421900000000001,-0.013203,-0.041134999999999984,0.0032350000000000005,0.038238999999999995,0.00795
6,0.06,0.07079400000000001,0.012844,-0.003321000000000001,0.004303,0.036101999999999995,0.00795
7,0.07,0.06688200000000001,0.045872,-0.022151,0.007492,0.030777,0.00795
8,0.08,0.07386799999999999,0.077044,-2.1000000000000185e-05,0.011748999999999999,0.024384,0.005829
9,0.09,0.054626,0.108374,0.004631000000000001,0.011748999999999999,0.01799,0.004761
10,0.1,0.087037,0.09428500000000001,-0.008305,0.012816999999999999,0.011597,0.006881999999999999
11,0.11,0.099987,0.119027,0.044443,0.016022,0.006271,0.003693
12,0.12,0.081483,0.09689099999999999,0.026757,0.013885,0.003082,0.003693
13,0.13,0.10363800000000001,0.066139,0.064437,0.016022,-0.0011749999999999994,0.003693
14,0.14,0.057587,0.039544,0.064844,0.016022,-0.005447,0.000488
15,0.15,0.036055000000000004,0.033483,0.087612,0.017075,-0.009705,0.001556
16,0.16,0.030574,-0.0024529999999999986,0.048118,0.017075,-0.013962,0.000488
17,0.17,-0.0004310000000000008,-0.042247,0.082858,0.022415,-0.017166,0.001556
18,0.18,0.005248,-0.061893,0.05785499999999999,0.025604000000000002,-0.017166,-0.0005650000000000001
19,0.19,-0.015718,-0.061614,0.034044,0.026672,-0.015030000000000002,0.002625
20,0.2,-0.064361,-0.11511300000000001,-0.032562999999999995,0.027739999999999997,-0.017166,0.003693
21,0.21,-0.072052,-0.088147,-0.063215,0.024536000000000002,-0.015030000000000002,0.002625
22,0.22,-0.07914199999999999,-0.073959,-0.102539,0.020279,-0.009705,0.005829
23,0.23,-0.091696,-0.048637,-0.066401,0.012816999999999999,-0.007568000000000001,0.00795
24,0.24,-0.09714,-0.058702,-0.08340399999999999,0.009628,-0.003311,0.006881999999999999
25,0.25,-0.100418,-0.076824,-0.008882,0.006423999999999999,-0.00012200000000000058,0.009018
26,0.26,-0.082526,-0.038301,0.021417,0.005371,0.000946,0.00795
27,0.27,-0.08595499999999999,-0.038254,0.025259,3.1000000000000205e-05,0.008408,0.00795
28,0.28,-0.07536,-0.048237,0.027438,-0.005295000000000001,0.014801,0.010086
29,0.29,-0.075161,-0.041072000000000004,0.025006,-0.008484,0.019058000000000002,0.012206999999999999
30,0.3,-0.051866999999999996,-0.0436,0.06132600000000001,-0.013809,0.028641000000000003,0.012206999999999999
31,0.31,-0.064233,-0.012501000000000002,0.028092000000000002,-0.019135,0.032913,0.012206999999999999
32,0.32,-0.064976,-0.027431999999999998,0.007186999999999998,-0.019135,0.040359,0.013275
33,0.33,-0.038981,-0.015477,0.012107,-0.019135,0.042496,0.015411000000000001
34,0.34,-0.007156999999999999,0.007619999999999998,0.0371,-0.011687999999999999,0.047820999999999995,0.012206999999999999
35,0.35,0.03729600000000001,0.015518,-0.01051,-0.009552,0.045685,0.013275
36,0.36,0.047830000000000004,0.034924000000000004,-0.0036860000000000018,-0.0063479999999999995,0.041428,0.010086
37,0.37,0.068101,0.019709,-0.039718,-0.00209,0.035033999999999996,0.010086
38,0.38,0.105005,0.054403,0.008496,-0.004227000000000001,0.024384,0.00795
39,0.39,0.077528,0.053515,0.006749999999999999,-0.005295,0.021194,0.003693
40,0.4,0.057221,0.081678,0.031205,-0.00209,0.012665000000000001,0.001556
41,0.41,0.027351,0.057164,0.056273000000000004,0.0010989999999999997,0.012665000000000001,0.000488
42,0.42,-0.01661,0.070153,0.034899,0.003235,0.016922,-0.0005650000000000001
43,0.43,-0.054684,0.065342,0.029107999999999995,0.006423999999999999,0.019058000000000002,-0.001633
44,0.44,-0.065778,0.029758999999999997,0.006440999999999999,0.009628,0.021194,-0.004837
45,0.45,-0.065035,-0.031029,-0.017499,0.009628,0.029708999999999996,-0.0027010000000000003
46,0.46,-0.082521,-0.071952,-0.076614,0.006423999999999999,0.031845,-0.004837
47,0.47,-0.077649,-0.111732,-0.120306,-0.00209,0.033966,-0.004837
48,0.48,-0.06486900000000001,-0.07964600000000001,-0.103749,-0.009552,0.035033999999999996,-0.004837
49,0.49,-0.096189,-0.029490000000000013,-0.063028,-0.015944999999999997,0.033966,-0.001633
50,0.5,-0.088903,-0.021824,-0.033792,-0.020203,0.031845,-0.001633
51,0.51,-0.07584199999999999,0.033181,0.015440999999999996,-0.015944999999999997,0.031845,0.001556
52,0.52,-0.0825,0.051578,-0.020824000000000002,-0.010620000000000001,0.035033999999999996,0.004761
53,0.53,-0.07066900000000001,0.06680599999999999,-0.022206,-0.005295000000000001,0.040359,0.005829
54,0.54,-0.037398,0.063351,-0.042091,-0.004227000000000001,0.048889,0.009018
55,0.55,-0.03,0.033195,-0.067999,-0.0010220000000000001,0.057404,0.010086
56,0.56,0.011414,-0.001169,-0.08974299999999999,3.0999999999999995e-05,0.060608,0.012206999999999999
57,0.57,0.026226999999999997,-0.041367,-0.11474300000000001,3.0999999999999995e-05,0.058472,0.011154
58,0.58,0.066711,-0.040644,-0.083196,-0.0063479999999999995,0.055283000000000006,0.010086
59,0.59,0.056917999999999996,-0.008076,-0.117347,-0.008484,0.045685,0.012206999999999999
60,0.6,0.037629,-0.06915,-0.07334199999999999,-0.008484,0.040359,0.010086
61,0.61,0.072679,-0.039639,-0.088586,-0.009552,0.036101999999999995,0.013275
62,0.62,0.049288,0.03623,-0.10772899999999999,-0.008484,0.033966,0.013275
63,0.63,0.049282,0.080573,-0.091392,-0.004227000000000001,0.031845,0.016479
64,0.64,0.063473,0.096492,-0.122618,-0.003159,0.029708999999999996,0.014343
65,0.65,0.055327999999999995,0.101978,-0.15557,-0.003159,0.030777,0.012206999999999999
66,0.66,0.062439999999999996,0.080205,-0.165792,-0.005295,0.025452000000000002,0.010086
67,0.67,0.020939,0.078205,-0.156342,-0.010620000000000001,0.024384,0.005829
68,0.68,0.010968,0.032734,-0.08325,-0.012740999999999999,0.027587999999999998,0.001556
69,0.69,-0.046022,0.011012999999999998,-0.058763,-0.018066,0.033966,-0.0037689999999999998
70,0.7,-0.00231,0.012237999999999999,-0.01135,-0.017013999999999998,0.041428,-0.00589
71,0.71,-0.012093000000000001,0.031711,0.023084999999999998,-0.013809,0.046752999999999996,-0.006958
72,0.72,-0.005183000000000004,0.08347,0.013912,-0.008484,0.039307,-0.006958
73,0.73,0.029862,0.11035299999999999,-0.005054,-0.005295,0.032913,-0.0027010000000000003
74,0.74,0.058383000000000004,0.12746400000000002,0.056035000000000015,-0.005295,0.022262999999999998,-0.0027010000000000003
75,0.75,0.08530499999999999,0.095949,0.080303,-0.003159,0.014801,-0.00589
76,0.76,0.068877,0.023457,0.1748,0.003235,0.01799,-0.009094
77,0.77,0.051864999999999994,-0.002983,0.20925100000000002,0.017075,0.027587999999999998,-0.010162000000000001
78,0.78,0.03808,-0.071521,0.173401,0.021347,0.038238999999999995,-0.009094
79,0.79,0.006884,-0.097811,0.168657,0.023468,0.046752999999999996,-0.009094
80,0.8,-0.047617,-0.14034100000000002,0.099522,0.019211000000000002,0.053146000000000006,-0.009094
81,0.81,-0.076334,-0.11386600000000001,0.038656,0.014953999999999999,0.058472,-0.009094
82,0.82,-0.12161,-0.13500399999999999,0.019887,0.009628,0.063797,-0.01123
83,0.83,-0.142475,-0.095957,-0.072494,0.006423999999999999,0.069122,-0.012283
84,0.84,-0.11218499999999999,-0.076651,-0.07237400000000001,-0.0010220000000000001,0.075516,-0.017609
85,0.85,-0.083951,-0.053426,-0.142532,-0.005295,0.077652,-0.017609
86,0.86,-0.030249,-0.022504,-0.08696799999999999,-0.009552,0.079773,-0.018677000000000003
87,0.87,0.01295,0.01614600000000001,-0.096032,-0.013809,0.07019,-0.016556
88,0.88,0.087947,0.030477999999999998,-0.064032,-0.019135,0.058472,-0.013350999999999998
89,0.89,0.119387,0.045512000000000004,-0.01898200000000001,-0.017013999999999998,0.046752999999999996,-0.01123
90,0.9,0.17861300000000002,0.074044,0.041248000000000014,-0.019135,0.039307,-0.009094
91,0.91,0.157379,0.083058,0.04605,-0.017013999999999998,0.038238999999999995,-0.008026
92,0.92,0.16203800000000002,0.064701,0.10531300000000002,-0.015944999999999997,0.039307,-0.012283
93,0.93,0.136678,0.04075,0.091545,-0.011687999999999999,0.045685,-0.012283
94,0.94,0.099391,0.022026,0.117976,-0.010620000000000001,0.053146000000000006,-0.018677000000000003
95,0.95,0.085966,0.041902999999999996,0.074726,-0.008484,0.062729,-0.021881
96,0.96,0.084067,0.00905,0.049466,-0.005295,0.067001,-0.026137999999999998
97,0.97,0.100844,-0.038176,0.03692100000000001,-0.005295,0.06805399999999999,-0.029327
98,0.98,0.09816699999999999,-0.0287,-0.039462,-0.0063479999999999995,0.065933,-0.031464
99,0.99,0.092964,-0.044088999999999996,-0.015811000000000002,-0.005295,0.058472,-0.028275
100,1.0,0.073175,-0.036101,-0.053263,-0.008484,0.048889,-0.02507
101,1.01,0.099797,-0.022809,-0.037791000000000005,-0.008484,0.036101999999999995,-0.019745
102,1.02,0.074324,-0.043058,-0.039724,-0.010620000000000001,0.025452000000000002,-0.014419999999999999
103,1.03,0.085599,-0.020349000000000003,-0.00073,-0.011687999999999999,0.012665000000000001,-0.009094
104,1.04,0.074978,0.013864,0.011826999999999999,-0.012740999999999999,0.005219,-0.00589
105,1.05,0.081135,0.042801999999999986,0.06195,-0.009552,-0.005447,-0.0037689999999999998
106,1.06,0.11094100000000001,0.068245,0.056384000000000004,-0.010620000000000001,-0.015030000000000002,0.0004879999999999997
107,1.07,0.142421,0.073675,0.075162,-0.008484,-0.025681,0.003693
108,1.08,0.141047,0.066117,0.12756800000000001,-0.0063479999999999995,-0.036331,0.003693
109,1.09,0.11289500000000001,0.028284000000000007,0.100986,-0.003159,-0.04805,0.003693
110,1.1,0.086164,0.016545000000000004,0.132176,-0.0010220000000000001,-0.058700999999999996,0.003693
111,1.11,0.066695,0.0032569999999999995,0.105868,3.0999999999999995e-05,-0.065094,0.006881999999999999
112,1.12,0.063374,-0.018602,0.095648,0.001099,-0.068298,0.003693
113,1.13,0.077997,-0.04068,0.093638,3.1000000000000205e-05,-0.068298,0.001556
114,1.14,0.026844,-0.064148,0.029222,-0.00209,-0.06723,0.000488
115,1.15,0.040167,-0.077958,0.014643999999999999,-0.004227000000000001,-0.068298,-0.001633
116,1.16,-0.004050999999999999,-0.042963,-0.011909000000000001,-0.0063479999999999995,-0.062973,-0.0027010000000000003
117,1.17,0.019101,-0.040247000000000005,-0.019069,-0.008484,-0.062973,-0.006958
118,1.18,-0.007584999999999999,-0.023336000000000003,-0.072913,-0.009552,-0.060837,-0.010162000000000001
119,1.19,-0.019531,-0.025848000000000003,-0.064577,-0.008484,-0.061904999999999995,-0.010162000000000001
120,1.2,-0.060159000000000004,0.011633,-0.048208,-0.008484,-0.064026,-0.01123
121,1.21,-0.075017,0.039457,-0.088555,-0.008484,-0.06723,-0.01123
122,1.22,-0.099356,0.030249,-0.051628999999999994,-0.010620000000000001,-0.066162,-0.01123
123,1.23,-0.13915,0.030957,-0.034426,-0.010620000000000001,-0.066162,-0.010162000000000001
124,1.24,-0.13318,0.061405999999999995,0.012241000000000002,-0.013809,-0.059769,-0.009094
125,1.25,-0.10350799999999999,0.026317,0.069094,-0.014877000000000001,-0.052307000000000006,-0.006958
126,1.26,-0.120621,0.025951,0.049181,-0.012740999999999999,-0.044861,-0.00589
127,1.27,-0.120126,0.027742000000000003,0.087297,-0.009552,-0.038467,-0.006958
128,1.28,-0.11452799999999999,0.035799,0.020789,-0.005295,-0.033142000000000005,-0.00589
129,1.29,-0.104831,0.028227,0.059458000000000004,-0.004227000000000001,-0.026749000000000002,-0.00589
130,1.3,-0.088161,0.015403,0.002178,-0.00209,-0.021422999999999998,-0.0037689999999999998
131,1.31,-0.079524,-0.010369,-0.005984000000000001,0.003235,-0.017166,-0.001633
132,1.32,-0.12553,-0.005488,-0.035552,0.005371,-0.010773,-0.0005650000000000001
133,1.33,-0.11721400000000001,-0.045654,-0.052631,0.007492,-0.005447,0.000488
134,1.34,-0.087758,-0.008966,-0.055060000000000005,0.006423999999999999,-0.005447,0.001556
135,1.35,-0.01950300000000001,-0.029001999999999997,-0.100088,0.006423999999999999,-0.003311,0.002625
136,1.36,-0.062455,0.0022109999999999977,-0.074196,0.004303,-0.001175,0.002625
137,1.37,-0.05356,0.007613,-0.059723000000000005,0.003235,-0.001175,0.004761
138,1.38,-0.02925,-0.0077389999999999985,-0.013592999999999994,-0.0010220000000000003,0.002014,0.001556
139,1.39,-0.046256,0.0012770000000000006,0.005024,0.001099,-0.00012199999999999993,0.002625
140,1.4,-0.044638,0.014731000000000001,0.021762,0.003235,-0.00012200000000000017,0.002625
141,1.41,-0.03108,0.05351,0.016687999999999998,0.001099,-0.001175,0.003693
142,1.42,-0.017369,0.018213999999999998,0.013857,0.005371,-0.0022429999999999998,0.002625
143,1.43,0.028758,0.032662000000000004,0.009315,0.006423999999999999,-0.0065,0.001556
144,1.44,0.043172,-0.0017150000000000012,0.014166,0.00856,-0.007568000000000001,0.003693
145,1.45,0.050949,0.03331,-0.030146,0.009628,-0.011840999999999999,0.003693
146,1.46,0.049172,-0.015841000000000004,0.013923000000000005,0.010695999999999999,-0.018219,0.004761
147,1.47,0.040735,-0.012597999999999998,-0.016753999999999998,0.009628,-0.019287000000000002,0.001556
148,1.48,-0.006074000000000003,-0.030995000000000005,0.05137100000000001,0.011748999999999999,-0.022491,0.001556
149,1.49,0.019408,-0.008269,-0.014065,0.010695999999999999,-0.025681,0.002625
150,1.5,0.026392000000000002,-0.017075,-0.012381999999999999,0.010695999999999999,-0.028885,-0.0005650000000000001
151,1.51,-0.006194,-0.012836999999999998,0.0016139999999999991,0.00856,-0.029938,-0.001633
152,1.52,-0.020485,-0.007862000000000001,0.018678999999999998,0.007492,-0.032074,-0.0027010000000000003
153,1.53,-0.052017999999999995,-0.004294,0.05198200000000001,0.006423999999999999,-0.033142000000000005,-0.0027010000000000003
154,1.54,-0.043019,-0.012562,0.041676,0.00856,-0.028885,-0.0037689999999999998
155,1.55,-0.06528300000000001,0.002316,0.053144000000000004,0.010695999999999999,-0.024612000000000002,-0.00589
156,1.56,-0.0728,-0.019885,0.034201,0.010695999999999999,-0.022491,-0.006958
157,1.57,-0.058681,-0.036170999999999995,0.010388,0.009628,-0.019287000000000002,-0.00589
158,1.58,-0.069012,-0.027339,-0.037701,0.006423999999999999,-0.017166,-0.00589
159,1.59,-0.08062000000000001,-0.044275,-0.0009489999999999985,0.005371,-0.016097999999999998,-0.004837
160,1.6,-0.063932,0.011933999999999998,0.031861,0.004303,-0.016097999999999998,-0.00589
161,1.61,-0.048292,-0.006018,0.03451,0.002167,-0.012894,-0.001633
162,1.62,-0.029479,0.01055,0.064881,0.003235,-0.009705,-0.0037689999999999998
163,1.63,-0.032289,0.0019209999999999989,0.033541,0.007492,-0.005447,-0.0027010000000000003
164,1.64,-0.0007569999999999999,-0.014211999999999997,0.015219,0.004303,-0.00012199999999999973,-0.00589
165,1.65,0.012289,-0.053198,0.026414,0.002167,0.002014,-0.006958
166,1.66,-0.008574,-0.025318,-0.025774000000000002,3.1000000000000205e-05,0.005219,-0.004837
167,1.67,-0.011036999999999998,-0.03431,-0.047068,-0.0010219999999999997,0.007339,-0.006958
168,1.68,-0.068685,-0.0005439999999999993,-0.062482,-0.00209,0.007339,-0.0037689999999999998
169,1.69,-0.043321,0.009674000000000002,-0.037420999999999996,-0.0010220000000000001,0.008408,-0.004837
170,1.7,-0.039837,-0.010651,-0.04356,-0.004227000000000001,0.007339,-0.0027010000000000003
171,1.71,-0.029532,0.035514,-0.039532,-0.003159,0.007339,-0.0037689999999999998
172,1.72,0.018574,0.04608,-0.031296,-0.003159,0.009476,-0.0027010000000000003
173,1.73,0.040062,0.020011,-0.05279299999999999,-0.00209,0.008408,-0.0037689999999999998
174,1.74,0.046883999999999995,0.028344,-0.069276,3.0999999999999995e-05,0.006271,-0.00589
175,1.75,0.03652,0.018567,-0.068664,-0.0010220000000000001,0.00415,-0.0027010000000000003
176,1.76,0.026410000000000003,0.046525,-0.04688,-0.00209,-0.0022429999999999998,-0.004837
177,1.77,0.031142000000000003,0.041664,-0.004906999999999997,-0.0010220000000000001,-0.001175,-0.00589
178,1.78,0.035372,0.018037,0.022396,3.0999999999999995e-05,-0.0022429999999999998,-0.00589
179,1.79,-0.017234999999999997,0.005291999999999997,0.030858,3.1e-05,-0.001175,-0.006958
180,1.8,0.01711,0.002277,0.032608,0.002167,-0.003311,-0.008026
181,1.81,0.019722999999999997,0.016231,0.011151000000000001,0.004303,-0.004379,-0.004837
182,1.82,0.015663999999999997,0.003741000000000001,-0.002942,0.005371,-0.0065,-0.00589
183,1.83,0.025495,-0.002416999999999999,-0.031136,0.005371,-0.008636,-0.008026
184,1.84,0.043602999999999996,-0.007719,-0.06205599999999999,0.00856,-0.009705,-0.009094
185,1.85,0.016301,-0.014597,-0.124214,0.006423999999999999,-0.009705,-0.009094
186,1.86,-0.013002000000000001,-0.0007829999999999997,-0.12020499999999999,0.004303,-0.010773,-0.01123
187,1.87,-0.012515,0.004031,-0.10016699999999999,0.004303,-0.0054470000000000005,-0.008026
188,1.88,-0.025539,-0.009505,-0.053952,0.003235,-0.007568000000000001,-0.012283
189,1.89,-0.016673,0.026035000000000003,-0.036068,0.003235,-0.0065,-0.009094
190,1.9,-0.022428999999999998,0.029115,-0.025169999999999998,0.003235,-0.007568000000000001,-0.010162000000000001
191,1.91,0.019036,0.010825,0.0015109999999999985,0.0010990000000000002,-0.004379,-0.009094
192,1.92,-0.014331,0.024075,0.037056,0.002167,-0.005447,-0.008026
193,1.93,-0.0004969999999999996,0.047985,0.053449,0.004303,-0.004379,-0.006958
194,1.94,-0.011733,0.031842,0.042537,0.003235,-0.005447,-0.00589
195,1.95,-0.03038,0.011926,0.041902999999999996,0.00856,-0.0022429999999999998,-0.006958
196,1.96,-0.037512000000000004,0.006188999999999997,0.017959,0.009628,-0.001175,-0.004837
197,1.97,-0.036278,0.000672,-0.008854,0.011748999999999999,0.002014,-0.004837
198,1.98,-0.0034100000000000003,-0.0064930000000000005,-0.019454,0.013885,0.003082,-0.0037689999999999998
199,1.99,-0.008362,-0.012866,-0.04721,0.012816999999999999,0.005219,-0.0027010000000000003
200,2.0,-0.006901000000000001,-0.033362,-0.066771,0.010695999999999999,0.009476,-0.0005650000000000001
201,2.01,0.024977000000000003,-0.02046,-0.044993,0.006423999999999999,0.010544,-0.0027010000000000003
202,2.02,0.021031,-0.036119,-0.029679,0.003235,0.009476,-0.0027010000000000003
203,2.03,0.008053999999999999,-0.014947,-0.04049,0.001099,0.010544,-0.001633
204,2.04,0.012053,-0.034809,-0.013987999999999999,-0.0010220000000000001,0.010544,0.000488
205,2.05,0.010867,0.011825,0.032529,0.0010989999999999997,0.010544,-0.001633
206,2.06,-0.022808000000000002,0.011729,-0.009581999999999999,-0.005295,0.011597,-0.001633
207,2.07,0.019252000000000002,0.006152,-0.035062,-0.0010220000000000001,0.012665000000000001,-0.0005650000000000001
208,2.08,-0.028761,-0.0005430000000000001,0.019655000000000002,3.1e-05,0.011597,-0.0005650000000000001
209,2.09,0.028234,0.00489,0.011115,3.1e-05,0.010544,-0.001633
210,2.1,0.039307999999999996,-0.033023000000000004,-0.02439699999999999,0.004303,0.012665000000000001,-0.0027010000000000003
211,2.11,0.055736,-0.010543999999999998,-0.0041990000000000005,0.005371,0.009476,-0.0027010000000000003
212,2.12,0.035607,-0.013880000000000002,0.031715,0.002167,0.007339,-0.0027010000000000003
213,2.13,0.050189,-0.008183,0.025279,-0.0010219999999999997,0.002014,-0.0027010000000000003
214,2.14,0.02723,-0.0050490000000000005,0.051441999999999995,-0.0010220000000000001,-0.00012199999999999993,-0.0037689999999999998
215,2.15,0.014528999999999999,0.010553000000000002,0.040306,-0.003159,-0.0011749999999999994,-0.0027010000000000003
216,2.16,0.014413999999999998,0.028193,0.044475,-0.00209,-0.001175,-0.0005650000000000001
217,2.17,-0.013791,0.028907,0.054623000000000005,-0.003159,-0.0022429999999999998,-0.0027010000000000003
218,2.18,0.008999999999999998,0.049733,0.07586799999999999,-0.0010220000000000001,-0.00012199999999999993,-0.0005650000000000001
219,2.19,-0.010345,0.019880000000000002,0.026151999999999998,3.1e-05,0.000946,-0.0037689999999999998
220,2.2,-0.020999,0.0077209999999999996,-0.012459999999999999,0.002167,0.002014,-0.0027010000000000003
221,2.21,-0.00017200000000000006,-0.014204,0.00021700000000000018,0.001099,0.003082,-0.004837
222,2.22,-0.014609999999999996,-0.040690999999999984,-0.05369500000000001,3.1e-05,0.00415,-0.0037689999999999998
223,2.23,-0.0052250000000000005,-0.067871,-0.041741,-0.0010220000000000001,0.007339,-0.006958
224,2.24,-0.012842,-0.032224,-0.020454,-0.003159,0.006271,-0.004837
225,2.25,-0.003936000000000002,-0.036435,-0.010418,-0.004227000000000001,0.008408,-0.0005650000000000001
226,2.26,-0.004461,-0.025792000000000002,0.008716,-0.0063479999999999995,0.005219,-0.001633
227,2.27,0.004493,0.003034,-0.0006129999999999991,-0.0063479999999999995,0.003082,0.000488
228,2.28,-0.018115,0.010021,0.008389,-0.011687999999999999,0.002014,0.001556
229,2.29,0.009578,0.015136000000000002,0.034473000000000004,-0.009552,0.0009460000000000001,-0.0027010000000000003
230,2.3,0.004922999999999999,0.040988,0.027188999999999998,-0.007416,0.0009460000000000001,0.000488
231,2.31,-0.00448,0.05653300000000001,0.017528,-0.008484,0.0009460000000000001,-0.0027010000000000003
232,2.32,0.009499999999999998,0.000730999999999999,0.067871,-0.005295,0.00415,-0.004837
233,2.33,0.038248000000000004,-0.009355,0.04269,-0.003159,0.008408,-0.004837
234,2.34,0.028308999999999997,-0.025058,0.041872,-0.0010220000000000001,0.008408,-0.006958
235,2.35,0.045757,-0.024819,0.026253,3.0999999999999995e-05,0.007339,-0.00589
236,2.36,-0.0020940000000000004,-0.030942,0.016987000000000002,3.0999999999999995e-05,0.007339,-0.004837
237,2.37,0.014445,-0.030973,-0.002591,3.1e-05,0.007339,-0.00589
238,2.38,0.024669,-0.040362,-0.017018000000000002,-0.003159,0.00415,-0.0037689999999999998
239,2.39,0.043150000000000015,-0.010736,-0.018575,-0.0063479999999999995,0.005219,-0.0037689999999999998
240,2.4,0.00020999999999999838,0.007273999999999999,-0.002288000000000002,-0.005295,0.002014,-0.0037689999999999998
241,2.41,0.030253,0.030419,-0.020974,-0.0063479999999999995,0.0009460000000000001,-0.0027010000000000003
242,2.42,0.008180999999999999,0.013430000000000001,-0.034042,-0.008484,-0.000122,-0.0027010000000000003
243,2.43,0.0058200000000000005,0.021093,-0.0061649999999999995,-0.011687999999999999,-0.0065,-0.0037689999999999998
244,2.44,0.021572,0.027262,-0.024538000000000004,-0.011687999999999999,-0.0065,-0.0027010000000000003
245,2.45,0.024633000000000002,-0.0002000000000000005,-0.013436000000000002,-0.012740999999999999,-0.011840999999999999,-0.00589
246,2.46,-0.02814,0.001698,-0.004959999999999999,-0.010620000000000001,-0.011840999999999999,-0.00589
247,2.47,0.011638000000000004,-0.017064,0.001479999999999999,-0.011687999999999999,-0.012894,-0.0037689999999999998
248,2.48,0.007905,-0.045489,-0.012867000000000005,-0.010620000000000001,-0.010773,-0.006958
249,2.49,-0.013225,-0.051227999999999996,0.0027140000000000003,-0.010620000000000001,-0.012894,-0.00589
250,2.5,-0.007708,-0.011173000000000002,-0.012791,-0.014877000000000001,-0.009705,-0.004837
251,2.51,-0.013072000000000002,-0.018488,0.016130000000000002,-0.015944999999999997,-0.008636,-0.0037689999999999998
252,2.52,-0.007578999999999998,0.01809,0.013838999999999999,-0.014877000000000001,-0.009705,-0.0027010000000000003
253,2.53,-0.004855,0.008367,0.08029800000000001,-0.012740999999999999,-0.009705,-0.0027010000000000003
254,2.54,0.019228,0.076408,0.128921,-0.0063479999999999995,-0.007568000000000001,-0.0037689999999999998
255,2.55,0.048628,0.060592999999999994,0.094039,-0.003159,-0.004379,-0.0037689999999999998
256,2.56,0.023739,0.024697999999999998,0.038541000000000006,-0.0010220000000000001,0.003082,-0.004837
257,2.57,-0.015548,0.024891999999999997,0.054399,0.002167,0.007339,-0.006958
258,2.58,-0.014271000000000002,0.003311000000000001,0.0009419999999999984,3.1e-05,0.006271,-0.00589
259,2.59,-0.040085,0.016996,-0.0013999999999999985,0.002167,0.008408,-0.004837
260,2.6,-0.024839,0.017266,-0.02361,0.0010990000000000002,0.006271,-0.001633
261,2.61,0.018651000000000004,-0.0029410000000000013,-0.006958000000000001,-0.0010220000000000001,0.007339,-0.0037689999999999998
262,2.62,0.030905000000000002,0.039595,0.031329,0.003235,0.009476,0.0004880000000000002
263,2.63,0.012599,-0.010340000000000002,0.026302999999999997,0.006423999999999999,0.012665000000000001,-0.001633
264,2.64,0.008965,0.003566,0.0024600000000000004,0.009628,0.013733,0.002625
265,2.65,-0.013634,0.002024999999999999,-0.05039,0.009628,0.016922,0.003693
266,2.66,0.019885,-0.00981,-0.076173,0.006423999999999999,0.011597,0.00795
267,2.67,5.1000000000000704e-05,-0.020329,-0.078543,0.005371,0.006271,0.009018
268,2.68,0.019025999999999998,-0.009405,-0.073388,0.0010990000000000002,-0.0022429999999999998,0.011154
269,2.69,0.009165999999999999,-0.022983,-0.070089,-0.0010220000000000001,-0.0065,0.012206999999999999
270,2.7,0.007599,-0.046249,-0.041622,-0.005295,-0.007568000000000001,0.012206999999999999
271,2.71,0.021105000000000002,-0.009346,0.0052179999999999995,-0.005295,-0.008636,0.012206999999999999
272,2.72,0.027076999999999997,0.003268,0.037627999999999995,-0.005295,-0.008636,0.011154
273,2.73,0.011362999999999998,-0.011637000000000002,0.055161,-0.003159,-0.004379,0.009018
274,2.74,0.032602,0.007816,0.04635,3.1000000000000205e-05,-0.0011750000000000005,0.00795
275,2.75,0.041628,0.015934,0.023122999999999998,0.001099,0.0030820000000000005,0.006881999999999999
276,2.76,0.021505,-0.051687000000000004,-0.021557,-0.0010220000000000001,0.005219,0.005829
277,2.77,0.033788,-0.006398000000000001,-0.06572599999999999,-0.00209,0.008408,0.004761
278,2.78,-0.017991,-0.012297,-0.029559,-0.005295000000000001,0.007339,0.003693
279,2.79,-0.01072,-0.009009999999999999,-0.017491,-0.004227000000000001,0.005219,0.001556
280,2.8,-0.0015670000000000007,0.022117000000000005,-0.027452999999999998,-0.00209,0.003082,0.000488
281,2.81,-0.011474,0.018216999999999997,0.020183,-0.0010220000000000001,-0.004379,-0.001633
282,2.82,-0.0013490000000000006,0.032179,0.0033049999999999998,3.0999999999999995e-05,-0.004379,-0.0016329999999999995
283,2.83,0.037748000000000004,0.027067,-0.004829,0.002167,-0.007568000000000001,-0.001633
284,2.84,0.016336999999999997,0.006495999999999999,0.0008389999999999995,0.002167,-0.013962,-0.001633
285,2.85,-0.0012349999999999965,-0.004011000000000001,0.008027,3.1000000000000205e-05,-0.015030000000000002,-0.001633
286,2.86,-0.001835,-0.003964,-0.0003070000000000017,-0.0010220000000000001,-0.017166,-0.001633
287,2.87,-0.023019,-0.006233,-0.046327,-0.0010220000000000001,-0.018219,-0.0005650000000000001
288,2.88,-0.015405000000000004,-0.025653,-0.074903,-0.003159,-0.018219,-0.0027010000000000003
289,2.89,-0.024809,-0.0009560000000000004,-0.064778,-0.005295,-0.017166,-0.004837
290,2.9,-0.022602,-0.026300999999999998,-0.057926,-0.007416,-0.015030000000000002,-0.0027010000000000003
291,2.91,-0.035852999999999996,-0.012889,-0.05229400000000001,-0.0063479999999999995,-0.010773,-0.0037689999999999998
292,2.92,0.01311,-0.005575000000000001,-0.009215,-0.011687999999999999,-0.0065,-0.00589
293,2.93,0.036685,-0.005886,-0.016615999999999995,-0.013809,-0.0022429999999999998,-0.006958
294,2.94,0.006744,0.006104,0.030601,-0.014877000000000001,-0.001175,-0.008026
295,2.95,-0.009187,0.015036,-0.0011289999999999998,-0.012740999999999999,-0.001175,-0.009094
296,2.96,0.018067,-0.003432000000000001,-0.019194000000000003,-0.012740999999999999,-0.003311,-0.010162000000000001
297,2.97,-0.023309,0.039314,0.032326,-0.014877000000000001,-0.0065,-0.009094
298,2.98,-0.030358999999999997,0.008831,0.018644,-0.012740999999999999,-0.007568000000000001,-0.008026
299,2.99,-0.039035,0.032343000000000004,0.024959000000000002,-0.010620000000000001,-0.012894,-0.00589
300,3.0,-0.046354,-0.0036209999999999992,-0.008532999999999999,-0.003159,-0.010773,-0.004837
301,3.01,-0.056721,0.016535,-0.020516,-0.0010220000000000001,-0.013962,-0.0037689999999999998
302,3.02,-0.036804,-0.010429000000000004,-0.007589,0.002167,-0.011840999999999999,-0.001633
303,3.03,-0.029867,-0.007512999999999999,-0.048589999999999994,0.003235,-0.015030000000000002,-0.001633
304,3.04,-0.014994,-0.010493,-0.048764999999999996,0.002167,-0.013962,-0.0027010000000000003
305,3.05,-0.010822000000000002,-0.014424000000000001,-0.059717,3.0999999999999995e-05,-0.015030000000000002,-0.001633
306,3.06,-0.011874,-0.00040099999999999863,-0.037564,-0.0010220000000000001,-0.013962,-0.001633
307,3.07,0.004823000000000001,-0.01573,-0.072161,-0.003159,-0.012894,-0.0027010000000000003
308,3.08,0.013834,-0.008839,-0.035894999999999996,-0.003159,-0.010773,-0.0027010000000000003
309,3.09,0.010757,0.023854,-0.020406,-0.003159,-0.008636,-0.001633
310,3.1,-0.011168999999999998,0.0059700000000000005,0.004906999999999999,-0.005295,-0.007568000000000001,-0.0027010000000000003
311,3.11,-0.006747,0.010645,-0.016796000000000002,-0.004227000000000001,-0.0065,-0.001633
312,3.12,0.005392,-0.0008750000000000008,0.016672,-0.005295,-0.003311,-0.0027010000000000003
313,3.13,-0.007997,-0.0068379999999999995,-0.009836,-0.00209,-0.004379,-0.0037689999999999998
314,3.14,-0.019385,-0.005451,-0.017134,-0.003159,-0.0065,-0.0037689999999999998
315,3.15,0.0012520000000000005,-0.008865000000000001,-0.014893,-0.003159,-0.008636,-0.0037689999999999998
316,3.16,-0.009678,-0.016850999999999998,0.017932,-0.004227000000000001,-0.0065,-0.004837
317,3.17,0.003204999999999996,0.010199,-0.019441,-0.005295,-0.005447,-0.0027010000000000003
318,3.18,-0.0037409999999999995,-0.028898000000000004,0.016846,-0.0063479999999999995,-0.0065,-0.001633
319,3.19,-0.036032,-0.007741,-0.007506999999999998,-0.004227000000000001,-0.004379,-0.0005650000000000001
320,3.2,-0.006267,-0.005082,-0.040638,-0.0063479999999999995,-0.005447,-0.0027010000000000003
321,3.21,-0.020013,0.019384000000000002,-0.0015779999999999993,-0.0063479999999999995,-0.0011750000000000005,0.001556
322,3.22,0.01554199999999999,0.006197,-0.011939,-0.009552,-0.00012200000000000017,-0.0005650000000000001
323,3.23,0.0071670000000000015,0.006703000000000001,0.004132000000000002,-0.010620000000000001,-0.00012199999999999993,-0.003769
324,3.24,0.009471999999999998,0.009623999999999999,0.031905,-0.010620000000000001,0.005219,-0.0005650000000000001
325,3.25,0.0038840000000000003,0.005186999999999997,0.029161000000000003,-0.010620000000000001,0.007339,-0.0037689999999999998
326,3.26,0.023593,-0.056761,-0.012585,-0.010620000000000001,0.009476,-0.0027010000000000003
327,3.27,-0.0065619999999999975,-0.010860000000000002,-0.071451,-0.008484,0.006271,-0.0037689999999999998
328,3.28,-0.041095,-0.041793000000000004,-0.007505999999999999,-0.012740999999999999,0.00415,-0.0027010000000000003
329,3.29,0.002711999999999996,-0.001962000000000002,-0.0022780000000000022,-0.010620000000000001,0.002014,-0.004837
330,3.3,-0.008611,-0.023847,0.01062500000000001,-0.010620000000000001,0.002014,-0.0037689999999999998
331,3.31,-0.034931,-0.018703,0.036759,-0.009552,-0.000122,-0.0037689999999999998
332,3.32,0.007354000000000003,-0.037404,0.054578000000000015,-0.0063479999999999995,0.000946,-0.001633
333,3.33,-0.024451,-0.019938000000000004,0.054045,-0.00209,0.00415,-0.0027010000000000003
334,3.34,-0.034914,-0.011887,-0.013208,-0.003159,0.003082,-0.0037689999999999998
335,3.35,-0.021734,-0.027555,-0.020896,-0.007416,0.003082,-0.0005650000000000001
336,3.36,-0.009668,0.011826999999999999,-0.0015409999999999998,-0.011687999999999999,0.002014,0.001556
337,3.37,-0.005732,0.007976999999999998,-0.01401,-0.013809,0.00415,-0.0027010000000000003
338,3.38,-0.007589000000000002,0.048327999999999996,0.041883,-0.011687999999999999,0.006271,-0.0027010000000000003
339,3.39,0.022348,0.03161,0.050386,-0.007416,0.012665000000000001,-0.0027010000000000003
340,3.4,0.044620000000000014,0.05128200000000001,0.016484,-0.004227000000000001,0.020125999999999998,-0.0027010000000000003
341,3.41,0.008931999999999999,-0.016208,-0.031281,-0.00209,0.023315,-0.001633
342,3.42,0.005678,-0.035272000000000005,-0.061636,-0.0010220000000000001,0.019058000000000002,-0.001633
343,3.43,0.014487000000000003,-0.032792,-0.06010599999999999,-0.00209,0.013733,-0.004837
344,3.44,-0.01784,-0.048188999999999996,-0.050069,-0.003159,0.006271,-0.001633
345,3.45,-0.041858,-0.022489,-0.076784,-0.00209,0.00415,0.0004880000000000002
346,3.46,0.001424,-0.037953,-0.040402999999999994,-0.004227000000000001,0.005219,0.000488
347,3.47,0.008739,-0.0065710000000000005,-0.059004999999999995,-0.005295,0.002014,-0.001633
348,3.48,0.011826,-0.0033519999999999986,-0.0378,-0.005295,0.00415,-0.001633
349,3.49,0.032425,0.017347,-0.032639999999999995,-0.0063479999999999995,0.003082,-0.0027010000000000003
350,3.5,0.034629,0.066294,-0.023518999999999998,-0.009552,0.00415,-0.0037689999999999998
351,3.51,0.025065999999999998,0.030864000000000006,-0.003574000000000001,-0.0063479999999999995,0.005219,-0.0037689999999999998
352,3.52,0.044581,0.028095,0.046056,-0.005295,0.005219,-0.004837
353,3.53,0.028464,0.037813,0.051479,-0.005295,0.006271,-0.0027010000000000003
354,3.54,0.018438999999999997,0.047949,0.065169,-0.003159,0.00415,-0.0027010000000000003
355,3.55,-0.004020999999999999,0.018474,0.07659400000000001,-0.005295,0.008408,-0.0027010000000000003
356,3.56,-0.010361000000000002,-0.016125999999999998,0.079422,-0.007416,0.009476,-0.0005650000000000001
357,3.57,0.032859,0.005480999999999999,0.090044,-0.005295,0.010544,-0.0037689999999999998
358,3.58,0.011890000000000001,-0.017012,0.093932,-0.004227000000000001,0.011597,-0.00589
359,3.59,0.037096,-0.0065410000000000025,0.05022,-0.0010220000000000001,0.011597,-0.0027010000000000003
360,3.6,-0.0020720000000000014,-0.031027,0.012741000000000002,3.1e-05,0.012665000000000001,-0.0027010000000000003
361,3.61,-0.030187000000000002,-0.036186,-0.008404,-0.003159,0.011597,-0.0027010000000000003
362,3.62,-0.020571000000000002,-0.043246,-0.064347,-0.0063479999999999995,0.007339,-0.0027010000000000003
363,3.63,-0.024159,-0.038967,-0.048307,-0.008484,0.006271,0.001556
364,3.64,0.018803000000000004,-0.043219,-0.031125,-0.007416,0.00415,0.0004880000000000002
365,3.65,-0.017298000000000004,-0.052589,-0.004388,-0.010620000000000001,0.003082,0.003693
366,3.66,0.016523,-0.013577,-0.046426999999999996,-0.007416,0.002014,0.002625
367,3.67,0.022559,-0.013726000000000002,-0.042258,-0.008484,0.002014,0.001556
368,3.68,0.026628,-0.015341000000000004,-0.009475,-0.010620000000000001,-0.000122,-0.0005650000000000001
369,3.69,0.046107,-0.022242999999999995,-0.06417,-0.012740999999999999,-0.001175,0.001556
370,3.7,0.037091000000000006,0.011923,0.015591999999999996,-0.015944999999999997,-0.00012199999999999993,-0.0005650000000000001
371,3.71,-0.015059999999999997,0.026207999999999995,0.013575999999999998,-0.020203,0.0020139999999999997,-0.0005650000000000001
372,3.72,-0.005727,-0.002827,0.057590999999999996,-0.021271,0.0009460000000000002,-0.001633
373,3.73,-0.010476000000000001,0.046415,0.049825,-0.019135,0.006271,-0.0027010000000000003
374,3.74,-0.007033,0.0050120000000000026,0.076513,-0.021271,0.006271,-0.0037689999999999998
375,3.75,-0.004736000000000001,0.042321,0.060975,-0.019135,0.008408,-0.0027010000000000003
376,3.76,0.001032,0.005180000000000001,0.058126,-0.017013999999999998,0.008408,-0.0027010000000000003
377,3.77,0.006587999999999999,0.050689,0.018765,-0.018066,0.005219,-0.001633
378,3.78,0.047389,0.023712,0.007026000000000001,-0.011687999999999999,-0.00012199999999999993,-0.0027010000000000003
379,3.79,0.037856,-0.009151000000000001,0.009627000000000005,-0.009552,-0.0022429999999999998,-0.0027010000000000003
380,3.8,0.025958,-0.01973,0.015877000000000002,-0.0063479999999999995,-0.007568000000000001,0.001556
381,3.81,0.011286,0.005378,-0.004076,-0.003159,-0.007568000000000001,0.000488
382,3.82,0.017901,-0.006412999999999999,-0.007703999999999998,-0.00209,-0.009705,0.001556
383,3.83,0.011268,-0.019924,-0.033316000000000005,-0.00209,-0.010773,0.003693
384,3.84,0.019436000000000002,-0.02557,-0.016679,-0.00209,-0.012894,0.004761
385,3.85,-0.008884,-0.019203,0.00594800000000001,-0.003159,-0.013962,0.000488
386,3.86,0.015059000000000001,-0.007730000000000002,-0.052864999999999995,-0.004227000000000001,-0.017166,0.001556
387,3.87,-0.0022189999999999953,-0.019932,0.026055000000000002,-0.005295,-0.015030000000000002,-0.0005650000000000001
388,3.88,-0.012208,-0.007026000000000001,-0.010824,-0.0063479999999999995,-0.016097999999999998,-0.001633
389,3.89,0.014563,-0.007581000000000002,0.002853,-0.005295,-0.015030000000000002,-0.0005650000000000001
390,3.9,-0.005065,0.011195,-0.006241,-0.007415999999999998,-0.016097999999999998,-0.0037689999999999998
391,3.91,0.020437999999999998,-0.020307,-0.032822000000000004,-0.007416,-0.018219,-0.0027010000000000003
392,3.92,0.007223,-0.008604,-0.035115,-0.009552,-0.018219,-0.0027010000000000003
393,3.93,-0.0020610000000000003,-0.033696,-0.010884999999999999,-0.011687999999999999,-0.016097999999999998,-0.0027010000000000003
394,3.94,-0.007266,-0.029713,0.012947,-0.011687999999999999,-0.016097999999999998,-0.004837
395,3.95,0.006494999999999999,-0.0070639999999999965,0.021327000000000002,-0.012740999999999999,-0.016097999999999998,-0.001633
396,3.96,0.023161,-0.017864,0.012581,-0.013809,-0.018219,-0.0027010000000000003
397,3.97,0.01765,-0.04166,0.031032,-0.013809,-0.020355,-0.0037689999999999998
398,3.98,0.03731,-0.036164999999999996,0.035177999999999994,-0.012740999999999999,-0.022491,-0.001633
399,3.99,0.006426,-0.027185,0.023471000000000002,-0.018066,-0.025681,-0.0005650000000000001
400,4.0,0.00732,-0.036049,0.038016,-0.017013999999999998,-0.027817,-0.0005650000000000001
401,4.01,-0.0034629999999999986,-0.0075450000000000005,0.018981,-0.020203,-0.028885,0.002625
402,4.02,0.013890000000000001,0.039458999999999994,0.023232,-0.019135,-0.031006,0.000488
403,4.03,-0.016968,0.040267000000000004,0.004829,-0.020203,-0.033142000000000005,0.001556
404,4.04,0.073648,0.065204,0.003640000000000001,-0.019135,-0.040588,0.0004880000000000002
405,4.05,0.092793,0.099378,0.02036,-0.020203,-0.043793,-0.0005650000000000001
406,4.06,0.11738399999999999,0.10005599999999999,-0.018604,-0.018066,-0.055511000000000005,-0.001633
407,4.07,0.191663,0.155996,-0.007514,-0.018066,-0.068298,-0.0037689999999999998
408,4.08,0.23909699999999998,0.186638,-0.012843,-0.015944999999999997,-0.08107,-0.00589
409,4.09,0.289931,0.20440999999999998,0.018690000000000002,-0.010620000000000001,-0.095993,-0.0037689999999999998
410,4.1,0.317737,0.23104899999999998,0.032921,-0.0010219999999999997,-0.10878,-0.0037689999999999998
411,4.11,0.343379,0.245482,0.033764999999999996,0.013885000000000002,-0.119431,-0.0027010000000000003
412,4.12,0.300345,0.266498,-0.059274000000000014,0.030930000000000003,-0.134338,-0.0027010000000000003
413,4.13,0.267029,0.349024,-0.055088,0.046906,-0.152451,-0.0005650000000000001
414,4.14,0.30924,0.376838,-0.046392,0.05011,-0.165237,-0.0005650000000000001
415,4.15,0.338604,0.38823,-0.060009,0.05011,-0.184402,0.001556
416,4.16,0.310069,0.349932,-0.033513999999999995,0.047974,-0.191864,0.006882000000000001
417,4.17,0.33579699999999996,0.288983,-0.0104,0.058624,-0.20784,0.011154
418,4.18,0.318078,0.192352,0.062053,0.07034299999999999,-0.21316500000000002,0.015411000000000001
419,4.19,0.308633,0.161403,0.005468,0.089523,-0.21423299999999998,0.021805
420,4.2,0.329357,0.142325,0.037776,0.104431,-0.21316500000000002,0.024994
421,4.21,0.215588,0.130369,0.008387,0.12573199999999998,-0.20997600000000002,0.026062000000000002
422,4.22,0.123418,0.13414500000000001,-0.042845,0.147049,-0.20784,0.030319
423,4.23,0.040458,0.125408,-0.115521,0.169418,-0.203583,0.029251
424,4.24,0.045761,0.089899,-0.253862,0.184326,-0.199326,0.031387
425,4.25,0.083175,0.044475,-0.311467,0.188583,-0.191864,0.028198
426,4.26,0.071051,0.012691000000000004,-0.403893,0.186462,-0.180145,0.031387
427,4.27,0.12599100000000002,-0.025732,-0.46864700000000004,0.179001,-0.16735799999999998,0.026062000000000002
428,4.28,0.12856700000000001,-0.07523099999999999,-0.4365,0.166214,-0.152451,0.028198
429,4.29,0.136634,-0.179424,-0.445431,0.156631,-0.134338,0.026062000000000002
430,4.3,0.139183,-0.158987,-0.427601,0.14917,-0.110901,0.02713
431,4.31,0.118835,-0.147404,-0.46183500000000005,0.137451,-0.085342,0.021805
432,4.32,0.127085,-0.203834,-0.500926,0.127869,-0.069351,0.012206999999999999
433,4.33,0.092628,-0.268484,-0.441249,0.126801,-0.06723,-0.01123
434,4.34,0.08099500000000001,-0.317405,-0.43812,0.132126,-0.06723,-0.029327
435,4.35,0.049085000000000004,-0.38416999999999996,-0.399125,0.137451,-0.060837,-0.046370999999999996
436,4.36,0.044295,-0.408283,-0.509625,0.134262,-0.040588,-0.062363
437,4.37,0.118663,-0.41790600000000006,-0.588394,0.12468,-0.022491,-0.070877
438,4.38,0.204938,-0.420177,-0.646375,0.10656700000000001,-0.004379,-0.08046
439,4.39,0.256184,-0.49331099999999994,-0.658489,0.084198,0.002014,-0.090057
440,4.4,0.324538,-0.512259,-0.681338,0.051163,0.00415,-0.094315
441,4.41,0.405466,-0.563638,-0.5719069999999999,0.009627999999999998,0.003082,-0.104965
442,4.42,0.406469,-0.575023,-0.478167,-0.040436,0.006271,-0.112427
443,4.43,0.399118,-0.5733590000000001,-0.330932,-0.097961,0.015869,-0.11882000000000001
444,4.44,0.309875,-0.5849270000000001,-0.084406,-0.15123,0.039307,-0.128403
445,4.45,0.11628599999999999,-0.708328,0.256286,-0.19278,0.08616599999999999,-0.135864
446,4.46,-0.168323,-0.7666,0.54496,-0.218338,0.147949,-0.14119
447,4.47,-0.589326,-0.9171299999999999,0.726959,-0.22047399999999998,0.22891199999999998,-0.14119
448,4.48,-0.983384,-1.016025,0.7420939999999999,-0.187454,0.307739,-0.134796
449,4.49,-1.377041,-1.171346,0.534396,-0.136322,0.373795,-0.12521400000000002
450,4.5,-1.607643,-1.30114,0.152726,-0.07666,0.41001899999999997,-0.100708
451,4.51,-1.586433,-1.328902,-0.190933,-0.047897,0.460083,-0.058089999999999996
452,4.52,-1.525757,-1.255727,-0.45973100000000006,-0.046829,0.513336,-0.01123
453,4.53,-1.381875,-1.0806440000000002,-0.758795,-0.056427,0.562347,0.04097
454,4.54,-1.161901,-0.90136,-1.010066,-0.055359000000000005,0.567673,0.083588
455,4.55,-0.82439,-0.42208100000000004,-1.391599,-0.057479999999999996,0.542099,0.133652
456,4.56,-0.41674799999999995,0.182636,-1.798255,-0.069199,0.466476,0.158157
457,4.57,0.05710399999999999,0.8553709999999999,-2.049589,-0.09902999999999999,0.355682,0.147507
458,4.58,0.44326800000000005,1.448076,-2.0794669999999997,-0.144836,0.234238,0.11981199999999999
459,4.59,0.59946,2.018897,-1.9177119999999999,-0.18212899999999999,0.12239100000000001,0.091049
460,4.6,0.731192,2.363398,-1.5637159999999999,-0.201294,0.052078,0.067612
461,4.61,0.672208,2.487152,-1.1596389999999999,-0.185318,0.021194,0.033524
462,4.62,0.398055,2.2656009999999998,-0.855075,-0.141647,0.03717,-0.005890000000000001
463,4.63,0.07725700000000002,2.032898,-0.6842689999999999,-0.088379,0.08404500000000001,-0.050644000000000015
464,4.64,-0.32784800000000003,1.528366,-0.682523,-0.023392,0.142624,-0.096451
465,4.65,-0.804029,0.9409069999999999,-0.8992450000000001,0.037323,0.208679,-0.137985
466,4.66,-1.1386319999999999,0.25357,-1.17993,0.077805,0.276855,-0.155029
467,4.67,-1.3443969999999998,-0.417311,-1.403114,0.092712,0.333313,-0.159302
468,4.68,-1.341102,-1.011077,-1.641003,0.071411,0.383377,-0.15184
469,4.69,-1.181704,-1.492343,-1.811565,0.020279,0.408951,-0.144379
470,4.7,-1.05663,-1.7842040000000001,-1.875378,-0.044708,0.41213999999999995,-0.13372799999999999
471,4.71,-0.7685350000000001,-1.948535,-1.8937279999999999,-0.115005,0.391907,-0.12626600000000002
472,4.72,-0.532886,-1.872153,-1.870998,-0.189575,0.364212,-0.11882000000000001
473,4.73,-0.344016,-1.6398669999999997,-1.8106360000000001,-0.25882,0.319458,-0.11561600000000001
474,4.74,-0.25533,-1.259326,-1.684711,-0.316345,0.265137,-0.109222
475,4.75,-0.30333499999999997,-0.785508,-1.555843,-0.347244,0.220398,-0.096451
476,4.76,-0.33971399999999996,-0.396412,-1.374671,-0.350433,0.18631,-0.068741
477,4.77,-0.45826400000000006,-0.087306,-1.2210969999999999,-0.323807,0.164993,-0.038925
478,4.78,-0.532185,0.114624,-1.011454,-0.276932,0.15329,-0.006957999999999999
479,4.79,-0.686901,0.259869,-0.9700040000000001,-0.17999300000000001,0.166061,0.039917
480,4.8,-0.755476,0.18288800000000002,-1.0042440000000001,-0.11821,0.18524200000000002,0.062286
481,4.81,-0.8418399999999999,0.049824000000000014,-1.143381,-0.063873,0.20654299999999998,0.075058
482,4.82,-0.852601,-0.047643,-1.303059,-0.018066,0.234238,0.072937
483,4.83,-0.931423,-0.188921,-1.457778,0.018143,0.26088,0.062286
484,4.84,-0.9883770000000001,-0.191967,-1.553151,0.036255,0.28536999999999996,0.042038
485,4.85,-1.008645,-0.161046,-1.591444,0.044785000000000005,0.307739,0.020737000000000002
486,4.86,-0.9561350000000001,-0.068601,-1.597256,0.045837,0.309875,0.004761
487,4.87,-0.8491270000000001,0.083367,-1.649202,0.04158,0.294968,-0.0027010000000000003
488,4.88,-0.685131,0.24944000000000002,-1.686677,0.037323,0.261932,-0.0027010000000000003
489,4.89,-0.359155,0.42643400000000004,-1.8082340000000001,0.034119,0.21933000000000002,0.005829
490,4.9,-0.107351,0.649648,-1.8784,0.024536000000000002,0.164993,0.010086
491,4.91,0.08474199999999997,0.875316,-1.957041,0.020279,0.10321,0.014343
492,4.92,0.261726,1.142255,-2.012016,0.022415,0.031845,0.013275
493,4.93,0.248304,1.38933,-2.063344,0.034119,-0.04805,0.009018
494,4.94,-0.02699700000000001,1.7317580000000001,-2.176903,0.06501799999999999,-0.138596,-0.005889999999999999
495,4.95,-0.405848,1.98032,-2.283446,0.108688,-0.22169499999999998,-0.019745
496,4.96,-0.8245469999999999,2.220098,-2.348076,0.152374,-0.280273,-0.027206
497,4.97,-1.209373,2.363952,-2.304175,0.183258,-0.31863400000000003,-0.028275
498,4.98,-1.497976,2.56458,-2.1053990000000002,0.192856,-0.351654,-0.004837000000000001
499,4.99,-1.6409599999999998,2.804805,-1.817718,0.174744,-0.382538,0.02713
500,5.0,-1.575158,3.115852,-1.493775,0.12254300000000001,-0.423019,0.045242000000000004
501,5.01,-1.408192,3.3281699999999996,-0.8098810000000001,0.045837,-0.469894,0.0495
502,5.02,-1.353093,3.0712650000000004,0.312156,-0.037247,-0.448593,0.032455
503,5.03,-1.339374,2.387934,1.5422059999999995,-0.088379,-0.339935,0.017532
504,5.04,-1.0938860000000001,1.5076100000000001,2.191097,-0.09477200000000001,-0.186539,0.001556
505,5.05,-0.698639,0.541682,2.302787,-0.081985,-0.072556,-0.013350999999999998
506,5.06,-0.034227000000000014,-0.677537,2.351625,-0.080917,-0.035263,-0.026137999999999998
507,5.07,0.7718619999999999,-1.913212,2.315907,-0.083054,-0.072556,-0.031464
508,5.08,1.635632,-2.725675,2.1283830000000004,-0.105423,-0.156708,-0.022934
509,5.09,2.4127959999999997,-3.216171,1.913189,-0.140579,-0.27069099999999996,-0.009094
510,5.1,3.01225,-3.3537769999999996,1.629199,-0.176804,-0.38681,-0.0005650000000000001
511,5.11,3.137603,-3.080215,1.142188,-0.202362,-0.454987,-0.006958
512,5.12,2.726825,-2.309244,0.487629,-0.23858600000000002,-0.462433,-0.018677000000000003
513,5.13,2.089014,-1.395406,-0.09282200000000003,-0.308884,-0.414505,-0.020812999999999998
514,5.14,1.421318,-0.423002,-0.24576900000000002,-0.401566,-0.349518,-0.021881
515,5.15,0.624153,0.750628,0.00826099999999999,-0.472946,-0.289871,-0.006957999999999999
516,5.16,0.106779,1.6519080000000002,0.449851,-0.504898,-0.250458,0.050568
517,5.17,-0.17388199999999998,2.360568,0.9788100000000001,-0.47081000000000006,-0.231277,0.11981199999999999
518,5.18,-0.305608,2.418653,1.309511,-0.356827,-0.21423299999999998,0.181595
519,5.19,-0.177877,2.091456,1.259212,-0.200226,-0.237671,0.23911999999999997
520,5.2,-0.178989,1.6505319999999999,0.9700049999999999,-0.04150399999999999,-0.294128,0.284927
521,5.21,0.005602999999999997,1.052999,0.43826499999999996,0.094849,-0.323959,0.32966599999999996
522,5.22,0.267838,0.26569699999999996,-0.118094,0.19178800000000001,-0.34526100000000004,0.343506
523,5.23,0.589264,-0.60043,-0.619424,0.235458,-0.34419299999999997,0.341385
524,5.24,0.825247,-1.402682,-1.0597159999999999,0.22906500000000002,-0.322891,0.31048600000000004
525,5.25,0.912019,-2.194401,-1.393143,0.180069,-0.28880300000000003,0.27426100000000003
526,5.26,0.971743,-2.760734,-1.568677,0.098038,-0.250458,0.243378
527,5.27,0.9284879999999999,-3.1510439999999997,-1.776745,0.010695999999999995,-0.215302,0.214615
528,5.28,0.8466600000000001,-3.3060949999999996,-1.8302509999999999,-0.084122,-0.180145,0.185852
529,5.29,0.6569520000000001,-3.328986,-1.70133,-0.213013,-0.15564,0.143234
530,5.3,0.445114,-2.983091,-1.539196,-0.274796,-0.156708,0.13472
531,5.31,0.41144899999999995,-2.516643,-1.261,-0.31101999999999996,-0.16203299999999998,0.12193299999999999
532,5.32,0.39685,-2.046794,-1.0182229999999999,-0.32806399999999997,-0.16203299999999998,0.10382100000000001
533,5.33,0.374458,-1.49919,-0.797509,-0.321671,-0.169495,0.077194
534,5.34,0.375078,-1.052355,-0.635099,-0.29504400000000003,-0.169495,0.048431
535,5.35,0.45317700000000005,-0.45671000000000006,-0.5930989999999999,-0.249237,-0.16735799999999998,0.020737000000000002
536,5.36,0.6097060000000001,-0.090574,-0.617002,-0.173599,-0.164169,-0.009094
537,5.37,0.708924,0.099526,-0.8013640000000001,-0.092636,-0.158844,-0.04425
538,5.38,0.909775,0.114068,-0.9996149999999999,-0.013808999999999995,-0.1418,-0.075134
539,5.39,1.05474,-0.009912999999999998,-1.249775,0.051163,-0.140732,-0.107101
540,5.4,1.229684,-0.11835699999999999,-1.417374,0.104431,-0.134338,-0.13372799999999999
541,5.41,1.3135569999999999,-0.148894,-1.531844,0.147049,-0.12262,-0.147583
542,5.42,1.319494,-0.0006369999999999987,-1.825235,0.181137,-0.103439,-0.157166
543,5.43,1.139734,0.197854,-2.08843,0.19072,-0.085342,-0.149704
544,5.44,0.869243,0.457675,-2.347851,0.161957,-0.05658,-0.12521400000000002
545,5.45,0.658787,0.822742,-2.464267,0.10975599999999999,-0.025681,-0.075134
546,5.46,0.33123800000000003,1.229676,-2.2398119999999997,0.04158,0.004149999999999999,-0.020812999999999998
547,5.47,-0.09828499999999997,1.530659,-1.917934,-0.010620000000000001,0.043564,0.033524000000000005
548,5.48,-0.5619,1.848866,-1.611243,-0.048964999999999995,0.11386099999999999,0.083588
549,5.49,-0.8805040000000001,2.1116490000000003,-1.401485,-0.068146,0.201218,0.12619
550,5.5,-0.901834,2.4760299999999997,-1.168379,-0.069199,0.290695,0.151764
551,5.51,-0.677379,2.861986,-1.132203,-0.040436,0.385513,0.147507
552,5.52,-0.17890999999999999,3.166079,-1.113238,0.019211000000000002,0.478195,0.114471
553,5.53,0.26142600000000005,3.281818,-0.810107,0.11189300000000002,0.539978,0.059082
554,5.54,0.215375,3.5160160000000005,-0.396663,0.205627,0.596436,0.0004879999999999989
555,5.55,0.450917,3.929449,-0.296561,0.22480799999999998,0.73172,-0.030396
556,5.56,0.9790139999999999,4.204191000000001,0.295618,0.13000499999999998,0.905365,-0.045319
557,5.57,1.6917099999999998,4.271675,1.394026,0.042648,0.963943,-0.050644
558,5.58,2.0076709999999998,3.8627860000000003,2.713178,0.013884999999999998,0.865952,-0.042114
559,5.59,1.603486,2.208697,4.187389,-0.015944999999999997,0.6560819999999999,0.10276800000000001
560,5.6,0.991836,0.938227,4.853853,-0.028732,0.602829,0.240173
561,5.61,0.254185,-0.492066,5.001623,0.095917,0.5346529999999999,0.345642
562,5.62,-1.013732,-1.678349,4.072337,0.316422,0.441971,0.415955
563,5.63,-1.994089,-2.695048,2.638546,0.509232,0.330124,0.461761
564,5.64,-2.478157,-3.351376,1.298861,0.5944520000000001,0.23851,0.451096
565,5.65,-2.505561,-3.330317,0.35025700000000004,0.541199,0.166061,0.387192
566,5.66,-2.271806,-2.801382,-0.228148,0.375015,0.117065,0.271072
567,5.67,-1.948912,-1.813663,-0.64278,0.143845,0.11813399999999999,0.13151600000000002
568,5.68,-1.485449,-0.904164,-0.9375370000000001,-0.092636,0.158615,-0.0005649999999999961
569,5.69,-0.04868499999999998,0.312633,-0.694396,-0.399429,0.233185,-0.188049
570,5.7,0.507907,0.646001,0.25918499999999994,-0.508087,0.25660700000000003,-0.290329
571,5.71,0.983188,0.9846389999999999,1.196342,-0.507034,0.265137,-0.33825700000000003
572,5.72,1.151922,0.8837020000000001,1.984304,-0.410095,0.247025,-0.376602
573,5.73,1.260549,0.287589,2.4881279999999997,-0.214081,0.22465500000000002,-0.372345
574,5.74,1.154647,-0.209049,2.269273,0.009627999999999998,0.174591,-0.358505
575,5.75,0.895332,-0.9597829999999999,1.636863,0.196045,0.11492899999999999,-0.331863
576,5.76,0.6065699999999999,-1.7155169999999997,0.9298690000000001,0.348373,0.025452,-0.314819
577,5.77,-0.01478600000000002,-2.35784,0.083845,0.45170600000000005,-0.066162,-0.314819
578,5.78,-0.7528229999999999,-2.9002529999999997,-0.656048,0.47621199999999997,-0.13327,-0.33399999999999996
579,5.79,-1.444412,-3.297764,-1.117393,0.422943,-0.17161600000000002,-0.347839
580,5.8,-1.88255,-3.491025,-1.296809,0.34198,-0.182281,-0.34678600000000004
581,5.81,-2.197231,-3.480667,-1.543939,0.253571,-0.191864,-0.312698
582,5.82,-2.154106,-3.242782,-1.7009490000000003,0.154495,-0.19399999999999998,-0.256241
583,5.83,-1.7664830000000002,-2.995602,-1.706805,0.071411,-0.198257,-0.186996
584,5.84,-1.239855,-2.662935,-1.53919,0.004303,-0.215302,-0.134796
585,5.85,-0.7910510000000001,-2.355715,-1.242146,-0.040436,-0.236603,-0.09111
586,5.86,-0.48928999999999995,-2.120041,-1.006106,-0.07559199999999999,-0.236603,-0.063416
587,5.87,-0.200236,-1.941573,-0.841456,-0.091568,-0.21636999999999998,-0.046370999999999996
588,5.88,0.04364099999999999,-1.8107209999999998,-0.821973,-0.088379,-0.192932,-0.04425
589,5.89,0.135198,-1.785518,-0.9263110000000001,-0.069199,-0.190796,-0.043182
590,5.9,0.08405800000000001,-1.825074,-0.9995040000000001,-0.053223,-0.21209699999999998,-0.042114
591,5.91,-0.210892,-1.761294,-1.11846,-0.051102,-0.24086,-0.026137999999999998
592,5.92,-0.471229,-1.539942,-1.2862069999999999,-0.057479999999999996,-0.252579,0.016479
593,5.93,-0.7354930000000001,-1.1567040000000002,-1.515376,-0.068146,-0.261108,0.069733
594,5.94,-1.06771,-0.50807,-1.8190950000000001,-0.069199,-0.269623,0.124069
595,5.95,-1.449107,0.22842600000000002,-2.084559,-0.071335,-0.299454,0.169876
596,5.96,-1.833303,1.09449,-2.10527,-0.07559199999999999,-0.33461,0.192245
597,5.97,-2.072136,1.9382560000000002,-2.009188,-0.09477200000000001,-0.34845,0.17627
598,5.98,-1.984768,2.8025580000000003,-1.674504,-0.129929,-0.343124,0.14111300000000002
599,5.99,-1.593694,3.522817,-1.323848,-0.141647,-0.320755,0.096375
600,6.0,-0.9559709999999999,4.019605,-0.968041,-0.11821,-0.274948,0.062286
601,6.01,-0.524274,4.311458,-0.793337,-0.060684,-0.27175900000000003,0.034575999999999996
602,6.02,-0.235554,4.326378,-0.7328210000000001,0.013884999999999998,-0.302658,0.013275
603,6.03,-0.176374,4.138358,-0.616416,0.101242,-0.33779899999999996,-0.003769
604,6.04,-0.440442,3.857795,-0.551502,0.186462,-0.34739699999999996,-0.010162000000000001
605,6.05,-0.835584,3.7040319999999998,-0.374187,0.232269,-0.304779,-0.014419999999999999
606,6.06,-1.3174860000000002,4.0896230000000005,-0.370732,0.21629299999999999,-0.248322,-0.04425
607,6.07,-1.682565,4.621822,-0.234787,0.07354700000000003,-0.223816,-0.097504
608,6.08,-2.185236,4.664817,0.752159,-0.158691,-0.199326,-0.137985
609,6.09,-2.69539,4.293053,2.37898,-0.32806399999999997,-0.103439,-0.14119
610,6.1,-2.706136,3.384869,3.9241599999999996,-0.372803,0.097885,-0.127335
611,6.11,-1.931387,1.874657,4.721082,-0.307831,0.319458,-0.100708
612,6.12,-0.4614860000000001,0.11749200000000005,4.6449940000000005,-0.142715,0.382309,-0.10282899999999999
613,6.13,0.629698,-1.456496,4.279146,0.107635,0.250229,-0.145447
614,6.14,1.738709,-2.774901,3.5829739999999997,0.38353000000000004,0.062729,-0.143311
615,6.15,3.221287,-3.661986,2.241352,0.566757,-0.09599299999999998,-0.10603299999999999
616,6.16,4.256298,-3.5625139999999997,0.61841,0.558243,-0.266434,-0.067688
617,6.17,4.66478,-2.714706,-0.54691,0.36648600000000003,-0.44538900000000003,-0.031464
618,6.18,4.336371,-1.435989,-1.144215,0.079926,-0.587082,-0.0005649999999999995
619,6.19,3.357136,-0.539458,-0.832967,-0.223663,-0.670166,0.028198
620,6.2,1.816224,0.04425900000000002,0.10633699999999996,-0.473999,-0.657379,0.058013999999999996
621,6.21,0.305265,0.5266430000000001,1.126156,-0.618881,-0.557251,0.100632
622,6.22,-0.8989309999999999,0.9838520000000001,1.945043,-0.6551060000000001,-0.404922,0.133652
623,6.23,-1.871541,1.140881,2.416541,-0.583725,-0.228088,0.16667200000000001
624,6.24,-2.255203,0.759496,2.613165,-0.434586,-0.066162,0.199707
625,6.25,-2.176718,0.16888000000000006,2.443914,-0.253494,0.044632,0.22100799999999998
626,6.26,-2.1310729999999998,-0.351953,2.073299,-0.05642700000000001,0.100021,0.23698400000000003
627,6.27,-1.706868,-1.091792,1.499284,0.126801,0.141571,0.26254299999999997
628,6.28,-1.30817,-1.837965,0.75008,0.268478,0.136246,0.268936
629,6.29,-0.941658,-2.686741,0.058581,0.35051,0.127716,0.281723
630,6.3,-0.293946,-3.3421309999999997,-0.564348,0.377136,0.101089,0.295578
631,6.31,0.26750300000000005,-3.9138260000000002,-1.2533159999999999,0.367554,0.08404500000000001,0.305161
632,6.32,0.69122,-4.245253,-1.726825,0.285522,0.067001,0.30409200000000003
633,6.33,1.069656,-4.301826,-1.9729580000000002,0.17793299999999998,0.057404,0.296646
634,6.34,1.49334,-4.113449,-2.007343,0.055435000000000005,0.061676,0.267883
635,6.35,1.5732979999999999,-3.5721339999999997,-1.903734,-0.056427,0.08830299999999999,0.22845500000000002
636,6.36,1.6910470000000002,-2.877996,-1.69009,-0.142715,0.136246,0.192245
637,6.37,1.48901,-2.163296,-1.474064,-0.205566,0.191635,0.147507
638,6.38,1.3335290000000002,-1.5177559999999999,-1.142241,-0.249237,0.23744200000000001,0.105957
639,6.39,1.1027559999999998,-0.941059,-0.778092,-0.262024,0.264069,0.066544
640,6.4,0.958192,-0.5075649999999999,-0.556204,-0.23751799999999998,0.270462,0.022873
641,6.41,0.753366,-0.22352800000000003,-0.461848,-0.171463,0.258743,-0.02507
642,6.42,0.545013,-0.118279,-0.562434,-0.07772799999999999,0.233185,-0.063416
643,6.43,0.316858,-0.057178,-0.8330040000000001,0.02774,0.209747,-0.103897
644,6.44,0.225225,-0.024527,-1.210725,0.12468,0.19802899999999998,-0.139053
645,6.45,0.01717199999999999,-0.021677000000000002,-1.6852049999999998,0.193909,0.204422,-0.164627
646,6.46,-0.030938999999999998,0.078037,-2.0769290000000002,0.23120100000000002,0.220398,-0.171005
647,6.47,0.060163,0.126113,-2.258239,0.22799699999999998,0.226791,-0.15823399999999999
648,6.48,0.32208600000000004,0.248023,-2.1156639999999998,0.193909,0.22891199999999998,-0.12200899999999999
649,6.49,0.6022689999999999,0.536307,-1.8903470000000002,0.151306,0.21507300000000001,-0.079407
650,6.5,0.8488040000000001,0.9121450000000001,-1.564818,0.12361099999999998,0.189499,-0.039978
651,6.51,0.8386309999999999,1.25958,-1.290107,0.12468,0.159668,-0.005889999999999999
652,6.52,0.532254,1.529709,-1.154865,0.128937,0.178848,0.017532
653,6.53,0.246842,1.665611,-1.197761,0.094849,0.254486,0.044174
654,6.54,0.11703,1.918004,-1.408628,0.006423999999999999,0.363144,0.065475
655,6.55,0.198354,2.338904,-1.518073,-0.09902999999999999,0.460083,0.077194
656,6.56,0.528838,2.823022,-1.450634,-0.16934200000000002,0.529327,0.064407
657,6.57,0.542419,3.1501580000000002,-1.131413,-0.16188,0.570862,0.028198
658,6.58,0.175205,3.4069019999999997,-0.691046,-0.067078,0.608154,-0.031464
659,6.59,-0.340752,3.706094,-0.213631,0.092712,0.660355,-0.10282899999999999
660,6.6,-0.812342,4.053088,-0.32403899999999997,0.20776399999999998,0.795639,-0.156097
661,6.61,-0.353302,4.4662120000000005,0.06604399999999999,0.082062,0.8616790000000001,-0.142258
662,6.62,1.0049219999999999,4.3944019999999995,2.126121,-0.121399,0.700836,-0.086853
663,6.63,1.519293,3.46694,4.5405489999999995,-0.153366,0.45369,0.018600000000000002
664,6.64,1.417822,1.934608,6.460967,-0.138443,0.390839,0.231659
665,6.65,0.786138,0.560077,7.325831,-0.11181600000000001,0.46859700000000004,0.467087
666,6.66,0.009575999999999918,-0.508161,6.454416999999999,0.025604,0.510147,0.632202
667,6.67,-0.59472,-1.235064,4.288444,0.263153,0.429184,0.678009
668,6.68,-1.117666,-1.893187,2.057539,0.463425,0.25660700000000003,0.635391
669,6.69,-1.5585200000000001,-2.281155,0.3924289999999999,0.531601,0.040359000000000006,0.5065
670,6.7,-2.156904,-2.407331,-0.411446,0.421875,-0.106644,0.34777800000000003
671,6.71,-2.54642,-1.9381130000000002,-0.476821,0.179001,-0.131149,0.214615
672,6.72,-2.512978,-1.061669,-0.167701,-0.08198499999999999,-0.061904999999999995,0.1017
673,6.73,-2.0439130000000003,-0.08531,0.213327,-0.300369,0.07872,0.0004880000000000023
674,6.74,-1.068716,0.554154,0.713256,-0.456955,0.23637399999999997,-0.086853
675,6.75,-0.0031320000000000237,0.9806360000000001,1.228724,-0.530472,0.368469,-0.164627
676,6.76,0.955787,1.120792,1.7951099999999998,-0.531525,0.454758,-0.254105
677,6.77,1.4146299999999998,0.933084,2.203297,-0.432465,0.476059,-0.310562
678,6.78,1.8118779999999999,0.778623,2.186122,-0.253494,0.42385900000000004,-0.351044
679,6.79,2.122378,0.03148400000000001,1.833136,-0.048965000000000015,0.298157,-0.371277
680,6.8,2.147995,-0.744292,1.342871,0.138519,0.146896,-0.358505
681,6.81,1.876366,-1.533944,0.764396,0.268478,-0.031006,-0.371277
682,6.82,1.159813,-2.39732,0.264412,0.346252,-0.199326,-0.378738
683,6.83,0.279844,-3.148297,-0.244474,0.372879,-0.31863400000000003,-0.381927
684,6.84,-0.604709,-3.803808,-0.775122,0.351578,-0.38893099999999997,-0.396851
685,6.85,-1.492502,-4.132155,-1.309453,0.277008,-0.43154899999999996,-0.40536500000000003
686,6.86,-2.45801,-4.297398,-1.6775189999999998,0.140656,-0.46563699999999997,-0.38406399999999996
687,6.87,-3.031693,-4.183394,-1.486129,-0.021271,-0.468826,-0.324417
688,6.88,-3.155827,-3.80533,-1.17693,-0.13525399999999999,-0.45605500000000004,-0.2509
689,6.89,-2.936512,-3.131121,-0.9462879999999999,-0.197037,-0.427292,-0.166748
690,6.9,-2.502945,-2.554036,-0.651157,-0.20982399999999998,-0.39213600000000004,-0.092178
691,6.91,-1.884775,-2.059463,-0.49627899999999997,-0.171463,-0.352722,-0.053833000000000006
692,6.92,-1.2484110000000002,-1.7185740000000003,-0.5133220000000001,-0.113953,-0.312241,-0.04425
693,6.93,-0.676259,-1.572284,-0.619965,-0.055359000000000005,-0.285599,-0.059158
694,6.94,-0.14524699999999996,-1.5661209999999999,-0.7781170000000001,-0.007415999999999998,-0.262177,-0.085785
695,6.95,0.41580200000000006,-1.5496510000000001,-0.974094,0.034119,-0.25151100000000004,-0.11135899999999999
696,6.96,0.807972,-1.567046,-1.311628,0.061828999999999995,-0.26855500000000004,-0.13266
697,6.97,1.002982,-1.454323,-1.660218,0.073547,-0.336746,-0.13266
698,6.98,0.8629049999999999,-1.204021,-1.8992799999999999,0.082062,-0.435806,-0.096451
699,6.99,0.442694,-0.8022739999999999,-2.1981580000000003,0.089523,-0.529556,-0.022934
700,7.0,-0.11106700000000004,-0.248343,-2.3706080000000003,0.091644,-0.5785520000000001,0.065475
701,7.01,-0.794466,0.504833,-2.446069,0.086319,-0.573227,0.138977
702,7.02,-1.35626,1.396038,-2.503037,0.066086,-0.512512,0.162415
703,7.03,-1.690867,2.428144,-2.387074,0.037323,-0.448593,0.13046300000000002
704,7.04,-1.6895060000000002,3.4307,-2.1750130000000003,0.009628,-0.426224,0.053757000000000006
705,7.05,-1.6435959999999998,4.068455999999999,-1.829552,0.005371,-0.45285,-0.021881
706,7.06,-1.786713,4.37782,-1.397327,0.021347,-0.48586999999999997,-0.064484
707,7.07,-1.8288240000000002,4.3632919999999995,-0.91656,0.075668,-0.484818,-0.063416
708,7.08,-1.852898,4.191326,-0.577539,0.161957,-0.413437,-0.031464
709,7.09,-1.821075,3.885178,-0.44584799999999997,0.274872,-0.302658,0.0186
710,7.1,-2.11821,3.442275,-0.27056199999999997,0.386734,-0.173752,0.074005
711,7.11,-2.072568,3.7316529999999997,-0.21454499999999999,0.45063800000000004,-0.07255600000000001,0.107025
712,7.12,-2.001048,4.699454,-0.461721,0.367554,-0.028885,0.059082
713,7.13,-1.861662,4.986748,0.591896,0.025603999999999988,-0.009705,0.007950000000000002
714,7.14,-2.060356,4.636101999999999,3.423,-0.285446,0.041428,0.010086
715,7.15,-1.706443,3.978472,5.7757559999999994,-0.324875,0.23851,-0.015488
716,7.16,-0.46019099999999996,2.2591669999999997,6.500087000000001,-0.22154200000000002,0.478195,-0.096451
717,7.17,0.352275,0.446033,6.026434,-0.030852999999999988,0.5655359999999999,-0.204041
718,7.18,1.050457,-0.821785,5.433754,0.266357,0.508011,-0.272217
719,7.19,2.207753,-1.7724209999999998,4.352109,0.624283,0.43983500000000003,-0.270081
720,7.2,3.9248819999999998,-2.5475830000000004,2.3684,0.8362729999999999,0.401489,-0.206161
721,7.21,5.116105999999999,-2.532052,0.504544,0.78833,0.280045,-0.13266
722,7.22,5.344043,-1.787868,-0.745268,0.540131,0.071259,-0.053833000000000006
723,7.23,4.841505000000001,-0.8432780000000001,-1.498371,0.194977,-0.182281,0.033524
724,7.24,3.7361809999999998,-0.390995,-1.724347,-0.152298,-0.463501,0.1017
725,7.25,2.054911,-0.275552,-1.420461,-0.431396,-0.6818850000000001,0.16880799999999999
726,7.26,0.34391900000000003,-0.18096900000000002,-0.64391,-0.619949,-0.752197,0.229523
727,7.27,-1.040714,-0.068526,0.48026199999999997,-0.6998439999999999,-0.697861,0.27214099999999997
728,7.28,-2.1459029999999997,0.115274,1.5760100000000001,-0.6859890000000001,-0.572159,0.301971
729,7.29,-2.64981,-0.0070179999999999965,2.5726430000000002,-0.584793,-0.436874,0.328598
730,7.3,-2.910936,-0.242865,3.171463,-0.40476999999999996,-0.285599,0.34989899999999996
731,7.31,-2.658394,-0.735651,3.113953,-0.17466700000000002,-0.146057,0.35736100000000004
732,7.32,-2.459365,-1.245557,2.471345,0.051163000000000014,-0.052307000000000006,0.373337
733,7.33,-1.941847,-2.029284,1.5126620000000002,0.20883200000000002,0.038238999999999995,0.388245
734,7.34,-1.222701,-2.669512,0.4579400000000001,0.29512,0.110672,0.38398699999999997
735,7.35,-0.4573840000000001,-3.4582410000000006,-0.33057600000000004,0.320679,0.16394,0.37440500000000004
736,7.36,0.39505999999999997,-4.097059,-0.9661350000000001,0.294052,0.188431,0.359482
737,7.37,1.038409,-4.451517,-1.348183,0.23759499999999997,0.2108,0.33711199999999997
738,7.38,1.497976,-4.568034,-1.606492,0.14917,0.225723,0.305161
739,7.39,1.9745759999999999,-4.3641239999999994,-1.6495080000000002,0.053299,0.24169899999999997,0.25721700000000003
740,7.4,2.059919,-3.898569,-1.626499,-0.047897,0.257675,0.18371600000000002
741,7.41,1.8829930000000001,-3.38237,-1.389116,-0.142715,0.277924,0.099564
742,7.42,1.642991,-2.6494169999999997,-1.193743,-0.202362,0.294968,0.034575999999999996
743,7.43,1.351064,-1.913715,-0.9641700000000001,-0.23645,0.316269,-0.028275
744,7.44,1.0380639999999999,-1.2097440000000002,-0.787974,-0.228989,0.334381,-0.065552
745,7.45,0.797346,-0.644167,-0.761666,-0.18318199999999998,0.333313,-0.09963999999999999
746,7.46,0.640668,-0.191497,-0.75043,-0.093704,0.31308,-0.120941
747,7.47,0.456578,0.056116999999999986,-0.7768689999999999,0.027739999999999997,0.286438,-0.150772
748,7.48,0.172566,0.318912,-1.09095,0.160889,0.281113,-0.17846700000000001
749,7.49,-0.05609900000000002,0.5018819999999999,-1.515406,0.285522,0.310944,-0.19339
750,7.5,-0.233652,0.527496,-1.939585,0.36648600000000003,0.345032,-0.204041
751,7.51,-0.2239,0.381995,-2.113258,0.390991,0.36740100000000003,-0.196579
752,7.52,0.04435900000000001,0.29333400000000004,-2.140666,0.377136,0.372726,-0.175278
753,7.53,0.42848800000000004,0.338618,-2.097583,0.339859,0.340775,-0.145447
754,7.54,0.662639,0.5182140000000001,-1.9867849999999998,0.290848,0.298157,-0.103897
755,7.55,0.63279,0.806158,-2.0281860000000003,0.232269,0.287506,-0.055968999999999984
756,7.56,0.6480130000000001,1.145561,-2.105451,0.139587,0.324783,0.0004879999999999989
757,7.57,0.6939930000000001,1.554016,-2.2361779999999998,0.0010990000000000028,0.385513,0.056961000000000005
758,7.58,0.895925,2.170788,-2.2376,-0.16188000000000002,0.449432,0.105957
759,7.59,1.05905,2.786149,-2.082406,-0.29504400000000003,0.49523900000000004,0.12193299999999999
760,7.6,1.0051450000000002,3.4472519999999998,-1.655845,-0.338715,0.501617,0.091049
761,7.61,0.704171,3.7551,-0.974891,-0.268402,0.473923,0.026062
762,7.62,0.05889,3.980688,-0.005776000000000003,-0.087311,0.45369,-0.061295
763,7.63,-0.799551,4.216511,0.400754,0.154495,0.512283,-0.13372799999999999
764,7.64,-1.3867260000000001,4.245389,0.45423900000000006,0.251434,0.6582180000000001,-0.153961
765,7.65,-0.332935,3.9494629999999997,1.238251,0.127869,0.695496,-0.09324600000000001
766,7.66,1.1484809999999999,3.4169989999999997,3.0261169999999997,0.018143,0.527191,-0.0037690000000000015
767,7.67,1.483084,2.304448,4.857493,-0.034058,0.358871,0.14856
768,7.68,1.369185,0.856439,6.372047,-0.16187999999999994,0.35035700000000003,0.4255370000000001
769,7.69,1.096846,-0.06334699999999999,6.742081,-0.21621700000000002,0.41213999999999995,0.687592
770,7.7,0.730192,-0.366458,5.311975,-0.083054,0.32052600000000003,0.8260799999999999
771,7.71,0.05023499999999997,-0.530554,3.117028,0.147049,0.09149199999999999,0.821808
772,7.72,-0.606794,-0.572732,1.126408,0.303635,-0.17588800000000002,0.697174
773,7.73,-1.578236,-0.776841,0.269891,0.269547,-0.38681,0.49050900000000003
774,7.74,-2.84199,-0.5451020000000001,0.569254,0.100174,-0.446457,0.271072
775,7.75,-3.560778,0.272748,1.239709,-0.10116599999999999,-0.31543000000000004,0.066544
776,7.76,-3.413621,1.234062,1.867156,-0.25242600000000004,-0.069351,-0.10282899999999999
777,7.77,-2.587121,1.566207,2.002534,-0.337646,0.215073,-0.24131799999999998
778,7.78,-1.1554189999999998,1.308589,2.1621,-0.34617600000000004,0.43132,-0.34571799999999997
779,7.79,-0.135293,0.9488059999999999,1.8848790000000002,-0.307831,0.585785,-0.407501
780,7.8,0.713389,0.468088,1.613385,-0.23326100000000002,0.635849,-0.440521
781,7.81,1.4883979999999999,-0.049944000000000016,1.409522,-0.11821,0.587906,-0.420288
782,7.82,2.0336849999999997,-0.593933,1.179713,0.027739999999999997,0.443039,-0.414963
783,7.83,2.435834,-1.451202,0.781884,0.180069,0.27153,-0.379807
784,7.84,2.663018,-2.1809990000000004,0.21672,0.291916,0.073395,-0.354233
785,7.85,2.410666,-2.996771,-0.13326200000000002,0.351578,-0.13327,-0.373413
786,7.86,1.586043,-3.7568669999999997,-0.478436,0.370743,-0.28880300000000003,-0.407501
787,7.87,0.392178,-4.392707,-0.884217,0.34944200000000003,-0.37295500000000004,-0.44265699999999997
788,7.88,-0.699666,-5.004705,-1.2727190000000002,0.287659,-0.40918000000000004,-0.466095
789,7.89,-1.866901,-5.508061,-1.667127,0.17793299999999998,-0.405975,-0.473541
790,7.9,-2.746011,-5.5723910000000005,-1.6969599999999998,0.021347,-0.369766,-0.429871
791,7.91,-3.025243,-5.292758999999999,-1.542219,-0.108627,-0.323959,-0.364883
792,7.92,-2.95095,-4.491902,-1.286591,-0.198105,-0.287735,-0.287125
793,7.93,-2.575806,-3.540308,-1.045527,-0.23645,-0.265366,-0.209366
794,7.94,-2.079355,-2.603323,-0.730054,-0.20982399999999998,-0.246185,-0.147583
795,7.95,-1.564925,-1.684926,-0.5173,-0.136322,-0.21423299999999998,-0.109222
796,7.96,-1.094743,-0.9162389999999999,-0.40147,-0.037247,-0.173752,-0.101776
797,7.97,-0.668446,-0.326206,-0.31990799999999997,0.076736,-0.115158,-0.11029100000000001
798,7.98,-0.2786,0.062203000000000015,-0.43119399999999997,0.192856,-0.069351,-0.128403
799,7.99,-0.09956799999999999,0.177471,-0.764575,0.288727,-0.075745,-0.142258
800,8.0,-0.394728,0.130272,-1.586593,0.397385,-0.203583,-0.053833000000000006
801,8.01,-0.527575,0.163209,-2.1596130000000002,0.409103,-0.22488400000000003,0.0495
802,8.02,-0.6450739999999999,0.178017,-2.686408,0.386734,-0.197189,0.143234
803,8.03,-0.519912,0.260757,-3.031101,0.313232,-0.16735799999999998,0.199707
804,8.04,-0.351348,0.560501,-3.298578,0.200302,-0.17161600000000002,0.194366
805,8.05,-0.03622800000000001,1.136223,-3.330345,0.060760000000000015,-0.204651,0.142181
806,8.06,0.198906,1.8838830000000002,-3.039765,-0.08519,-0.273895,0.068665
807,8.07,0.16698,2.663016,-2.4098330000000003,-0.189575,-0.36763,0.0026250000000000023
808,8.08,-0.3222700000000001,3.4329410000000005,-1.609119,-0.201294,-0.44326800000000005,-0.043182
809,8.09,-0.932263,4.164077,-0.6777810000000001,-0.116074,-0.45178199999999996,-0.063416
810,8.1,-1.4502680000000001,4.75906,0.10610600000000003,0.037323,-0.37295500000000004,-0.070877
811,8.11,-1.716435,4.582821,0.586021,0.303635,-0.181213,-0.07833899999999999
812,8.12,-2.161289,3.858,0.302234,0.46449300000000004,-0.082138,-0.055969000000000005
813,8.13,-2.310955,3.4688339999999998,-0.19228199999999998,0.600845,-0.064026,-0.014420000000000002
814,8.14,-2.202873,3.5810800000000005,-0.918007,0.602982,-0.123688,-0.035720999999999996
815,8.15,-2.218493,3.007533,-0.498159,0.322815,-0.17056300000000002,-0.060226
816,8.16,-2.621639,2.02501,1.570547,-0.030852999999999988,-0.138596,-0.047439999999999996
817,8.17,-2.361525,1.201981,3.8866199999999997,-0.20343,-0.012894000000000004,-0.07406599999999999
818,8.18,-0.53803,-0.017569999999999975,5.1266419999999995,-0.276932,0.10321,-0.18486
819,8.19,1.099808,-0.7461260000000001,5.080896,-0.286514,0.097885,-0.33718899999999996
820,8.2,2.2016080000000002,-0.961227,4.763173999999999,-0.205566,-0.0011750000000000024,-0.441589
821,8.21,3.17706,-0.657346,3.8489730000000004,0.006423999999999999,-0.062973,-0.453308
822,8.22,4.9892959999999995,-0.277109,2.151002,0.173676,-0.043793,-0.378738
823,8.23,6.719985,0.35784800000000005,1.002446,0.17793299999999998,-0.066162,-0.280731
824,8.24,7.225188,0.9292860000000001,0.7091310000000001,0.040512000000000006,-0.198257,-0.183792
825,8.25,6.378008,1.3979110000000001,0.6725760000000001,-0.157623,-0.463501,-0.101776
826,8.26,4.439919000000001,1.41834,0.8450559999999999,-0.354691,-0.806519,-0.016556
827,8.27,1.751365,1.510513,0.9077270000000001,-0.46122700000000005,-1.049408,0.084656
828,8.28,-0.5360009999999998,1.482358,0.975348,-0.473999,-1.1495360000000001,0.180527
829,8.29,-2.220713,1.323174,1.266956,-0.444183,-1.132492,0.266815
830,8.3,-3.10451,0.872958,1.691525,-0.39517199999999997,-1.016373,0.333923
831,8.31,-3.5203580000000003,0.35461,2.108709,-0.313156,-0.842743,0.375473
832,8.32,-3.8225830000000003,-0.343948,2.36151,-0.171463,-0.626495,0.382919
833,8.33,-3.633685,-1.028057,2.0879220000000003,-0.0020899999999999946,-0.382538,0.41275
834,8.34,-3.176243,-2.087797,1.49191,0.154495,-0.152451,0.408493
835,8.35,-2.578157,-3.065772,0.627574,0.262085,0.031845000000000005,0.407425
836,8.36,-1.403576,-3.972497,-0.196631,0.300446,0.147949,0.391449
837,8.37,-0.277358,-4.8742540000000005,-0.9404110000000001,0.305771,0.204422,0.352036
838,8.38,0.8923620000000001,-5.7099150000000005,-1.446461,0.263153,0.221466,0.317947
839,8.39,1.8456740000000003,-6.108999,-1.8483720000000001,0.198181,0.21400500000000003,0.279587
840,8.4,2.613728,-6.234903,-2.14091,0.111893,0.17671199999999998,0.231659
841,8.41,2.917538,-5.892404,-2.279647,0.016022,0.127716,0.16774
842,8.42,2.911021,-5.22426,-2.3060509999999996,-0.07559199999999999,0.065933,0.08998099999999999
843,8.43,2.633102,-4.430798,-2.24545,-0.189575,0.028641000000000003,0.031387
844,8.44,2.0879950000000003,-3.469813,-2.100019,-0.29504400000000003,0.021194,-0.018677000000000003
845,8.45,1.613813,-2.494128,-1.80377,-0.389847,0.036101999999999995,-0.052765
846,8.46,1.1197709999999998,-1.613281,-1.487878,-0.453766,0.052078,-0.079407
847,8.47,0.857067,-0.8667520000000001,-1.172474,-0.468674,0.069122,-0.103897
848,8.48,0.65085,-0.22682,-0.8931209999999999,-0.41435200000000005,0.080841,-0.139053
849,8.49,0.380185,0.305492,-0.690893,-0.302505,0.096817,-0.182724
850,8.5,0.154538,0.8023020000000001,-0.787537,-0.156555,0.12239100000000001,-0.21255500000000002
851,8.51,0.014653,1.1779879999999998,-0.983627,-0.013809000000000002,0.162872,-0.21788000000000002
852,8.52,-0.097789,1.2899129999999999,-1.140252,0.085251,0.20654299999999998,-0.198715
853,8.53,-0.250281,1.525842,-1.205052,0.133194,0.259811,-0.162491
854,8.54,-0.55466,1.967671,-1.289877,0.14491300000000001,0.312012,-0.136917
855,8.55,-0.848999,2.421535,-1.4474850000000001,0.133194,0.364212,-0.107101
856,8.56,-0.941083,2.808843,-1.376479,0.095917,0.42599499999999996,-0.07194500000000001
857,8.57,-0.635556,3.03183,-1.1713209999999998,0.056503,0.511215,-0.0336
858,8.58,-0.08031900000000003,3.190649,-1.040857,0.017075,0.5932310000000001,0.012206999999999999
859,8.59,0.808422,3.264549,-1.118673,-0.021271,0.643311,0.076126
860,8.6,1.696034,3.4548419999999997,-1.315597,-0.03511,0.6465,0.133652
861,8.61,2.008797,3.5583669999999996,-1.547212,-0.012741000000000002,0.608154,0.169876
862,8.62,1.625982,3.5601760000000002,-1.255539,0.054367,0.546371,0.162415
863,8.63,0.913134,3.775701,-1.099025,0.14491300000000001,0.5655359999999999,0.11660799999999999
864,8.64,0.014469999999999985,4.075578,-1.382217,0.09697,0.6528930000000001,0.067612
865,8.65,0.4621980000000001,4.161127,-0.24871599999999994,-0.15975999999999999,0.5687409999999999,0.0495
866,8.66,1.119638,4.132671,2.198968,-0.339783,0.294968,0.056961000000000005
867,8.67,1.412209,3.6039550000000005,4.429369,-0.42926000000000003,0.097885,0.169876
868,8.68,1.6208690000000001,2.467788,6.590236,-0.540054,0.093628,0.39357
869,8.69,1.038873,1.27068,7.943636,-0.532593,0.174591,0.597046
870,8.7,0.156459,0.14056800000000005,7.4539729999999995,-0.275864,0.187378,0.719543
871,8.71,-1.121824,-0.9193469999999999,5.484083,0.09378100000000003,0.089371,0.744049
872,8.72,-1.6583599999999998,-1.549281,2.980196,0.373947,-0.038467,0.698242
873,8.73,-2.253471,-1.879044,1.322188,0.46235699999999996,-0.156708,0.548035
874,8.74,-3.2281,-1.7168880000000002,0.619268,0.375015,-0.182281,0.35096700000000003
875,8.75,-3.912196,-1.137162,0.576124,0.203506,-0.087463,0.156021
876,8.76,-3.840386,-0.2734619999999999,0.6306430000000001,0.013884999999999995,0.130905,-0.013351000000000002
877,8.77,-2.871213,0.259398,0.594966,-0.164017,0.38763400000000003,-0.153961
878,8.78,-1.373569,0.509759,0.660939,-0.292908,0.576187,-0.29138200000000003
879,8.79,0.04152,0.638304,0.965194,-0.361084,0.6965640000000001,-0.382996
880,8.8,1.296282,0.44960500000000003,1.29644,-0.371735,0.747696,-0.43412799999999996
881,8.81,2.258523,0.23763300000000004,1.562015,-0.274796,0.724258,-0.44905100000000003
882,8.82,2.832785,-0.45109799999999994,1.22107,-0.058548,0.5335850000000001,-0.44265699999999997
883,8.83,2.893793,-1.078905,0.8193010000000001,0.08313000000000001,0.384445,-0.394714
884,8.84,2.534694,-1.933428,0.442184,0.188583,0.212936,-0.370224
885,8.85,1.9478080000000002,-2.709114,0.14210599999999998,0.259964,0.015868999999999994,-0.371277
886,8.86,0.883682,-3.492228,-0.07688199999999999,0.312164,-0.138596,-0.388321
887,8.87,-0.283017,-4.031604,-0.5324979999999999,0.337723,-0.234467,-0.408569
888,8.88,-1.26756,-4.529163,-0.956384,0.307892,-0.28880300000000003,-0.417084
889,8.89,-2.262238,-4.729277,-1.233791,0.22587600000000002,-0.33779899999999996,-0.40217600000000003
890,8.9,-2.959788,-4.585269,-1.31334,0.11828599999999999,-0.370834,-0.341461
891,8.91,-3.202912,-4.159289,-1.3610389999999999,0.026672,-0.40171799999999996,-0.264755
892,8.92,-3.009445,-3.51991,-1.352734,-0.051102,-0.412369,-0.17421
893,8.93,-2.412482,-2.721716,-1.205282,-0.10435499999999999,-0.412369,-0.084732
894,8.94,-1.5689959999999998,-2.012557,-0.9697889999999999,-0.12779200000000002,-0.394257,-0.032532
895,8.95,-0.810914,-1.4869290000000002,-0.77617,-0.12353499999999999,-0.381485,-0.014419999999999999
896,8.96,-0.15599100000000002,-1.1872770000000001,-0.67985,-0.108627,-0.39106799999999997,-0.02507
897,8.97,0.391665,-1.108945,-0.6529510000000001,-0.09477200000000001,-0.413437,-0.049576
898,8.98,0.748875,-0.9938809999999999,-0.7524350000000001,-0.078796,-0.44113199999999997,-0.064484
899,8.99,0.9517950000000001,-0.752625,-1.009155,-0.051102,-0.460312,-0.055969000000000005
900,9.0,0.9956879999999999,-0.303535,-1.482823,-0.006347999999999996,-0.47735600000000006,-0.019745
901,9.01,0.792445,0.073042,-2.024075,0.051163,-0.5082399999999999,0.034575999999999996
902,9.02,0.414067,0.47001000000000004,-2.418072,0.09697,-0.538071,0.091049
903,9.03,-0.08002200000000001,0.871027,-2.6158639999999997,0.104431,-0.5444640000000001,0.128326
904,9.04,-0.342456,1.235563,-2.48035,0.06715399999999999,-0.526352,0.13046300000000002
905,9.05,-0.643209,1.7869169999999999,-2.230008,0.011749000000000006,-0.501862,0.084656
906,9.06,-0.81411,2.224164,-1.817047,-0.048964999999999995,-0.48586999999999997,0.0186
907,9.07,-1.007374,2.7482029999999997,-1.348123,-0.07986499999999999,-0.5029140000000001,-0.042114
908,9.08,-1.445656,3.045321,-0.844037,-0.067078,-0.53595,-0.075134
909,9.09,-1.868082,3.281848,-0.43663599999999997,0.006423999999999999,-0.5444640000000001,-0.08046
910,9.1,-2.0537520000000002,3.293012,-0.355026,0.13533,-0.522095,-0.063416
911,9.11,-1.953055,3.2105509999999997,-0.45551,0.272751,-0.447525,-0.0336
912,9.12,-1.635999,2.763572,-0.908819,0.426147,-0.30159,0.016479
913,9.13,-1.5858709999999998,2.3314790000000003,-1.139284,0.506042,-0.24086,0.056961000000000005
914,9.14,-1.3087440000000001,2.278299,-1.27169,0.565689,-0.23980700000000002,0.08252000000000001
915,9.15,-0.89925,2.551901,-1.4808270000000001,0.49964899999999995,-0.258972,0.059082
916,9.16,-0.6461899999999999,2.51536,-0.70541,0.183258,-0.283478,0.038849
917,9.17,-1.171793,2.038456,1.658725,-0.17999300000000001,-0.33779899999999996,0.038849
918,9.18,-1.245476,1.485889,4.21035,-0.34510799999999997,-0.329285,-0.015488000000000004
919,9.19,-0.35279699999999997,0.749426,6.099969000000001,-0.381332,-0.24406399999999998,-0.137985
920,9.2,0.7373619999999999,0.13418999999999998,6.987282,-0.332321,-0.135406,-0.305237
921,9.21,1.14151,-0.031695999999999995,6.646864,-0.13525399999999999,-0.054443,-0.44905100000000003
922,9.22,1.6389060000000002,0.130682,5.24264,0.166214,0.010544,-0.472488
923,9.23,2.9909529999999998,0.217333,3.238559,0.419754,0.067001,-0.395782
924,9.24,4.620954,0.378724,1.5342069999999999,0.49751300000000004,0.077652,-0.294586
925,9.25,5.449052,0.203199,0.6616489999999999,0.399506,0.002014000000000002,-0.202972
926,9.26,5.338382,-0.033681000000000016,0.061473,0.175812,-0.202515,-0.12200899999999999
927,9.27,3.8795089999999997,-0.123823,-0.24785900000000002,-0.100098,-0.52742,-0.044250000000000005
928,9.28,1.8435970000000002,-0.062442,-0.28863,-0.318481,-0.811844,0.036713
929,9.29,-0.13286900000000013,0.16472000000000006,0.037319999999999985,-0.434586,-0.96524,0.11981199999999999
930,9.3,-1.532834,0.14501,0.636739,-0.45057700000000006,-0.9567260000000001,0.169876
931,9.31,-2.359773,0.192662,1.301497,-0.41328400000000004,-0.825699,0.201828
932,9.32,-2.772365,0.051381,1.919223,-0.32913200000000004,-0.6477970000000001,0.201828
933,9.33,-2.980412,-0.358377,2.133866,-0.199173,-0.43048100000000006,0.193314
934,9.34,-3.028645,-0.787191,1.9217540000000002,-0.059615999999999995,-0.22701999999999997,0.197571
935,9.35,-2.6419099999999998,-1.458476,1.387364,0.066086,-0.012894000000000004,0.199707
936,9.36,-1.9770130000000001,-2.207411,0.672715,0.153442,0.15115399999999998,0.20715300000000003
937,9.37,-0.8512139999999999,-2.884609,-0.07717299999999999,0.19072,0.263,0.21887199999999998
938,9.38,0.120475,-3.3897779999999997,-0.753564,0.181137,0.32373,0.21141100000000002
939,9.39,0.967143,-3.734743,-1.1591790000000002,0.126801,0.369537,0.225266
940,9.4,1.6606849999999997,-4.014309,-1.2948469999999999,0.075668,0.385513,0.234848
941,9.41,2.0444,-4.085891999999999,-1.29441,0.030930000000000003,0.386581,0.234848
942,9.42,2.3109290000000002,-3.819143,-1.27237,-0.017013999999999998,0.364212,0.214615
943,9.43,2.2668779999999997,-3.413847,-1.165793,-0.057479999999999996,0.315201,0.163483
944,9.44,1.9461380000000001,-2.936186,-1.143707,-0.093704,0.266205,0.105957
945,9.45,1.621844,-2.492671,-0.906314,-0.129929,0.235306,0.055893
946,9.46,1.259845,-1.9735479999999999,-0.769912,-0.142715,0.21186799999999997,0.032455
947,9.47,1.084804,-1.628976,-0.660558,-0.13525399999999999,0.18524200000000002,0.00795
948,9.48,0.953324,-1.465945,-0.6537229999999999,-0.097961,0.15329,-0.021881
949,9.49,0.8818379999999999,-1.32538,-0.82639,-0.040436,0.13410899999999998,-0.055969000000000005
950,9.5,0.775207,-1.221676,-1.104598,0.027739999999999997,0.136246,-0.084732
951,9.51,0.601136,-1.073569,-1.466252,0.092712,0.166061,-0.109222
952,9.52,0.40463499999999997,-0.866504,-1.894453,0.126801,0.204422,-0.12521400000000002
953,9.53,0.272596,-0.616302,-2.02582,0.111893,0.251282,-0.124146
954,9.54,0.222689,-0.298118,-1.785609,0.06501799999999999,0.301361,-0.12521400000000002
955,9.55,0.173237,0.273188,-1.510702,0.017075,0.341827,-0.14119
956,9.56,-0.184453,0.95829,-1.230869,-0.023392,0.378052,-0.162491
957,9.57,-0.704256,1.628234,-1.050219,-0.03511,0.42172200000000004,-0.17846700000000001
958,9.58,-0.893086,2.266698,-0.974909,-0.042572000000000006,0.498428,-0.171005
959,9.59,-0.5735560000000001,2.790737,-0.876135,-0.047897,0.590042,-0.13266
960,9.6,0.08254600000000001,3.2660810000000002,-0.732104,-0.048964999999999995,0.675262,-0.075134
961,9.61,0.941051,3.6250940000000003,-0.704195,-0.013809000000000005,0.7061609999999999,-0.012283000000000002
962,9.62,1.406768,3.784003,-0.631214,0.06076,0.653961,0.039917
963,9.63,1.337608,3.7672510000000003,-0.571284,0.192856,0.544235,0.074005
964,9.64,0.672029,3.7387919999999997,-0.363681,0.36648600000000003,0.449432,0.072937
965,9.65,-0.14024699999999998,3.8073980000000005,-0.420444,0.5294800000000001,0.478195,0.062286
966,9.66,-0.430634,4.015793,-0.6983090000000001,0.45491000000000004,0.514404,0.088913
967,9.67,0.549545,3.976211,0.773256,0.1577,0.371658,0.146439
968,9.68,0.710495,3.347897,3.388614,-0.050033999999999995,0.149017,0.24231
969,9.69,0.472195,2.48673,5.704804,-0.204498,0.108536,0.46813999999999995
970,9.7,0.423807,1.657413,7.140172,-0.316345,0.233185,0.730194
971,9.71,0.20769,0.8659319999999999,6.494141,-0.211945,0.299225,0.887863
972,9.72,-0.089428,-0.183908,4.610893,0.042647999999999985,0.18203699999999998,0.9144899999999999
973,9.73,-0.170977,-0.968725,2.439948,0.27807600000000005,-0.010773000000000005,0.8303379999999999
974,9.74,-0.31695100000000004,-1.3679370000000002,0.989228,0.330276,-0.19399999999999998,0.641785
975,9.75,-1.154031,-1.256082,0.78225,0.192856,-0.277084,0.406357
976,9.76,-2.0875790000000003,-0.824534,1.358115,0.004303,-0.21742199999999998,0.20076
977,9.77,-2.596001,-0.06855100000000003,1.9371169999999998,-0.12779200000000002,-0.037399,0.053757000000000006
978,9.78,-2.431444,0.787592,2.0363439999999997,-0.187454,0.20761100000000002,-0.049576
979,9.79,-1.86237,1.153535,1.8673380000000002,-0.194901,0.43983500000000003,-0.144379
980,9.8,-1.358646,1.185065,1.517016,-0.177856,0.643311,-0.22853099999999998
981,9.81,-0.6598350000000001,1.066337,1.273595,-0.16934200000000002,0.792435,-0.304169
982,9.82,-0.29112,0.720043,1.11066,-0.115005,0.848907,-0.35530100000000003
983,9.83,0.245288,0.411637,0.800059,-0.039383,0.813751,-0.387268
984,9.84,0.621537,-0.10459799999999997,0.5115770000000001,0.039458999999999994,0.684845,-0.380875
985,9.85,0.94635,-0.6720689999999999,0.32813600000000004,0.10336300000000001,0.525055,-0.348907
986,9.86,0.986507,-1.36176,0.166183,0.16514600000000002,0.345032,-0.313751
987,9.87,0.849657,-1.9176240000000002,0.032632999999999995,0.218414,0.16713,-0.297775
988,9.88,0.386223,-2.66121,-0.053913,0.26103200000000004,0.014800999999999996,-0.29138200000000003
989,9.89,-0.01678399999999999,-3.196924,-0.296809,0.285522,-0.10878000000000003,-0.30098
990,9.9,-0.5487529999999999,-3.783658,-0.5441739999999999,0.267426,-0.20144700000000001,-0.314819
991,9.91,-0.917385,-4.067666,-0.865394,0.20137,-0.273895,-0.313751
992,9.92,-1.002227,-4.047728,-1.077879,0.111893,-0.319702,-0.302048
993,9.93,-0.9987209999999999,-3.615353,-1.233425,0.017075,-0.346329,-0.260498
994,9.94,-0.858899,-3.114779,-1.1678879999999998,-0.056427,-0.350586,-0.208298
995,9.95,-0.718592,-2.558441,-1.039051,-0.087311,-0.336746,-0.162491
996,9.96,-0.624915,-1.989793,-0.7554960000000001,-0.087311,-0.322891,-0.12521400000000002
997,9.97,-0.506853,-1.601444,-0.558013,-0.067078,-0.304779,-0.098572
998,9.98,-0.37526,-1.416901,-0.453903,-0.028732,-0.29306,-0.09538300000000001
999,9.99,-0.33815500000000004,-1.345565,-0.523437,0.023468,-0.30052199999999996,-0.101776
1000,10.0,-0.116847,-1.46074,-0.872266,0.08099400000000001,-0.330353,-0.10282899999999999
1001,10.01,0.117521,-1.37778,-1.211465,0.137451,-0.40065,-0.09324600000000001
1002,10.02,0.176272,-1.2019,-1.555216,0.193909,-0.459244,-0.052765
1003,10.03,0.27873600000000004,-0.990081,-1.803859,0.247177,-0.4944,0.013275
1004,10.04,0.21637399999999998,-0.632347,-1.812373,0.269547,-0.5316770000000001,0.08038300000000001
1005,10.05,-0.135962,-0.319732,-1.519634,0.257828,-0.56897,0.12619
1006,10.06,-0.7215230000000001,0.27966599999999997,-1.164665,0.22267199999999998,-0.580688,0.157089
1007,10.07,-1.25711,0.8403940000000001,-0.942785,0.167282,-0.5423279999999999,0.160278
1008,10.08,-1.545607,1.34517,-0.9669559999999999,0.12573199999999998,-0.48800699999999997,0.14537
1009,10.09,-1.500523,1.679905,-1.004699,0.098038,-0.45178199999999996,0.124069
1010,10.1,-1.388167,1.9196400000000002,-0.9723700000000001,0.100174,-0.470963,0.08998099999999999
1011,10.11,-1.35734,2.283649,-0.837016,0.121475,-0.51358,0.059082
1012,10.12,-1.431224,2.6184979999999998,-0.530978,0.156631,-0.533813,0.035644999999999996
1013,10.13,-1.568337,2.9025990000000004,-0.021808999999999967,0.215225,-0.493332,0.024994
1014,10.14,-1.482206,2.825037,0.378352,0.31961100000000003,-0.397461,0.029251
1015,10.15,-1.6346829999999999,2.278461,0.38998,0.46875,-0.281342,0.047363
1016,10.16,-1.621063,1.820457,-0.003915000000000003,0.613632,-0.190796,0.055893
1017,10.17,-1.146765,1.8719240000000001,-0.68758,0.669022,-0.190796,0.034575999999999996
1018,10.18,-0.706341,2.1989959999999997,-0.8556590000000001,0.52095,-0.20997600000000002,-0.019745
1019,10.19,-1.036885,2.297364,0.09987999999999997,0.22374000000000002,-0.220627,-0.055969000000000005
1020,10.2,-1.743291,2.396197,1.997348,0.005371000000000001,-0.19399999999999998,-0.103897
1021,10.21,-1.42567,2.17065,3.7658769999999997,-0.11181600000000001,-0.02035500000000001,-0.227478
1022,10.22,-0.413976,1.901471,4.802716,-0.239655,0.18524200000000002,-0.396851
1023,10.23,-0.017870999999999998,1.545195,5.283964,-0.304626,0.255554,-0.547058
1024,10.24,0.689876,0.808424,5.2598400000000005,-0.186386,0.23211700000000002,-0.5992430000000001
1025,10.25,1.843937,0.134536,4.329615,0.08099400000000001,0.154343,-0.536392
1026,10.26,3.4440169999999997,-0.49458900000000006,2.9672959999999997,0.311096,0.090439,-0.393646
1027,10.27,4.550191000000001,-0.7829699999999999,1.798744,0.380341,-0.004379000000000001,-0.22215300000000002
1028,10.28,5.096598999999999,-0.644667,1.2858319999999999,0.297241,-0.160965,-0.054901000000000005
1029,10.29,4.92085,-0.17336700000000002,1.004959,0.133194,-0.394257,0.077194
1030,10.3,3.648864,0.191921,0.887287,-0.050033999999999995,-0.640335,0.152832
1031,10.31,1.9063150000000002,0.306032,0.8629620000000001,-0.200226,-0.80545,0.20503200000000002
1032,10.32,0.22555499999999984,0.417947,0.732306,-0.28118899999999997,-0.854462,0.229523
1033,10.33,-1.17949,0.47071899999999994,0.916464,-0.309952,-0.819305,0.23805199999999999
1034,10.34,-1.870577,0.548647,1.267702,-0.300369,-0.717041,0.232727
1035,10.35,-2.1314330000000004,0.5110239999999999,1.730387,-0.26414499999999996,-0.5966640000000001,0.229523
1036,10.36,-2.090252,0.28020700000000004,2.106578,-0.18212899999999999,-0.460312,0.22845500000000002
1037,10.37,-1.957152,-0.0021150000000000053,2.198865,-0.061752,-0.322891,0.248703
1038,10.38,-1.560002,-0.432775,1.974259,0.055435000000000005,-0.176956,0.281723
1039,10.39,-0.8995780000000001,-0.974741,1.5127950000000001,0.152374,-0.046981999999999996,0.30941799999999997
1040,10.4,-0.11121199999999998,-1.518749,0.927212,0.21202100000000002,0.056351,0.301971
1041,10.41,0.646091,-1.9203150000000002,0.242524,0.23652600000000001,0.11492899999999999,0.26254299999999997
1042,10.42,1.143149,-2.400288,-0.373977,0.221619,0.147949,0.24231
1043,10.43,1.581025,-2.69875,-0.765271,0.183258,0.14476,0.20929
1044,10.44,1.7243439999999999,-2.748079,-1.023313,0.13533,0.124527,0.169876
1045,10.45,1.767614,-2.623606,-1.074722,0.079926,0.098953,0.11660799999999999
1046,10.46,1.765764,-2.3664169999999998,-0.9565030000000001,0.023468,0.069122,0.051620000000000006
1047,10.47,1.569277,-2.021086,-0.736618,-0.025528,0.043564,-0.016556
1048,10.48,1.349492,-1.5998700000000001,-0.595863,-0.059615999999999995,0.029708999999999996,-0.070877
1049,10.49,1.110862,-1.216434,-0.408952,-0.09902999999999999,0.015869,-0.112427
1050,10.5,0.985326,-0.774005,-0.143819,-0.11821,0.009476,-0.143311
1051,10.51,1.006677,-0.43486400000000003,0.052940999999999995,-0.09584,0.010544,-0.16888399999999998
1052,10.52,0.922417,-0.192455,0.14877100000000001,-0.02446,0.007339,-0.205109
1053,10.53,0.790567,0.007769999999999998,0.068249,0.073547,-0.0033109999999999997,-0.243454
1054,10.54,0.651216,0.075583,-0.174403,0.170486,-0.007568000000000001,-0.284988
1055,10.55,0.46738100000000005,0.108301,-0.392592,0.23971599999999998,-0.024612000000000002,-0.327606
1056,10.56,0.391075,0.086028,-0.45239399999999996,0.27807600000000005,-0.036331,-0.354233
1057,10.57,0.337802,0.034039,-0.361122,0.297241,-0.019287000000000002,-0.357437
1058,10.58,0.31947,-0.026113000000000004,-0.158606,0.30896,0.031845,-0.33718899999999996
1059,10.59,0.314112,-0.06993400000000001,0.044569999999999985,0.326004,0.098953,-0.307373
1060,10.6,0.339964,-0.105275,0.094736,0.335602,0.162872,-0.282867
1061,10.61,0.239644,-0.12013800000000001,0.117569,0.327072,0.225723,-0.245575
1062,10.62,0.392337,-0.204906,-0.0077030000000000015,0.31749,0.289642,-0.201904
1063,10.63,0.37776,-0.356921,-0.251265,0.306839,0.319458,-0.16355899999999998
1064,10.64,0.329524,-0.463192,-0.5874090000000001,0.290848,0.318405,-0.116684
1065,10.65,0.42441599999999996,-0.46943999999999997,-0.916107,0.249313,0.30455,-0.07406599999999999
1066,10.66,0.387631,-0.330517,-1.166018,0.186462,0.268326,-0.0336
1067,10.67,0.34234899999999996,-0.097528,-1.181019,0.114014,0.24809299999999998,0.002625000000000001
1068,10.68,0.174872,0.226307,-0.918115,0.036255,0.257675,0.028198
1069,10.69,-0.055736000000000015,0.695732,-0.460242,-0.018066,0.300293,0.048431
1070,10.7,-0.6165189999999999,1.3552389999999999,-0.06017500000000001,-0.09690900000000001,0.361008,0.065475
1071,10.71,-1.341504,2.133253,0.457797,-0.276932,0.46859700000000004,0.118744
1072,10.72,-1.190248,2.895812,1.271777,-0.532593,0.5303800000000001,0.22100799999999998
1073,10.73,-0.614296,3.218172,2.47724,-0.671082,0.444107,0.35096700000000003
1074,10.74,-0.094252,3.166937,3.393532,-0.614624,0.34928899999999996,0.456421
1075,10.75,0.41484899999999997,2.63631,3.7829839999999995,-0.435654,0.33224499999999996,0.516083
1076,10.76,0.548243,1.7421650000000002,3.693508,-0.234314,0.355682,0.517151
1077,10.77,0.548751,0.772124,3.3510459999999997,-0.068146,0.42492700000000005,0.48092700000000005
1078,10.78,0.40322800000000003,-0.2542490000000001,2.9745169999999996,0.023468,0.546371,0.415955
1079,10.79,0.160124,-1.1106850000000001,2.692063,0.06395,0.708282,0.33605999999999997
1080,10.8,-0.046842000000000016,-1.8578709999999998,2.495794,0.076736,0.884048,0.24124099999999998
1081,10.81,-0.302404,-2.2881720000000003,2.081131,0.076736,1.033188,0.140045
1082,10.82,-0.5363479999999999,-2.470385,1.427293,0.057555999999999996,1.113083,0.045242000000000004
1083,10.83,-0.6483220000000001,-2.301727,0.6458250000000001,0.0021670000000000023,1.1098940000000002,-0.03678900000000001
1084,10.84,-0.664329,-1.9507299999999999,0.04094999999999999,-0.097961,1.014023,-0.097504
1085,10.85,-0.7384930000000001,-1.3818549999999998,-0.262259,-0.219406,0.8361209999999999,-0.13053900000000002
1086,10.86,-0.5993390000000001,-0.584869,-0.339253,-0.340851,0.602829,-0.12200899999999999
1087,10.87,-0.421412,0.2967679999999999,-0.036421000000000016,-0.436722,0.345032,-0.083664
1088,10.88,-0.252263,1.039199,0.598226,-0.477203,0.10641500000000001,-0.032532000000000005
1089,10.89,0.021565,1.562469,1.390128,-0.46228,-0.08427399999999999,0.0186
1090,10.9,0.122272,1.814688,2.081014,-0.405823,-0.20677199999999998,0.024994
1091,10.91,0.077763,1.7062080000000002,2.459755,-0.296112,-0.266434,0.002624999999999999
1092,10.92,-0.18497,1.5482719999999999,2.480819,-0.17040999999999998,-0.278152,-0.045319
1093,10.93,-0.38401,1.287139,2.212862,-0.059615999999999995,-0.237671,-0.11029100000000001
1094,10.94,-0.5665600000000001,0.888698,1.8829189999999998,0.030930000000000003,-0.15564,-0.175278
1095,10.95,-0.7528,0.450812,1.5427600000000001,0.101242,-0.057632,-0.22427399999999997
1096,10.96,-0.9071879999999999,-0.06395099999999998,1.186621,0.152374,0.042496,-0.255173
1097,10.97,-0.996508,-0.482548,0.761302,0.180069,0.11386099999999999,-0.256241
1098,10.98,-1.108733,-0.794971,0.365124,0.18219000000000002,0.152222,-0.245575
1099,10.99,-1.245068,-1.066417,0.115745,0.156631,0.166061,-0.22427399999999997
1100,11.0,-1.32034,-1.191184,-0.05004499999999999,0.11615,0.150085,-0.190186
1101,11.01,-1.375991,-1.238283,-0.10241800000000001,0.068207,0.109604,-0.156097
1102,11.02,-1.305736,-1.150599,-0.116459,0.021347,0.057404,-0.12626600000000002
1103,11.03,-1.134228,-1.009699,-0.090817,-0.019135,-0.001174999999999999,-0.107101
1104,11.04,-0.929745,-0.8713799999999999,0.051571000000000006,-0.045776,-0.05658,-0.09538300000000001
1105,11.05,-0.782039,-0.7955,0.10595399999999999,-0.057479999999999996,-0.10131799999999999,-0.077271
1106,11.06,-0.594299,-0.802921,0.175878,-0.06601,-0.132202,-0.058089999999999996
1107,11.07,-0.404777,-0.7070770000000001,0.26232,-0.061752,-0.14819300000000002,-0.026137999999999998
1108,11.08,-0.230404,-0.615835,0.318754,-0.053223,-0.156708,0.00795
1109,11.09,-0.11243,-0.522787,0.32616100000000003,-0.030853,-0.15457200000000001,0.042038
1110,11.1,-0.040644,-0.464305,0.38864099999999996,-0.013809,-0.139664,0.071869
1111,11.11,-0.08203200000000001,-0.37096999999999997,0.53708,0.005371,-0.119431,0.096375
1112,11.12,-0.29451900000000003,-0.30612,0.755744,0.022415,-0.106644,0.10809300000000001
1113,11.13,-0.606122,-0.215932,0.9404319999999999,0.04158,-0.10450699999999999,0.113419
1114,11.14,-0.9479299999999999,-0.15243099999999998,1.222652,0.06715399999999999,-0.10025,0.110214
1115,11.15,-1.2723010000000001,-0.068271,1.334357,0.08845499999999999,-0.092789,0.099564
1116,11.16,-1.514877,0.05806399999999999,1.3625040000000002,0.09378099999999999,-0.087463,0.091049
1117,11.17,-1.7888,0.34715100000000004,1.236768,0.09697,-0.095993,0.088913
1118,11.18,-1.828613,0.654574,1.048565,0.114014,-0.097061,0.1017
1119,11.19,-1.452367,0.917259,0.813894,0.151306,-0.069351,0.12086500000000001
1120,11.2,-0.817574,1.097117,0.443047,0.19072,-0.033142000000000005,0.13046300000000002
1121,11.21,-0.10961900000000008,1.121078,0.20520100000000002,0.20776399999999998,-0.003311,0.12619
1122,11.22,0.48523299999999997,1.122354,0.2273,0.21202100000000002,0.02652,0.11981199999999999
1123,11.23,1.028435,1.139821,0.353261,0.22480799999999998,0.054214,0.105957
1124,11.24,1.338871,1.137477,0.544938,0.250381,0.089371,0.08570900000000001
1125,11.25,1.4277950000000001,1.009595,0.634053,0.286591,0.121323,0.047363
1126,11.26,1.018934,0.62702,0.608831,0.304703,0.13304100000000002,0.005829000000000001
1127,11.27,0.49186899999999995,0.236619,0.501728,0.314285,0.11386099999999999,-0.0336
1128,11.28,-0.263867,-0.231413,0.310631,0.311096,0.100021,-0.062363
1129,11.29,-0.8412129999999999,-0.5444680000000001,0.07118300000000001,0.281265,0.10321,-0.08046
1130,11.3,-1.2263879999999998,-0.672433,-0.10317,0.24504099999999998,0.11280799999999999,-0.092178
1131,11.31,-1.346344,-0.8805620000000001,-0.195376,0.204575,0.131973,-0.09111
1132,11.32,-1.333102,-1.101596,-0.159577,0.159821,0.14476,-0.083664
1133,11.33,-0.971233,-1.2460639999999998,-0.094173,0.114014,0.147949,-0.062363
1134,11.34,-0.551904,-1.4020290000000002,-0.036299,0.071411,0.130905,-0.034652999999999996
1135,11.35,-0.08042300000000001,-1.4619719999999998,0.07256599999999999,0.027739999999999997,0.102158,-0.005889999999999998
1136,11.36,0.40952,-1.4230770000000001,0.17345,-0.020203,0.072327,0.024993999999999995
1137,11.37,0.862657,-1.305325,0.255458,-0.069199,0.032913,0.0495
1138,11.38,1.2012049999999999,-1.039009,0.323919,-0.10968,-0.005447,0.061217999999999995
1139,11.39,1.35467,-0.7086279999999999,0.386436,-0.148041,-0.04805000000000001,0.059082
1140,11.4,1.261594,-0.37056300000000003,0.472763,-0.17999300000000001,-0.087463,0.054825
1141,11.41,1.019762,-0.008051000000000003,0.513995,-0.200226,-0.121552,0.044174
1142,11.42,0.771995,0.327366,0.6432439999999999,-0.204498,-0.159912,0.035644999999999996
1143,11.43,0.504447,0.577092,0.814055,-0.185318,-0.179077,0.029251
1144,11.44,0.28968499999999997,0.6863060000000001,0.960491,-0.142715,-0.185471,0.021805
1145,11.45,0.11291300000000001,0.697623,1.014774,-0.089447,-0.182281,0.017532
1146,11.46,-0.047145,0.61964,0.976316,-0.036179,-0.17482,0.009018
1147,11.47,-0.17385499999999998,0.496192,0.787133,0.005370999999999999,-0.169495,0.001556
1148,11.48,-0.202762,0.345493,0.5583640000000001,0.031998,-0.16629000000000002,-0.004836999999999999
1149,11.49,-0.186401,0.214759,0.273354,0.045837,-0.165237,-0.006958
1150,11.5,-0.10282000000000001,0.09153,-0.01269300000000001,0.043716000000000005,-0.164169,-0.010162000000000001
1151,11.51,0.048957,-0.058734,-0.13785899999999998,0.018143,-0.163101,-0.013350999999999998
1152,11.52,0.10704300000000001,-0.188161,-0.145305,-0.015944999999999997,-0.160965,-0.01123
1153,11.53,0.249266,-0.18984700000000002,-0.059695000000000005,-0.045776,-0.163101,-0.013350999999999998
1154,11.54,0.352407,-0.23022800000000002,0.038926999999999996,-0.064941,-0.172684,-0.014419999999999999
1155,11.55,0.433835,-0.252477,0.100145,-0.069199,-0.190796,-0.014419999999999999
1156,11.56,0.453182,-0.183945,0.097095,-0.061752,-0.22169499999999998,-0.014419999999999999
1157,11.57,0.389972,-0.097075,0.091013,-0.054291,-0.256851,-0.014419999999999999
1158,11.58,0.321088,0.015793,0.047994,-0.046829,-0.28241,-0.012283
1159,11.59,0.273457,0.12294400000000001,0.098213,-0.03299,-0.305847,-0.010162000000000001
1160,11.6,0.272936,0.218962,0.11265599999999999,-0.009552,-0.314362,-0.00589
1161,11.61,0.25450900000000004,0.263789,0.058815,0.011748999999999999,-0.316498,-0.009094
1162,11.62,0.21218800000000002,0.284513,0.051084,0.026672,-0.305847,-0.009094
1163,11.63,0.22296799999999997,0.26808000000000004,0.026826999999999997,0.04158,-0.294128,-0.012283
1164,11.64,0.18035,0.21278699999999998,-0.0005680000000000008,0.056503,-0.281342,-0.015488
1165,11.65,0.09323,0.146221,-0.069103,0.059691999999999995,-0.26855500000000004,-0.016556
1166,11.66,0.07823200000000001,0.041026000000000014,-0.129842,0.056503,-0.26004,-0.017609
1167,11.67,-0.031007,-0.045943,-0.14512,0.046906,-0.24725300000000003,-0.017609
1168,11.68,-0.08615,-0.147573,-0.14494300000000002,0.033066000000000005,-0.23341399999999998,-0.017609
1169,11.69,-0.2092,-0.23569099999999998,-0.171037,0.021347,-0.21423299999999998,-0.015488
1170,11.7,-0.264292,-0.24648499999999998,-0.15792899999999999,0.010695999999999999,-0.198257,-0.016556
1171,11.71,-0.376294,-0.220176,-0.157818,3.1000000000000645e-05,-0.17588800000000002,-0.012283
1172,11.72,-0.42752700000000005,-0.199208,-0.127574,-0.010620000000000001,-0.157776,-0.005890000000000001
1173,11.73,-0.447644,-0.17591400000000001,-0.122449,-0.013809,-0.138596,-0.004837
1174,11.74,-0.38700300000000004,-0.100113,-0.104371,-0.017013999999999998,-0.12475599999999999,0.002625
1175,11.75,-0.329278,0.007756999999999999,-0.070681,-0.013809,-0.10878,0.006881999999999999
1176,11.76,-0.21224400000000002,0.080667,-0.067628,-0.007416,-0.097061,0.010086
1177,11.77,-0.101403,0.085832,-0.093828,-0.0010219999999999997,-0.086395,0.016479
1178,11.78,0.01496,0.09689199999999999,-0.086322,0.004303,-0.08001699999999999,0.017532
1179,11.79,0.08956900000000001,0.10550999999999999,-0.091626,0.00856,-0.071487,0.019669
1180,11.8,0.170258,0.08724,-0.11108,0.00856,-0.07041900000000001,0.016479
1181,11.81,0.217414,0.06364,-0.111329,0.00856,-0.066162,0.016479
1182,11.82,0.221833,-0.011865999999999998,-0.101191,0.004303,-0.066162,0.011154
1183,11.83,0.178589,-0.085977,-0.2133,3.1000000000000205e-05,-0.065094,0.011154
1184,11.84,0.11406500000000001,-0.10908,-0.193912,-0.008484,-0.073624,0.010086
1185,11.85,0.095363,-0.099763,-0.21056,-0.014877000000000001,-0.07788099999999999,0.013275
1186,11.86,0.15548800000000002,-0.049865,-0.170185,-0.026595999999999998,-0.082138,0.012206999999999999
1187,11.87,0.110832,-0.014905000000000003,-0.120047,-0.034058,-0.090668,0.00795
1188,11.88,0.082703,0.063571,-0.066075,-0.034058,-0.09385700000000001,0.002625
1189,11.89,0.058638,0.074961,-0.03876,-0.029785000000000002,-0.097061,0.000488
1190,11.9,0.09561499999999999,0.11732000000000001,-0.00042100000000000123,-0.018066,-0.095993,-0.0027010000000000003
1191,11.91,0.081924,0.059756,-0.0041140000000000005,-0.007416,-0.09385700000000001,-0.0027010000000000003
1192,11.92,0.146525,0.062614,-0.062051999999999996,-0.00209,-0.088531,-0.0027010000000000003
1193,11.93,0.135267,0.030218000000000002,-0.11933900000000001,0.002167,-0.085342,-0.0037689999999999998
1194,11.94,0.13325599999999999,-0.013481,-0.20696199999999998,0.001099,-0.086395,0.0015559999999999994
1195,11.95,0.134991,0.008676,-0.294026,-0.009552,-0.0896,0.004761
1196,11.96,0.201707,-0.024761000000000002,-0.234796,-0.018066,-0.094925,0.005829
1197,11.97,0.16231600000000002,0.0053289999999999995,-0.21981799999999999,-0.028732,-0.099182,0.006881999999999999
1198,11.98,0.139522,0.024363,-0.15745499999999998,-0.03511,-0.103439,0.006881999999999999
1199,11.99,0.021406,-0.003646,-0.07458300000000001,-0.041504,-0.099182,0.009018
1200,12.0,-0.014746,0.0074659999999999995,-0.07748300000000001,-0.040436,-0.094925,0.010086
1201,12.01,-0.067333,0.0047850000000000045,-0.113402,-0.040436,-0.0896,0.009018
1202,12.02,-0.083058,0.02068,-0.10736400000000001,-0.037247,-0.084274,0.010086
1203,12.03,-0.079614,0.021688,-0.14518699999999998,-0.040436,-0.073624,0.00795
1204,12.04,-0.051556,-0.006957999999999999,-0.139729,-0.040436,-0.065094,0.00795
1205,12.05,-0.08341,-0.013891000000000002,-0.15087799999999998,-0.046829,-0.053375,0.005829
1206,12.06,-0.099229,-0.039783,-0.126638,-0.048964999999999995,-0.038467,0.003693
1207,12.07,-0.131475,-0.126352,-0.12968,-0.055359000000000005,-0.023544,0.005829
1208,12.08,-0.138726,-0.120887,-0.16181099999999998,-0.061752,-0.016097999999999998,0.005829
1209,12.09,-0.15507,-0.120189,-0.137973,-0.068146,-0.0065,0.003693
1210,12.1,-0.172677,-0.094623,-0.161146,-0.07666,0.0009459999999999998,0.002625
1211,12.11,-0.157899,-0.055920000000000004,-0.122775,-0.078796,0.010544,0.001556
1212,12.12,-0.175172,-0.011813999999999998,-0.09612899999999999,-0.081985,0.024384,-0.0005650000000000001
1213,12.13,-0.189157,0.033893,-0.090838,-0.08519,0.038238999999999995,-0.0005650000000000001
1214,12.14,-0.192192,0.093865,-0.087109,-0.08519,0.059539999999999996,-0.004837
1215,12.15,-0.19325799999999999,0.06448999999999999,-0.094278,-0.086243,0.067001,0.0004880000000000006
1216,12.16,-0.150599,0.05805,-0.140998,-0.088379,0.071259,0.001556
1217,12.17,-0.11489,0.044752,-0.15303599999999998,-0.086243,0.069122,0.003693
1218,12.18,-0.10553,0.019162000000000002,-0.150969,-0.086243,0.069122,0.005829
1219,12.19,-0.025376,0.021002,-0.14207,-0.086243,0.06805399999999999,0.009018
1220,12.2,-0.005842,0.005958,-0.122269,-0.084122,0.07019,0.012206999999999999
1221,12.21,0.009446,-0.014391,-0.09150599999999999,-0.081985,0.069122,0.012206999999999999
1222,12.22,0.027035000000000003,0.021703999999999998,-0.08505599999999999,-0.080917,0.06805399999999999,0.010086
1223,12.23,0.008442,0.020065,-0.085359,-0.07772799999999999,0.067001,0.011154
1224,12.24,-0.021333,0.004749000000000001,-0.07363,-0.07772799999999999,0.062729,0.010086
1225,12.25,0.004052,0.009356,-0.045484,-0.07347100000000001,0.061676,0.00795
1226,12.26,-0.007562,-0.010981,-0.016755000000000003,-0.071335,0.059539999999999996,0.009018
1227,12.27,-0.006114999999999999,0.029275,-0.048708,-0.064941,0.060608,0.010086
1228,12.28,0.029084,0.039951,-0.037436000000000004,-0.059615999999999995,0.057404,0.005829
1229,12.29,0.015843,0.074525,-0.015841000000000008,-0.054291,0.057404,0.006881999999999999
1230,12.3,0.028836,0.104298,-0.05285700000000001,-0.051102,0.054214,0.00795
1231,12.31,0.005711000000000001,0.07156,-0.074675,-0.044708,0.052078,0.003693
1232,12.32,0.031786000000000016,0.075673,-0.08882000000000001,-0.038314999999999995,0.047820999999999995,0.001556
1233,12.33,0.031508999999999995,0.053413999999999996,-0.11384200000000001,-0.037247,0.045685,0.001556
1234,12.34,0.015486000000000002,0.0013570000000000006,-0.16658199999999998,-0.03511,0.040359,-0.0005650000000000001
1235,12.35,0.008679000000000001,-0.028877999999999997,-0.197829,-0.03511,0.038238999999999995,-0.0027010000000000003
1236,12.36,0.014891,-0.047727,-0.211106,-0.038314999999999995,0.031845,-0.001633
1237,12.37,0.008654,-0.025418,-0.175939,-0.040436,0.029708999999999996,-0.001633
1238,12.38,0.025082,-0.024685,-0.134939,-0.042572000000000006,0.023315,-0.00589
1239,12.39,0.063662,-0.012797,-0.11346400000000001,-0.041504,0.019058000000000002,-0.0037689999999999998
1240,12.4,0.069107,0.022749000000000002,-0.10546300000000002,-0.040436,0.011597,-0.004837
1241,12.41,0.080862,0.025162,-0.09991599999999999,-0.039383,0.007339,-0.00589
1242,12.42,0.083463,-0.01815100000000001,-0.086156,-0.039383,0.0009459999999999998,-0.0037689999999999998
1243,12.43,0.077158,0.038492,-0.11174500000000001,-0.039383,-0.005447,-0.0037689999999999998
1244,12.44,0.07775900000000001,0.01901,-0.087962,-0.040436,-0.018219,-0.001633
1245,12.45,0.086724,0.032027,-0.069523,-0.037247,-0.021422999999999998,0.000488
1246,12.46,0.083253,0.021769999999999998,-0.090651,-0.040436,-0.033142000000000005,0.001556
1247,12.47,0.096748,0.025297999999999998,-0.065361,-0.039383,-0.037399,0.004761
1248,12.48,0.09905900000000001,0.010221,-0.032068,-0.040436,-0.042725,0.002625
1249,12.49,0.088509,0.022631000000000002,-0.043882,-0.04364,-0.044861,0.003693
1250,12.5,0.11661500000000001,0.03607,-0.046468,-0.044708,-0.044861,0.003693
1251,12.51,0.06738,0.019331,0.013772,-0.042572000000000006,-0.04805,0.001556
1252,12.52,0.07873,0.034845999999999995,-0.014922999999999999,-0.04364,-0.04805,0.002625
1253,12.53,0.049291,0.011545,-0.010438,-0.039383,-0.04805,0.001556
1254,12.54,0.048001999999999996,-0.00604,0.009373999999999999,-0.034058,-0.052307000000000006,0.001556
1255,12.55,0.010647,-0.013394999999999999,-0.016066999999999998,-0.026595999999999998,-0.051253999999999994,0.002625
1256,12.56,0.015058000000000002,0.024795000000000005,-0.06952699999999999,-0.021271,-0.052307000000000006,0.002625
1257,12.57,0.022393,-0.01402,-0.071637,-0.020203,-0.054443,0.002625
1258,12.58,-0.0076040000000000005,0.003908,-0.08275199999999999,-0.018066,-0.049118,0.002625
1259,12.59,0.001674,0.020441,-0.098824,-0.019135,-0.051253999999999994,0.003693
1260,12.6,-0.02366,0.009086,-0.074499,-0.015944999999999997,-0.046981999999999996,0.003693
1261,12.61,-0.011109,-0.014692000000000004,-0.11749000000000001,-0.018066,-0.043793,0.003693
1262,12.62,-0.0030939999999999995,0.013452,-0.112122,-0.019135,-0.038467,0.002625
1263,12.63,-0.002222,0.004688,-0.04514,-0.023392,-0.035263,-0.0016329999999999995
1264,12.64,-0.026289999999999997,-0.013483000000000002,-0.096282,-0.022338999999999998,-0.029938,-0.0005650000000000001
1265,12.65,-0.004008000000000001,-0.031355,-0.058339,-0.025528,-0.027817,-0.001633
1266,12.66,-0.033049,-0.022319,-0.043532,-0.025528,-0.031006,-0.0005650000000000001
1267,12.67,-0.014995,-0.00936,-0.069237,-0.030853,-0.034210000000000004,0.000488
1268,12.68,-0.010921,-0.030905,-0.084101,-0.028732,-0.039536,0.002625
1269,12.69,0.017619,-0.02217,-0.08178200000000001,-0.031921,-0.043793,0.002625
1270,12.7,0.01403,-0.011538,-0.049895999999999996,-0.029785000000000002,-0.045929000000000005,0.001556
1271,12.71,0.033135000000000005,0.0020230000000000005,-0.059878999999999995,-0.027663999999999998,-0.043793,0.000488
1272,12.72,0.019697,-0.021893,-0.065402,-0.025528,-0.041656,0.001556
1273,12.73,-0.006666999999999999,-0.013078,-0.102974,-0.025528,-0.042725,0.001556
1274,12.74,0.010747,-0.017225999999999998,-0.08390700000000001,-0.028732,-0.041656,0.001556
1275,12.75,0.027993,0.048176,-0.027022000000000004,-0.029785000000000002,-0.042725,0.001556
1276,12.76,0.040516,0.049523000000000005,0.003695,-0.027663999999999998,-0.043793,0.003693
1277,12.77,0.067337,0.055968,0.08832199999999997,-0.020203,-0.044861,0.003693
1278,12.78,0.10257000000000001,0.039667,0.087495,-0.013809,-0.040588,0.000488
1279,12.79,0.051427,0.070009,0.070738,-0.010620000000000001,-0.040588,0.0004880000000000002
1280,12.8,0.046576,0.035872,0.017960000000000004,-0.010620000000000001,-0.042725,0.001556
1281,12.81,0.023284,0.024779,-0.012779,-0.013809,-0.04805,0.001556
1282,12.82,0.0010670000000000009,0.007881,0.011538,-0.013809,-0.054443,0.002625
1283,12.83,-0.015786,0.007886,0.0022330000000000006,-0.012740999999999999,-0.05658,0.003693
1284,12.84,-0.029106,-0.00023000000000000104,0.012116,-0.010620000000000001,-0.058700999999999996,0.00795
1285,12.85,-0.014962999999999999,-0.019783000000000002,0.010997,-0.009552,-0.059769,0.006881999999999999
1286,12.86,-0.047299,-0.013005000000000001,0.008416999999999997,-0.004227000000000001,-0.059769,0.005829
1287,12.87,0.015673999999999997,-0.044073,-0.024435,-0.0010220000000000001,-0.055511000000000005,0.005829
1288,12.88,-0.014036000000000002,-0.012074,-0.017433999999999998,0.001099,-0.054443,0.006881999999999999
1289,12.89,-0.018419,0.003243,-0.052082,3.1e-05,-0.055511000000000005,0.005829
1290,12.9,-0.003693,-0.014349999999999996,-0.023312,3.0999999999999995e-05,-0.054443,0.003693
1291,12.91,0.007888,0.025026000000000003,-0.035744,-0.004227000000000001,-0.054443,0.002625
1292,12.92,-0.003621000000000001,0.014556,-0.020023,-0.0010220000000000001,-0.052307000000000006,0.002625
1293,12.93,-0.005088,0.05436900000000001,0.004598999999999999,-0.003159,-0.050186,-0.0005650000000000001
1294,12.94,-0.035162,0.044765,0.009782,3.1000000000000205e-05,-0.045929000000000005,0.000488
1295,12.95,-0.018384,0.033484,-0.022295,0.001099,-0.043793,-0.001633
1296,12.96,0.004614,0.016986,-0.052220000000000016,0.002167,-0.039536,-0.004837
1297,12.97,-0.004547000000000002,8.299999999999974e-05,0.009986,0.003235,-0.039536,-0.0027010000000000003
1298,12.98,0.010957,-0.041962,0.002471000000000001,0.003235,-0.041656,-0.004837
1299,12.99,0.008463,-0.042036000000000004,-0.019621,0.004303,-0.038467,-0.004837
1300,13.0,0.010634999999999999,-0.057816,-0.055376999999999996,0.0010990000000000002,-0.040588,-0.0027010000000000003
1301,13.01,0.006822999999999999,-0.075305,-0.085316,0.002167,-0.041656,-0.0027010000000000003
1302,13.02,0.031827999999999995,-0.055995,-0.009459000000000002,0.001099,-0.044861,-0.001633
1303,13.03,-0.004344999999999997,-0.027402999999999997,0.014939,0.004303,-0.045929000000000005,-0.001633
1304,13.04,-0.033615000000000006,-0.032514,0.008671,0.006423999999999999,-0.043793,-0.0037689999999999998
1305,13.05,-0.033609,0.039423,0.015562999999999999,0.006423999999999999,-0.043793,-0.0037689999999999998
1306,13.06,-0.049785,0.021105000000000002,0.003872,0.005371,-0.039536,-0.0037689999999999998
1307,13.07,-0.048415,0.012966,-0.003191,0.005371,-0.042725,-0.0027010000000000003
1308,13.08,-0.046355,0.008662000000000001,-0.005510000000000001,0.004303,-0.041656,0.000488
1309,13.09,-0.032781,0.014445,0.01577,0.005371,-0.040588,-0.0005650000000000001
1310,13.1,-0.043987,-0.013819,-0.003771000000000004,0.005371,-0.041656,0.003693
1311,13.11,-0.039143,0.0029759999999999995,0.047541,0.005371,-0.038467,0.004761
1312,13.12,-0.024506,-0.041895999999999996,0.028513,0.007492,-0.034210000000000004,0.004761
1313,13.13,-0.037886,-0.019321,0.029602999999999997,0.005371,-0.029938,0.004761
1314,13.14,-0.057334,-0.040938999999999996,0.01024,0.00856,-0.024612000000000002,0.003693
1315,13.15,-0.022965,-0.021939,-0.016495,0.00856,-0.018219,0.004761
1316,13.16,-0.037101999999999996,-0.032893,-0.036833,0.006423999999999999,-0.016097999999999998,0.002625
1317,13.17,-0.050495,-0.048405000000000004,-0.039336,0.003235,-0.011840999999999999,0.002625
1318,13.18,-0.038167,-0.031616000000000005,-0.01121699999999999,3.0999999999999995e-05,-0.008636,0.002625
1319,13.19,-0.045006,-0.035445000000000004,-0.049882,3.0999999999999995e-05,-0.008636,0.003693
1320,13.2,-0.030721,-0.005398,-0.047979,-0.00209,-0.007568000000000001,0.001556
1321,13.21,-0.044657,-0.018218,-0.019606000000000002,-0.00209,-0.009705,0.003693
1322,13.22,-0.00014000000000000037,0.0028400000000000005,-0.065006,-0.00209,-0.012894,0.004761
1323,13.23,0.016569,0.014658999999999997,-0.047682,-0.003159,-0.016097999999999998,0.003693
1324,13.24,0.016971,0.003767,-0.064348,-0.004227000000000001,-0.018219,0.003693
1325,13.25,0.028574000000000002,-0.021744,-0.043078,-0.007416,-0.019287000000000002,0.004761
1326,13.26,0.023183000000000002,-0.007253,0.017588999999999997,-0.009552,-0.017166,0.005829
1327,13.27,0.017481,0.002874,-0.00351,-0.0063479999999999995,-0.016097999999999998,0.003693
1328,13.28,0.02496,-0.013062,0.008669,-0.0063479999999999995,-0.012894,0.003693
1329,13.29,-0.031346,-0.02199500000000001,-0.003905000000000001,-0.0063479999999999995,-0.012894,0.000488
1330,13.3,0.013941,0.005401,-0.009617999999999998,-0.008484,-0.009705,0.000488
1331,13.31,-0.0074649999999999985,-0.001183,-0.021311,-0.010620000000000001,-0.010773,-0.0005650000000000001
1332,13.32,-0.046694,0.014460999999999996,-0.008938,-0.010620000000000001,-0.005447,-0.001633
1333,13.33,-0.027805,0.0007099999999999997,-0.033347,-0.007416,-0.005447,-0.0037689999999999998
1334,13.34,-0.044726,-0.021872,-0.036112,-0.008484,-0.003311,-0.001633
1335,13.35,-0.063016,-0.029204,0.00183,-0.008484,0.002014,-0.001633
1336,13.36,-0.076049,-0.007481999999999999,-0.039694,-0.0063479999999999995,0.005219,-0.001633
1337,13.37,-0.028910000000000005,-0.025483000000000002,0.002741,-0.0063479999999999995,0.009476,-0.001633
1338,13.38,-0.057692999999999994,0.0021900000000000027,-0.004895,-0.007416000000000002,0.008408,-0.0027010000000000003
1339,13.39,-0.02515,0.027072000000000002,0.006661,-0.009552,0.008408,-0.0027010000000000003
1340,13.4,-0.011572,0.014497,-0.029439,-0.009552,0.008408,-0.001633
1341,13.41,-0.006823999999999997,0.037541000000000005,-0.0034659999999999995,-0.010620000000000001,0.0009459999999999998,-0.0027010000000000003
1342,13.42,-0.011982,0.080805,0.077443,-0.0031589999999999995,0.00415,-0.001633
1343,13.43,0.022548,0.061627999999999995,0.137767,0.004303,0.005219,-0.0005650000000000001
1344,13.44,0.011515,0.06865399999999999,0.051739,0.010695999999999999,0.009476,-0.0005650000000000001
1345,13.45,0.018463999999999998,0.035496,0.02226400000000001,0.014953999999999999,0.015869,0.000488
1346,13.46,0.016443,0.034152999999999996,-0.02039500000000001,0.017075,0.019058000000000002,0.002625
1347,13.47,0.003439,0.0031390000000000033,-0.009740999999999994,0.020279,0.020125999999999998,-0.0005650000000000001
1348,13.48,0.0025249999999999995,-0.01059,-0.092596,0.018143,0.015869,0.000488
1349,13.49,-0.020221,-0.044338,-0.10378399999999999,0.013885,0.011597,0.002625
1350,13.5,-0.002443,-0.039968000000000004,-0.147048,0.011748999999999999,0.009476,0.002625
1351,13.51,-0.006288,-0.022340000000000002,-0.164393,0.007492,0.006271,0.003693
1352,13.52,0.017011000000000002,-0.003501999999999998,-0.159883,0.005371,0.003082,0.004761
1353,13.53,0.026923,0.0022899999999999986,-0.13902899999999999,0.005371,-0.001175,0.005829
1354,13.54,0.025307,0.007604999999999998,-0.13259300000000002,0.005371,-0.0065,0.005829
1355,13.55,0.035975,0.026482,-0.11426099999999999,0.003235,-0.008636,0.005829
1356,13.56,0.045344,0.047154,-0.075077,0.004303,-0.011840999999999999,0.006881999999999999
1357,13.57,0.027833,0.016878,-0.046965,0.005371,-0.011840999999999999,0.006881999999999999
1358,13.58,0.02517,0.032707,-0.002717000000000001,0.004303,-0.012894,0.00795
1359,13.59,0.012991999999999998,0.021481999999999998,0.011660999999999998,0.005371,-0.009705,0.005829
1360,13.6,0.020031999999999998,0.011594,0.028380000000000002,0.005371,-0.007568000000000001,0.002625
1361,13.61,0.010201,0.005361000000000001,0.020383000000000002,0.007492,-0.007568000000000001,0.004761
1362,13.62,0.01828,-0.01856,0.035091000000000004,0.00856,-0.0022429999999999998,0.006881999999999999
1363,13.63,-0.0007280000000000002,0.0022719999999999997,0.036955,0.009628,0.000946,0.004761
1364,13.64,-0.016469,-0.022225,0.021384,0.009628,0.00415,0.004761
1365,13.65,-0.052363,-0.019408,0.00031899999999999984,0.007492,0.006271,0.003693
1366,13.66,-0.05312000000000001,-0.049969,-0.046568,0.002167,0.00415,0.005829
1367,13.67,-0.016738999999999997,-0.011916,-0.023484,-0.00209,0.003082,0.004761
1368,13.68,-0.029925999999999998,-0.029996,-0.032343000000000004,-0.003159,0.0009460000000000001,0.004761
1369,13.69,-0.026479000000000003,-0.014784,0.008697999999999997,-0.003159,-0.000122,0.005829
1370,13.7,-0.003365,-0.012229,0.026057999999999998,-0.00209,-0.001175,0.002625
1371,13.71,0.002003,0.010957999999999999,0.051914,3.1000000000000205e-05,-0.0022429999999999998,0.004761
1372,13.72,0.048704000000000004,0.051681999999999985,0.043052999999999994,0.003235,-0.003311,0.004761
1373,13.73,0.0306,0.007734999999999997,0.05154299999999999,0.003235,-0.007568000000000001,0.003693
