,ts,ax,ay,az,wx,wy,wz
0,0.0,-0.017049,-0.021189,-0.075794,-0.0010529999999999997,0.012405,0.000763
1,0.01,0.027094999999999998,-0.024267,-0.141965,-0.003189,0.010284,0.005035
2,0.02,0.032106,-0.030911,-0.11842899999999999,-0.009583,0.004959000000000001,0.005035
3,0.03,0.024439,0.006433,-0.050898,-0.014908000000000001,0.0070799999999999995,0.006104
4,0.04,0.034642,0.055107,0.006286999999999999,-0.022369,0.011337,0.006104
5,0.05,-0.022371000000000002,0.044213999999999996,0.076182,-0.020233,0.012405,0.001831
6,0.06,0.01083,0.040465,0.1501,-0.014908000000000001,0.013474000000000002,0.002899
7,0.07,0.022571,0.036295999999999995,0.12626600000000002,-0.010651,0.012405,-0.002426
8,0.08,0.012185,-0.01155,0.053925,-0.011719,0.011337,-0.00029000000000000016
9,0.09,0.011979,-0.059333000000000004,0.040043,-0.011719,0.008148,-0.00029000000000000016
10,0.1,0.00532,-0.07269099999999999,-0.0050420000000000005,-0.01384,0.006012,-0.0013579999999999998
11,0.11,-0.004634,-0.063549,0.007075,-0.018097,0.004959000000000001,-0.002426
12,0.12,-0.016156999999999998,-0.025183,0.003053,-0.019165,0.0038909999999999995,-0.002426
13,0.13,-0.0010170000000000003,-0.040175999999999996,-0.051519,-0.021301,0.0038909999999999995,-0.0013579999999999998
14,0.14,-0.017457,0.02059,-0.047117,-0.025558,0.001755,-0.001358
15,0.15,0.008535,0.048862,-0.077815,-0.025558,0.004959000000000001,-0.0034939999999999997
16,0.16,0.009184999999999999,0.056046000000000006,-0.118176,-0.027694999999999997,0.008148,-0.002426
17,0.17,0.024585,0.047182,-0.150049,-0.027694999999999997,0.010284,-0.003494
18,0.18,-0.013209999999999998,-0.051996,-0.145714,-0.037277,0.013474000000000002,-0.005615
19,0.19,-0.043851999999999995,-0.11773199999999999,-0.088797,-0.047928,0.011337,-0.005615
20,0.2,-0.077562,-0.184701,-0.055553,-0.053252999999999995,0.006012,-0.005615
21,0.21,-0.11183299999999999,-0.227385,0.047599,-0.053252999999999995,0.004959000000000001,-0.005615
22,0.22,-0.134001,-0.106045,0.12237,-0.053252999999999995,0.012405,-0.002426
23,0.23,-0.196701,0.073823,0.158675,-0.053252999999999995,0.027327999999999998,-0.002426
24,0.24,-0.159389,0.159558,0.272692,-0.063904,0.039047000000000005,-0.004562
25,0.25,-0.056938,0.157079,0.44217,-0.060715,0.056090999999999995,-0.002426
26,0.26,0.008239999999999997,0.187227,0.482055,-0.053252999999999995,0.07206699999999999,-0.00882
27,0.27,0.057821000000000004,0.12876300000000002,0.300551,-0.038345,0.074188,-0.012009
28,0.28,0.089013,0.116221,0.132222,-0.03302,0.063538,-0.012009
29,0.29,0.05585,0.047664,0.011192,-0.034088,0.050751,-0.015212999999999999
30,0.3,0.069026,-0.034318,-0.14942,-0.034088,0.044373,-0.017334
31,0.31,0.048202999999999996,-0.111534,-0.198185,-0.031952,0.0401,-0.017334
32,0.32,0.066115,-0.110481,-0.177181,-0.029816000000000002,0.035843,-0.020538
33,0.33,0.036967,-0.067526,-0.197786,-0.023422,0.031586,-0.021606
34,0.34,0.057913,-0.058159,-0.166073,-0.026626999999999998,0.027327999999999998,-0.020538
35,0.35,0.068912,-0.07269400000000001,-0.13361800000000001,-0.029816000000000002,0.025192,-0.024796000000000002
36,0.36,0.042474,-0.109964,-0.129733,-0.026626999999999998,0.026260000000000002,-0.026931999999999998
37,0.37,-0.044342,-0.12266500000000001,-0.099378,-0.02449,0.026260000000000002,-0.031188999999999998
38,0.38,-0.047925,-0.112042,-0.24911,-0.020233,0.029449,-0.031188999999999998
39,0.39,-0.051380999999999996,-0.102654,-0.284391,-0.022369,0.030518,-0.032257
40,0.4,-0.091369,-0.050949,-0.374152,-0.031952,0.024124,-0.036514
41,0.41,-0.10638399999999999,0.032811000000000014,-0.380499,-0.04686,0.012405,-0.040770999999999995
42,0.42,-0.129277,0.108418,-0.30341999999999997,-0.061783000000000005,-0.00038099999999999934,-0.054626
43,0.43,-0.082969,0.21053000000000002,-0.21824200000000002,-0.063904,0.010284,-0.070602
44,0.44,-0.074848,0.263262,-0.240123,-0.042602999999999995,0.030518,-0.084457
45,0.45,-0.223465,0.228039,-0.372085,-0.019165,0.041168,-0.09404
46,0.46,-0.259902,0.16427,-0.509807,0.0010680000000000004,0.026260000000000002,-0.091904
47,0.47,-0.254567,0.130076,-0.5897439999999999,-0.001053,-0.003571000000000001,-0.083389
48,0.48,-0.180996,0.11451300000000002,-0.51685,-0.015976,-0.037659,-0.078064
49,0.49,-0.103447,0.073891,-0.34262800000000004,-0.023422,-0.06323200000000001,-0.078064
50,0.5,-0.119629,-0.010887000000000008,-0.209207,-0.019165,-0.074936,-0.080185
51,0.51,-0.192968,-0.064959,-0.14659,-0.0031889999999999987,-0.07067899999999999,-0.08125299999999999
52,0.52,-0.250793,-0.18456199999999998,-0.281523,0.011719,-0.061096000000000004,-0.087646
53,0.53,-0.27979499999999996,-0.249505,-0.5713729999999999,0.015991,-0.050446,-0.09404
54,0.54,-0.364239,-0.26719699999999996,-0.796357,-0.005325,-0.048309,-0.099365
55,0.55,-0.41405600000000004,-0.182838,-0.996475,-0.035141000000000006,-0.065353,-0.103622
56,0.56,-0.421756,-0.128689,-0.9752219999999999,-0.070297,-0.086655,-0.10255399999999999
57,0.57,-0.43805299999999997,-0.09808099999999999,-0.778471,-0.10119600000000001,-0.10903900000000001,-0.10575899999999999
58,0.58,-0.473263,-0.119575,-0.5443640000000001,-0.11398299999999999,-0.11969,-0.107895
59,0.59,-0.52891,-0.21507300000000001,-0.41105200000000003,-0.10865799999999999,-0.120743,-0.103622
60,0.6,-0.56155,-0.3049,-0.380711,-0.10759,-0.112228,-0.09829700000000001
61,0.61,-0.6009869999999999,-0.320878,-0.393018,-0.10865799999999999,-0.097321,-0.090836
62,0.62,-0.587842,-0.314639,-0.40425900000000003,-0.117172,-0.077072,-0.083389
63,0.63,-0.614387,-0.249827,-0.41380500000000003,-0.127823,-0.060028,-0.07486
64,0.64,-0.6111770000000001,-0.145677,-0.412358,-0.136353,-0.038727,-0.069534
65,0.65,-0.654467,-0.083582,-0.44604499999999997,-0.14593499999999998,-0.022751,-0.064209
66,0.66,-0.670692,-0.07176,-0.437487,-0.152328,-0.009964,-0.059952
67,0.67,-0.634934,0.038625000000000013,-0.49230799999999997,-0.157654,-0.00038100000000000026,-0.061020000000000005
68,0.68,-0.624687,0.079993,-0.509796,-0.160843,0.006012,-0.065277
69,0.69,-0.595083,0.036422,-0.626306,-0.166168,0.006012,-0.066345
70,0.7,-0.440296,-0.07338099999999999,-0.668139,-0.185349,0.004959000000000001,-0.064209
71,0.71,-0.324264,-0.196576,-0.647515,-0.200256,0.0006870000000000001,-0.062088
72,0.72,-0.18823800000000002,-0.262033,-0.667694,-0.21092199999999997,0.001755,-0.053558
73,0.73,-0.172656,-0.231055,-0.724954,-0.219437,-0.007828,-0.050369
74,0.74,-0.21957100000000002,-0.12248599999999998,-0.755195,-0.22583000000000003,-0.009964,-0.054626
75,0.75,-0.326559,-0.027337,-0.727008,-0.234344,-0.018478,-0.065277
76,0.76,-0.445175,-0.034061,-0.627011,-0.236481,-0.027007999999999997,-0.068466
77,0.77,-0.565225,-0.10038899999999999,-0.607387,-0.23222399999999999,-0.037659,-0.066345
78,0.78,-0.651241,-0.23038499999999998,-0.551025,-0.229019,-0.040848,-0.054626
79,0.79,-0.650691,-0.24333600000000002,-0.45526300000000003,-0.229019,-0.03447,-0.039702999999999995
80,0.8,-0.582515,-0.26027,-0.443254,-0.223694,-0.022751,-0.023727
81,0.81,-0.6347,-0.167697,-0.376618,-0.216248,-0.021683,-0.010956
82,0.82,-0.6396470000000001,-0.12657100000000002,-0.344079,-0.20771799999999999,-0.024872,0.0028989999999999997
83,0.83,-0.7114729999999999,-0.0071179999999999985,-0.24067600000000003,-0.19813499999999998,-0.035522000000000005,0.014618
84,0.84,-0.704483,0.069129,-0.074798,-0.191742,-0.049377,0.029526
85,0.85,-0.642515,0.202046,0.040508999999999996,-0.181091,-0.048309,0.040192
86,0.86,-0.604178,0.309069,0.132004,-0.169373,-0.040848,0.055099
87,0.87,-0.54527,0.31617,0.13968,-0.153397,-0.033401,0.070007
88,0.88,-0.42316000000000004,0.211723,0.042204000000000005,-0.136353,-0.028076,0.087051
89,0.89,-0.274984,0.052702,-0.188531,-0.138474,-0.017426,0.106232
90,0.9,-0.137253,-0.089545,-0.320571,-0.15019200000000002,-0.018478,0.123276
91,0.91,0.014946,-0.043001,-0.41381899999999994,-0.157654,-0.028076,0.143509
92,0.92,0.099708,0.209713,-0.380012,-0.143799,-0.016357000000000003,0.162689
93,0.93,0.007101999999999997,0.502551,-0.32108200000000003,-0.11291500000000002,0.03158600000000001,0.177597
94,0.94,-0.052846000000000004,1.049197,-0.091658,-0.08522,0.12106300000000002,0.196777
95,0.95,-0.021869,1.111383,0.127577,-0.069229,0.15303,0.209564
96,0.96,0.072499,0.9806010000000001,0.210524,-0.059647000000000006,0.15303,0.22128299999999998
97,0.97,0.121849,0.547365,0.067584,-0.063904,0.130646,0.23406999999999997
98,0.98,0.28171399999999996,0.07308700000000001,-0.271629,-0.08201599999999999,0.102951,0.24897800000000003
99,0.99,0.5127550000000001,-0.589072,-0.536539,-0.128891,0.08590700000000001,0.261765
100,1.0,0.7584770000000001,-1.117672,-0.780542,-0.175766,0.083786,0.275604
101,1.01,0.982038,-1.109438,-1.038322,-0.200256,0.098694,0.281998
102,1.02,1.015822,-0.818475,-1.397071,-0.20559699999999997,0.12213099999999999,0.27880900000000003
103,1.03,0.8326979999999999,-0.4363480000000001,-1.7355150000000001,-0.20665,0.143433,0.266022
104,1.04,0.650199,-0.111872,-1.87122,-0.20239300000000002,0.162613,0.261765
105,1.05,0.667605,0.185605,-1.824473,-0.20239300000000002,0.18498199999999998,0.264954
106,1.06,0.735826,0.385106,-1.6677790000000001,-0.21304299999999998,0.21054099999999998,0.263885
107,1.07,0.826462,0.335069,-1.458291,-0.235413,0.21907,0.251114
108,1.08,0.778501,0.324648,-1.323042,-0.259918,0.19883699999999999,0.24472
109,1.09,0.861712,0.164573,-1.210274,-0.287613,0.170074,0.243652
110,1.1,0.971778,0.134924,-1.0676299999999999,-0.321701,0.134918,0.257492
111,1.11,1.066511,0.074771,-0.8884,-0.33981300000000003,0.108276,0.268158
112,1.12,1.150499,0.176373,-0.788408,-0.341949,0.096558,0.274536
113,1.13,1.1349120000000001,0.325656,-0.669736,-0.33874499999999996,0.097626,0.26921100000000003
114,1.14,1.019168,0.301257,-0.580244,-0.331284,0.10508699999999999,0.253235
115,1.15,0.9360629999999999,0.255121,-0.542647,-0.312119,0.10934400000000001,0.22447199999999998
116,1.16,0.811917,0.0038559999999999983,-0.537647,-0.289749,0.119995,0.20636
117,1.17,0.757203,-0.194636,-0.6462939999999999,-0.260986,0.139175,0.182922
118,1.18,0.605069,-0.34870300000000004,-0.889315,-0.246063,0.150894,0.162689
119,1.19,0.597133,-0.497838,-1.184273,-0.241806,0.163681,0.148834
120,1.2,0.47063599999999994,-0.695017,-1.39778,-0.264175,0.173264,0.133926
121,1.21,0.32319200000000003,-0.913149,-1.444178,-0.290817,0.174332,0.12114000000000001
122,1.22,0.111066,-1.028458,-1.418532,-0.315308,0.17219500000000001,0.1073
123,1.23,-0.06948700000000001,-1.0615729999999999,-1.306015,-0.328094,0.180725,0.097702
124,1.24,-0.198853,-0.9178209999999999,-1.297665,-0.31958000000000003,0.207352,0.08812
125,1.25,-0.44324600000000003,-0.722747,-1.36352,-0.297195,0.254227,0.07428
126,1.26,-0.627083,-0.519554,-1.458536,-0.276962,0.317078,0.05935700000000001
127,1.27,-0.759692,-0.404441,-1.54913,-0.260986,0.387375,0.041245
128,1.28,-0.688924,-0.405319,-1.597839,-0.236481,0.44703699999999996,0.027405000000000002
129,1.29,-0.5352319999999999,-0.575072,-1.7902220000000002,-0.211975,0.474731,0.012482
130,1.3,-0.309008,-0.710883,-1.9642400000000002,-0.185349,0.474731,-0.004562
131,1.31,-0.077122,-0.844944,-2.0453040000000002,-0.166168,0.46940600000000005,-0.019469999999999998
132,1.32,0.150738,-0.754953,-2.083725,-0.153397,0.476868,-0.032257
133,1.33,0.233197,-0.515027,-2.157507,-0.14060999999999998,0.497101,-0.052489999999999995
134,1.34,0.275846,-0.153024,-2.39106,-0.133148,0.513077,-0.07486
135,1.35,0.280386,0.31651,-2.647548,-0.144867,0.525864,-0.099365
136,1.36,0.33395,0.711086,-2.6716900000000003,-0.15019200000000002,0.5205380000000001,-0.121735
137,1.37,0.333335,1.087584,-2.556248,-0.142746,0.485382,-0.149429
138,1.38,0.397255,1.386072,-2.383384,-0.10865799999999999,0.44384799999999996,-0.169678
139,1.39,0.414497,1.532599,-2.195565,-0.063904,0.40869099999999997,-0.184586
140,1.4,0.39615900000000004,1.6862689999999998,-2.1290430000000002,-0.013839999999999995,0.388443,-0.20483400000000002
141,1.41,0.318527,1.586085,-2.080498,0.033035,0.385254,-0.22187800000000002
142,1.42,0.228821,1.467465,-2.096374,0.076706,0.43638599999999994,-0.244247
143,1.43,0.155064,1.400593,-2.321741,0.119324,0.526932,-0.250626
144,1.44,0.172449,1.5576459999999999,-2.6141490000000003,0.14913900000000002,0.617477,-0.2453
145,1.45,0.111768,2.192134,-2.870773,0.13209500000000002,0.651566,-0.209091
146,1.46,0.099311,2.99575,-3.086747,0.03196700000000001,0.653702,-0.139847
147,1.47,0.475162,3.3671290000000003,-2.981512,-0.23008699999999999,0.665421,-0.061020000000000005
148,1.48,1.3875620000000002,3.009932,-1.6361059999999998,-0.544342,0.6334529999999999,-0.046097000000000006
149,1.49,1.491636,2.3792560000000003,0.502404,-0.6455380000000001,0.429993,-0.057816
150,1.5,1.347785,1.2956290000000001,2.464614,-0.585892,0.231857,-0.040770999999999995
151,1.51,1.205394,0.42877200000000004,3.7845480000000005,-0.49853500000000006,0.141312,-0.029053
152,1.52,0.8883459999999999,0.23850700000000002,4.283275,-0.394135,0.19456500000000002,-0.041839999999999995
153,1.53,0.424371,0.42553199999999997,4.023911,-0.26310700000000004,0.321335,-0.061020000000000005
154,1.54,0.171454,0.45045100000000005,3.691388,-0.134216,0.461945,-0.09404
155,1.55,-0.220475,0.446932,3.3234209999999997,0.005340999999999999,0.606827,-0.152634
156,1.56,-0.513035,0.21391500000000002,2.669135,0.162994,0.758087,-0.217606
157,1.57,-0.875776,-0.0059929999999999975,1.622706,0.312134,0.8720700000000001,-0.29643200000000003
158,1.58,-1.198484,-0.086837,0.462584,0.42184399999999994,0.9232030000000001,-0.356094
159,1.59,-1.136829,-0.079677,-0.370299,0.47936999999999996,0.893387,-0.39018200000000003
160,1.6,-1.114958,-0.244031,-0.604876,0.49429300000000004,0.799637,-0.38911399999999996
161,1.61,-0.6518689999999999,-0.41518,-0.5605859999999999,0.500687,0.665421,-0.356094
162,1.62,-0.023787000000000003,-0.42290600000000006,-0.46929499999999996,0.527313,0.522675,-0.312424
163,1.63,0.212781,-0.378963,-0.627243,0.563538,0.395905,-0.26766999999999996
164,1.64,0.35995,-0.375983,-0.919472,0.577377,0.278717,-0.2453
165,1.65,0.353876,-0.330598,-0.904415,0.544357,0.21160900000000002,-0.25383
166,1.66,0.265472,-0.176832,-0.634911,0.48576400000000003,0.20842,-0.27833600000000003
167,1.67,-0.11691800000000001,0.015197,-0.350441,0.43463100000000005,0.23611500000000002,-0.317749
168,1.68,-0.21980700000000003,0.495317,-0.192448,0.385635,0.28299,-0.316681
169,1.69,-0.9357270000000001,0.7412850000000001,0.19112,0.340897,0.31601,-0.340118
170,1.7,-1.355283,0.558477,0.751463,0.303604,0.358612,-0.312424
171,1.71,-1.7276369999999999,0.008774000000000004,1.2836450000000001,0.30574,0.40869099999999997,-0.261292
172,1.72,-1.9444110000000001,-0.5326420000000001,1.328334,0.334503,0.452362,-0.196304
173,1.73,-1.685301,-1.024147,0.8707520000000001,0.364334,0.476868,-0.137711
174,1.74,-1.127509,-1.376676,0.11731999999999998,0.355804,0.457687,-0.10575899999999999
175,1.75,-0.653546,-1.656696,-0.529396,0.301483,0.40976,-0.101501
176,1.76,-0.290732,-1.9782369999999998,-0.916956,0.20559699999999997,0.351166,-0.108948
177,1.77,-0.095302,-2.225129,-1.0189290000000002,0.101212,0.289383,-0.11534100000000001
178,1.78,0.015994,-2.320738,-0.8582569999999999,0.0053409999999999925,0.23611500000000002,-0.128128
179,1.79,-0.074086,-2.494306,-0.602758,-0.068176,0.191376,-0.132385
180,1.8,-0.102305,-2.610248,-0.257423,-0.11398299999999999,0.173264,-0.12387100000000001
181,1.81,-0.280881,-2.5255,-0.05718899999999999,-0.121429,0.127457,-0.11108399999999999
182,1.82,-0.557491,-2.335834,0.064958,-0.10438499999999999,0.086975,-0.087646
183,1.83,-0.9117860000000001,-2.1307259999999997,-0.02512,-0.062851,0.044373,-0.067413
184,1.84,-1.211775,-1.9836529999999999,-0.277005,-0.023422,0.030518,-0.023727
185,1.85,-1.176091,-1.8442470000000002,-0.990641,-0.001053,0.037979,0.029526
186,1.86,-0.8512200000000001,-2.0072810000000003,-1.362822,-0.007445999999999999,0.031586,0.06149299999999999
187,1.87,-0.519354,-2.09213,-1.686451,0.0021360000000000007,0.003890999999999999,0.085983
188,1.88,-0.299291,-1.8925,-1.979693,0.030899,-0.057892,0.10516400000000001
189,1.89,-0.04242499999999999,-1.513007,-2.0391150000000002,0.067123,-0.14418,0.144577
190,1.9,0.4434060000000001,-0.553397,-2.1543419999999998,0.10760499999999999,-0.235794,0.189316
191,1.91,0.5718409999999999,0.181609,-2.308807,0.14595,-0.318893,0.24258400000000002
192,1.92,0.750116,0.8807510000000001,-2.449601,0.16406199999999999,-0.396652,0.284134
193,1.93,0.672875,1.261894,-2.228486,0.153412,-0.47761499999999996,0.321411
194,1.94,0.604597,1.69577,-1.623625,0.138489,-0.57135,0.34591700000000003
195,1.95,0.321581,2.29155,-0.7281569999999999,0.165115,-0.68428,0.337387
196,1.96,0.188604,2.779303,-0.8715959999999999,0.225845,-0.729019,0.301178
197,1.97,0.084185,3.134949,-1.569762,0.300415,-0.7982640000000001,0.254303
198,1.98,0.12106700000000001,3.376804,-2.312435,0.370712,-0.8770899999999999,0.210632
199,1.99,0.346827,3.7551769999999998,-2.71718,0.410141,-0.9963989999999999,0.170151
200,2.0,1.052462,4.62014,-2.893405,0.389893,-1.189209,0.129669
201,2.01,1.604484,5.821115,-2.24912,0.10014299999999997,-1.3170469999999999,0.071075
202,2.02,1.2386780000000002,6.355195,0.3671199999999999,-0.32276900000000003,-1.212646,-0.037582
203,2.03,-0.044758999999999986,5.58922,3.170558,-0.487885,-0.991074,-0.18565399999999999
204,2.04,-1.61791,3.984455,5.2322690000000005,-0.45698500000000003,-0.6587069999999999,-0.322006
205,2.05,-2.8344869999999998,2.055398,6.079455,-0.331284,-0.307175,-0.397644
206,2.06,-3.227741,0.194962,5.540598999999999,-0.188538,0.00601199999999999,-0.410416
207,2.07,-2.695601,-1.355637,4.261611,-0.094803,0.083786,-0.37206999999999996
208,2.08,-1.438243,-2.2289849999999998,3.292877,-0.048996,-0.03447,-0.309219
209,2.09,-0.18984500000000004,-2.690116,2.6266990000000003,-0.0021210000000000014,-0.164429,-0.228256
210,2.1,0.775405,-2.967188,1.8740459999999999,0.08416699999999999,-0.29331999999999997,-0.114273
211,2.11,1.8104080000000002,-2.840153,0.728584,0.172577,-0.38813800000000004,0.013549999999999993
212,2.12,2.246745,-2.509338,-0.3217760000000001,0.200272,-0.428604,0.123276
213,2.13,2.254188,-1.7210849999999998,-0.872892,0.156601,-0.393463,0.186127
214,2.14,1.60847,-1.227005,-0.90979,0.083099,-0.324219,0.20742800000000003
215,2.15,0.5200020000000001,-1.03219,-0.55779,0.017044000000000004,-0.25816300000000003,0.21595799999999998
216,2.16,-0.995074,-0.8397629999999999,-0.07078400000000001,-0.031952,-0.181473,0.24472
217,2.17,-2.146074,-0.6263310000000001,0.361942,-0.054321,-0.08985900000000001,0.296921
218,2.18,-3.0022759999999997,-0.5676800000000001,0.7078939999999999,-0.074554,0.025192,0.338455
219,2.19,-3.288413,-0.73087,0.98639,-0.092667,0.141312,0.38000500000000004
220,2.2,-2.789017,-0.635785,1.277267,-0.097992,0.246765,0.39172399999999996
221,2.21,-1.811193,-0.436337,1.458971,-0.089478,0.347961,0.382141
222,2.22,-0.768594,-0.148095,1.437066,-0.063904,0.44384799999999996,0.35231
223,2.23,0.14310799999999996,0.173095,1.185042,-0.013839999999999998,0.521606,0.320343
224,2.24,1.087509,0.24977399999999997,0.813629,0.040482,0.578064,0.29904200000000003
225,2.25,2.008675,0.195236,0.43269799999999997,0.070312,0.604691,0.304367
226,2.26,2.6910540000000003,-0.014921000000000004,0.215271,0.063919,0.584457,0.313965
227,2.27,3.0297970000000003,-0.348023,0.112169,0.051132,0.522675,0.313965
228,2.28,2.863664,-0.80928,0.0059919999999999965,0.0522,0.424667,0.296921
229,2.29,2.271913,-1.208084,-0.198625,0.067123,0.302155,0.268158
230,2.3,1.344158,-1.426383,-0.467184,0.08416699999999999,0.167938,0.240448
231,2.31,0.630121,-1.497522,-0.641023,0.091614,0.064606,0.210632
232,2.32,0.03737000000000002,-1.5012530000000002,-0.7747069999999999,0.08949299999999999,0.009215999999999998,0.180801
233,2.33,-0.6121340000000001,-1.504134,-0.8468889999999999,0.078842,0.011337,0.125412
234,2.34,-0.665899,-1.6802009999999998,-0.887871,0.070312,0.06779500000000001,0.082794
235,2.35,-0.479671,-1.9189650000000003,-0.905241,0.062851,0.139175,0.041245
236,2.36,-0.26363200000000003,-2.023088,-1.018586,0.062851,0.21160900000000002,0.008223999999999999
237,2.37,0.03190299999999999,-2.080114,-1.223207,0.062851,0.27766399999999997,-0.017334
238,2.38,0.320335,-1.96213,-1.445722,0.064987,0.32666,-0.039702999999999995
239,2.39,0.468955,-1.630224,-1.713211,0.067123,0.358612,-0.057816
240,2.4,0.397311,-1.237272,-1.829193,0.07457000000000001,0.389511,-0.08125299999999999
241,2.41,0.140132,-0.814718,-1.8344209999999999,0.103333,0.427856,-0.114273
242,2.42,-0.299175,-0.515725,-1.823084,0.14488199999999998,0.466217,-0.150497
243,2.43,-0.686665,-0.42888699999999996,-1.749391,0.193878,0.504562,-0.170731
244,2.44,-0.820736,-0.389598,-1.76872,0.22264099999999998,0.528,-0.169678
245,2.45,-0.822996,-0.546746,-1.6682919999999999,0.225845,0.5237430000000001,-0.148361
246,2.46,-0.4814,-0.60392,-1.419377,0.20666500000000002,0.526932,-0.121735
247,2.47,0.377078,-0.3731,-1.156952,0.172577,0.556763,-0.10043300000000001
248,2.48,1.501547,0.163329,-1.05502,0.131027,0.548233,-0.092972
249,2.49,2.43608,0.753069,-1.13174,0.092682,0.481125,-0.08125299999999999
250,2.5,3.198729,1.395546,-1.206828,0.063919,0.384186,-0.050369
251,2.51,3.729574,2.111371,-1.344163,0.068176,0.313873,-0.022659000000000002
252,2.52,3.3947580000000004,2.720254,-1.603275,0.11398299999999999,0.255295,-0.014145
253,2.53,2.076761,3.12854,-1.905823,0.176834,0.22013899999999997,0.0028990000000000005
254,2.54,0.587487,3.614996,-1.6996529999999999,0.20880100000000001,0.22013899999999997,0.055099
255,2.55,-0.809148,4.417191000000001,-1.001283,0.115051,0.258484,0.11795
256,2.56,-1.3005309999999999,4.838507,0.8048959999999998,-0.14593499999999998,0.458755,0.142456
257,2.57,-0.731738,4.763726,2.799083,-0.273773,0.619614,0.134995
258,2.58,-0.646998,3.92541,4.0433330000000005,-0.15125999999999998,0.509888,0.158432
259,2.59,-0.587486,2.657881,4.697953,-0.053252999999999995,0.26806599999999997,0.255371
260,2.6,-0.14822799999999994,1.7596080000000003,5.404357,-0.045807,0.14769000000000002,0.367218
261,2.61,0.3880630000000001,1.122896,5.533861,0.005341000000000002,0.13385,0.48226899999999995
262,2.62,0.32947600000000005,0.515446,4.774863,0.10653699999999999,0.173264,0.552582
263,2.63,0.018597,0.469164,3.465875,0.241821,0.202026,0.542984
264,2.64,-0.259225,0.802752,1.9275369999999998,0.368591,0.195633,0.44818100000000005
265,2.65,-0.605065,1.1018139999999998,0.475633,0.44316099999999997,0.156219,0.29904200000000003
266,2.66,-0.994476,1.353828,-0.274617,0.455933,0.145569,0.128601
267,2.67,-0.9960690000000001,1.204788,-0.509197,0.42184399999999994,0.17965699999999998,-0.035445999999999984
268,2.68,-0.79311,0.38410900000000003,-0.50147,0.388824,0.204163,-0.171799
269,2.69,-0.13373999999999994,-0.676183,-0.407878,0.357941,0.174332,-0.265549
270,2.7,0.8365100000000001,-1.473301,-0.052453,0.302536,0.12106300000000002,-0.320938
271,2.71,1.620922,-2.279522,0.6075109999999999,0.24714699999999998,0.0401,-0.371002
272,2.72,2.221663,-2.928362,1.032553,0.238632,-0.080276,-0.386993
273,2.73,2.559482,-3.183511,1.0143520000000001,0.237564,-0.21235700000000002,-0.376328
274,2.74,2.584402,-3.051575,0.696164,0.200272,-0.327408,-0.357162
275,2.75,2.233284,-2.583211,0.198797,0.12677,-0.406235,-0.337982
276,2.76,1.615084,-1.885673,-0.271539,0.035156,-0.49678,-0.335861
277,2.77,0.598264,-1.090678,-0.43096599999999996,-0.061783000000000005,-0.595856,-0.351837
278,2.78,-0.711598,-0.548668,-0.243245,-0.126755,-0.703445,-0.385925
279,2.79,-2.071459,-0.253114,0.333957,-0.153397,-0.762039,-0.420013
280,2.8,-3.277448,-0.311504,0.9867379999999999,-0.138474,-0.743927,-0.445572
281,2.81,-3.84511,-0.6557390000000001,1.3406959999999999,-0.07775900000000001,-0.655518,-0.440247
282,2.82,-3.690924,-1.191171,1.2250530000000002,0.004271999999999998,-0.522354,-0.407227
283,2.83,-2.8872419999999996,-1.554445,0.6646350000000001,0.072449,-0.392395,-0.357162
284,2.84,-1.88835,-1.7772299999999999,0.0060280000000000325,0.10546900000000001,-0.280533,-0.317749
285,2.85,-1.054308,-1.8186080000000002,-0.5643130000000001,0.104401,-0.213425,-0.271942
286,2.86,-0.406012,-1.777059,-0.9349629999999999,0.083099,-0.200638,-0.228256
287,2.87,0.13994600000000001,-1.8164490000000002,-1.139577,0.0522,-0.228348,-0.188843
288,2.88,0.42713999999999996,-1.77479,-1.243981,0.0010679999999999995,-0.278412,-0.155823
289,2.89,0.281951,-1.834514,-1.176963,-0.053252999999999995,-0.331665,-0.132385
290,2.9,-0.040236,-1.942881,-0.9897610000000001,-0.096939,-0.37535100000000005,-0.10682699999999999
291,2.91,-0.5044850000000001,-2.186384,-0.8424309999999999,-0.127823,-0.419022,-0.08125299999999999
292,2.92,-0.8536159999999999,-2.263464,-0.799913,-0.152328,-0.43287700000000007,-0.049301
293,2.93,-1.060167,-2.122084,-0.767935,-0.169373,-0.43499799999999994,-0.013076999999999998
294,2.94,-0.98235,-1.782373,-0.720282,-0.169373,-0.43927,0.039124
295,2.95,-0.7340840000000001,-1.136141,-0.9454549999999999,-0.124634,-0.47868299999999997,0.097702
296,2.96,-0.33972800000000003,-0.57013,-1.440684,-0.041533999999999995,-0.558578,0.168015
297,2.97,0.056036,-0.370229,-1.8238169999999998,0.033035,-0.641663,0.228729
298,2.98,0.42011499999999996,-0.358727,-1.8616970000000002,0.053267999999999996,-0.674683,0.262817
299,2.99,0.651621,-0.201801,-1.541785,0.04155,-0.689606,0.26921100000000003
300,3.0,0.6253340000000001,0.23792600000000003,-1.158279,0.025574,-0.724762,0.24791
301,3.01,0.03733799999999998,0.9504600000000001,-0.882708,0.013855000000000001,-0.7865449999999999,0.199982
302,3.02,-0.9390139999999999,1.668648,-0.6381979999999999,0.020248,-0.8344729999999999,0.15097
303,3.03,-1.8234569999999999,2.317026,-0.549275,0.057526,-0.807846,0.09025599999999999
304,3.04,-2.52937,3.042192,-0.884239,0.09800700000000001,-0.693863,0.028473000000000002
305,3.05,-2.923643,3.6850099999999997,-1.464217,0.13742100000000002,-0.564972,-0.033325
306,3.06,-2.362216,4.572518,-2.0213349999999997,0.19708299999999998,-0.489334,-0.097229
307,3.07,-0.4873460000000001,5.850512999999999,-2.4438560000000003,0.186432,-0.48613,-0.147308
308,3.08,0.852565,6.685725,-1.799182,-0.06604,-0.448853,-0.21121199999999998
309,3.09,1.2032479999999999,6.799616,0.3818760000000001,-0.31424,-0.348709,-0.276199
310,3.1,0.747609,6.327978,2.505316,-0.381363,-0.263489,-0.365677
311,3.11,-0.014349,5.238847,4.448301,-0.405853,-0.056839,-0.472214
312,3.12,-0.597508,3.6002870000000002,5.958147,-0.361115,0.18498199999999998,-0.551041
313,3.13,-0.978547,1.667159,6.479702,-0.20559699999999997,0.331985,-0.562759
314,3.14,-0.9087959999999999,-0.478813,5.67264,0.022385,0.29364,-0.49031099999999994
315,3.15,-0.159173,-1.821998,4.297239,0.22052,0.143433,-0.347565
316,3.16,1.1246120000000002,-2.420628,2.796325,0.362198,0.01879899999999999,-0.198441
317,3.17,2.045038,-2.797376,1.404762,0.428238,-0.055771,-0.067413
318,3.18,2.7433650000000003,-2.8349759999999997,0.11865700000000012,0.426117,-0.139923,0.046569999999999986
319,3.19,2.738489,-2.7816970000000003,-0.8340280000000001,0.369659,-0.240067,0.12753299999999998
320,3.2,2.008365,-2.666558,-1.171643,0.25035100000000005,-0.344452,0.19252
321,3.21,0.8486190000000001,-2.642728,-1.098918,0.115051,-0.395584,0.245773
322,3.22,-0.582555,-2.483559,-0.691527,-0.021301,-0.381744,0.30011
323,3.23,-1.682998,-2.107956,-0.08303499999999997,-0.148071,-0.323151,0.370422
324,3.24,-2.740406,-1.251374,0.5453859999999999,-0.25459299999999996,-0.22940100000000002,0.423676
325,3.25,-3.357024,-0.426372,1.2153100000000001,-0.32702600000000004,-0.069611,0.46203599999999995
326,3.26,-3.2798830000000003,0.178911,1.804877,-0.347275,0.143433,0.47373999999999994
327,3.27,-2.5895189999999997,0.392755,2.2793900000000002,-0.302536,0.39164699999999997,0.453506
328,3.28,-1.434028,0.285145,2.453312,-0.20559699999999997,0.637726,0.40876799999999996
329,3.29,0.09460100000000003,-0.071056,2.220668,-0.080948,0.8145600000000001,0.364029
330,3.3,1.380358,-0.381912,1.656075,0.013855000000000004,0.906158,0.327805
331,3.31,2.4164630000000002,-0.742422,1.029631,0.071381,0.9232030000000001,0.307571
332,3.32,3.1955169999999997,-1.182742,0.45347200000000004,0.10760499999999999,0.873138,0.302246
333,3.33,3.538646,-1.5752389999999998,-0.08556300000000003,0.110794,0.777267,0.305435
334,3.34,3.590407,-1.8691669999999998,-0.47163,0.071381,0.661148,0.309692
335,3.35,3.2409790000000003,-1.978236,-0.668697,0.018112000000000003,0.542908,0.289459
336,3.36,2.501737,-2.03282,-0.723493,-0.038345,0.432129,0.256439
337,3.37,1.685918,-2.010971,-0.716626,-0.087341,0.331985,0.210632
338,3.38,0.981133,-1.7875189999999999,-0.758914,-0.125702,0.242508,0.171219
339,3.39,0.488379,-1.529097,-0.785373,-0.143799,0.18605,0.133926
340,3.4,0.253916,-1.308016,-0.928407,-0.152328,0.149826,0.10409500000000001
341,3.41,0.23137399999999997,-1.108032,-1.015518,-0.154449,0.130646,0.082794
342,3.42,0.454208,-0.9895309999999999,-1.006858,-0.14593499999999998,0.128525,0.050842
343,3.43,0.831037,-0.9457180000000001,-0.9887600000000001,-0.125702,0.134918,0.023148
344,3.44,1.114642,-1.016489,-1.084306,-0.10865799999999999,0.143433,-0.010956
345,3.45,1.181819,-1.0050780000000001,-1.1207559999999999,-0.090546,0.162613,-0.047165
346,3.46,1.0021,-0.8968,-1.182727,-0.06604,0.200958,-0.083389
347,3.47,0.631293,-0.7886029999999999,-1.1867860000000001,-0.028763,0.25209000000000004,-0.112152
348,3.48,0.15519700000000006,-0.785736,-1.365383,0.021317,0.31601,-0.143036
349,3.49,-0.301037,-0.886569,-1.641548,0.051132,0.374603,-0.162216
350,3.5,-0.7410260000000001,-1.0684559999999999,-1.824791,0.056473,0.398041,-0.166473
351,3.51,-1.064341,-0.8864879999999999,-1.725523,0.046875,0.402298,-0.161148
352,3.52,-1.1628690000000002,-0.55495,-1.286242,0.009598,0.451294,-0.169678
353,3.53,-0.45813400000000004,0.09308999999999999,-0.8814379999999999,-0.048996,0.51947,-0.177124
354,3.54,0.839267,0.9208559999999999,-0.801163,-0.083084,0.537582,-0.148361
355,3.55,1.958004,1.8318830000000002,-0.96619,-0.060715,0.49070699999999995,-0.087646
356,3.56,3.2325,2.858862,-1.310761,0.022385,0.40016199999999996,0.0071560000000000035
357,3.57,4.313706,3.624578,-1.623316,0.13209500000000002,0.256348,0.10304300000000001
358,3.58,4.399495,3.799899,-2.002166,0.238632,0.070999,0.198914
359,3.59,3.5145169999999997,3.5422589999999996,-2.071807,0.33876,-0.071747,0.26709
360,3.6,1.7317639999999999,3.079382,-1.9289580000000002,0.400543,-0.115417,0.260696
361,3.61,0.230227,2.7680439999999997,-1.351446,0.267395,-0.083466,0.193588
362,3.62,-0.31340100000000004,2.529328,0.17480699999999993,-0.019165000000000012,0.056090999999999995,0.091324
363,3.63,-0.753395,2.306584,2.1563939999999997,-0.172562,0.254227,0.0018309999999999995
364,3.64,-1.307613,1.604726,3.497642,-0.124634,0.340515,-0.026931999999999998
365,3.65,-1.510219,0.975999,4.437051,-0.040466,0.350098,0.015686000000000002
366,3.66,-1.50413,0.832275,4.925237,-0.012772,0.355423,0.099838
367,3.67,-1.400559,0.7438,5.000139,-0.001053,0.334122,0.21595799999999998
368,3.68,-1.3290540000000002,0.767464,4.721736,0.027710000000000002,0.262741,0.334198
369,3.69,-1.2184469999999998,1.155037,4.0682089999999995,0.091614,0.193497,0.39598099999999997
370,3.7,-1.123761,1.42394,3.163896,0.199219,0.107224,0.39172399999999996
371,3.71,-0.8931600000000001,1.685432,1.9382700000000002,0.297211,0.009216000000000002,0.32566799999999996
372,3.72,-0.642031,1.630849,0.9272040000000001,0.323853,-0.047241000000000005,0.22447199999999998
373,3.73,-0.10832600000000003,1.274001,0.283084,0.309998,-0.09197999999999999,0.100906
374,3.74,0.5072949999999999,0.559884,0.011593999999999991,0.312134,-0.127136,-0.026932000000000005
375,3.75,1.251914,0.172484,-0.111097,0.325974,-0.159103,-0.145172
376,3.76,1.665548,-0.5942189999999999,-0.078332,0.303604,-0.156967,-0.25596599999999997
377,3.77,2.09223,-1.344287,0.127485,0.276978,-0.16336099999999998,-0.335861
378,3.78,2.470606,-1.944235,0.362261,0.263123,-0.18573,-0.391251
379,3.79,2.466814,-2.4509790000000002,0.5235920000000001,0.255676,-0.240067,-0.43917799999999996
380,3.8,2.2166330000000003,-2.57612,0.373458,0.237564,-0.32634,-0.471146
381,3.81,1.679631,-2.729548,0.08016700000000003,0.19175699999999998,-0.47761499999999996,-0.487122
382,3.82,0.960303,-2.703138,-0.07134800000000001,0.11398299999999999,-0.6459199999999999,-0.487122
383,3.83,0.031695000000000084,-2.51707,-0.065237,0.023438,-0.7854770000000001,-0.472214
384,3.84,-0.881186,-2.215064,-0.081037,-0.057510000000000006,-0.889877,-0.440247
385,3.85,-1.7779779999999998,-1.9307450000000002,-0.033770999999999995,-0.110779,-0.9687040000000001,-0.406158
386,3.86,-2.361936,-1.7697509999999999,-0.032469,-0.141678,-1.00705,-0.367813
387,3.87,-2.6854009999999997,-1.6773310000000001,-0.026886,-0.167236,-0.997467,-0.323074
388,3.88,-2.6769939999999997,-1.639635,0.04716200000000001,-0.191742,-0.938873,-0.282593
389,3.89,-2.446886,-1.6332360000000001,0.17317000000000002,-0.191742,-0.846191,-0.243179
390,3.9,-2.088568,-1.610422,0.182666,-0.171494,-0.729019,-0.205887
391,3.91,-1.681847,-1.61656,0.029042000000000002,-0.144867,-0.622482,-0.16008
392,3.92,-1.283526,-1.630126,-0.228607,-0.11824000000000001,-0.5330050000000001,-0.117477
393,3.93,-0.9331959999999999,-1.678577,-0.501819,-0.103317,-0.47122200000000003,-0.07699600000000001
394,3.94,-0.813558,-1.846196,-0.722639,-0.091599,-0.429672,-0.043976
395,3.95,-0.8576959999999999,-1.94809,-0.9388190000000001,-0.093735,-0.404114,-0.018402
396,3.96,-1.166698,-2.156421,-1.132303,-0.11503599999999999,-0.376419,0.010361
397,3.97,-1.5546520000000001,-2.181768,-1.193886,-0.14593499999999998,-0.331665,0.045517
398,3.98,-1.88182,-1.926565,-1.194592,-0.172562,-0.27415500000000004,0.082794
399,3.99,-2.007514,-1.432736,-1.2389629999999998,-0.174698,-0.22514299999999998,0.129669
400,4.0,-1.697183,-0.739687,-1.388551,-0.149124,-0.20916700000000002,0.185059
401,4.01,-1.085294,-0.10299699999999996,-1.6660409999999999,-0.110779,-0.21768200000000001,0.226608
402,4.02,-0.522958,0.22514499999999998,-1.7503099999999998,-0.093735,-0.22514299999999998,0.245773
403,4.03,-0.022793000000000008,0.348911,-1.756376,-0.120361,-0.21768200000000001,0.238327
404,4.04,0.180273,0.611475,-1.439416,-0.161911,-0.236862,0.21168499999999998
405,4.05,0.199725,0.97967,-0.8701639999999999,-0.186417,-0.297577,0.19252
406,4.06,0.058683000000000006,1.5482479999999998,-0.367759,-0.164047,-0.374283,0.185059
407,4.07,-0.243604,2.0651669999999998,-0.089061,-0.084152,-0.414764,0.189316
408,4.08,-0.478336,2.585461,-0.167657,0.011719000000000007,-0.357239,0.179733
409,4.09,-0.546111,3.181143,-0.692709,0.090561,-0.25177,0.13179000000000002
410,4.1,-0.29637800000000003,3.692807,-1.607934,0.152344,-0.188919,0.050842
411,4.11,0.07205499999999998,3.890537,-2.392327,0.221588,-0.210236,-0.029052999999999992
412,4.12,0.38040999999999997,3.870503,-2.782379,0.29509,-0.27948,-0.083389
413,4.13,0.759185,4.070908,-2.7710310000000002,0.343018,-0.374283,-0.103622
414,4.14,1.282938,4.519788,-2.037943,0.22903400000000002,-0.414764,-0.128128
415,4.15,0.6204510000000001,4.67138,-0.4091290000000001,-0.025558000000000008,-0.399841,-0.171799
416,4.16,-0.617217,3.904674,1.599102,-0.120361,-0.360428,-0.194168
417,4.17,-1.133186,3.102309,3.125467,-0.088409,-0.263489,-0.217606
418,4.18,-1.6847990000000002,2.16895,4.270053,-0.103317,-0.069611,-0.274063
419,4.19,-1.899557,1.028025,5.42831,-0.111847,0.14769000000000002,-0.320938
420,4.2,-1.538232,0.331985,5.575532,-0.009582999999999994,0.261673,-0.33905
421,4.21,-0.5711,-0.253502,4.888657,0.134232,0.248901,-0.327332
422,4.22,0.548675,-0.94486,3.9314989999999996,0.266327,0.20628400000000002,-0.287918
423,4.23,1.5989440000000001,-1.335126,2.5920360000000002,0.379242,0.195633,-0.20163
424,4.24,2.535759,-1.6073,0.8383149999999999,0.429306,0.19456500000000002,-0.101501
425,4.25,2.793653,-1.8536270000000001,-0.4354020000000001,0.352615,0.1754,-0.022659000000000002
426,4.26,2.346962,-2.038072,-0.721439,0.19601400000000002,0.12532000000000001,0.043381
427,4.27,1.0690819999999999,-2.248223,-0.348181,0.046875,0.0923,0.08812
428,4.28,-0.510316,-2.185581,0.09403599999999998,-0.070297,0.106155,0.148834
429,4.29,-2.027607,-1.716619,0.685304,-0.181091,0.156219,0.194641
430,4.3,-3.493121,-0.644586,1.169377,-0.262054,0.256348,0.238327
431,4.31,-4.343764,0.412012,1.706981,-0.282288,0.407623,0.304367
432,4.32,-4.357915,1.03577,2.150954,-0.21304299999999998,0.562088,0.36615
433,4.33,-3.393619,1.0365,2.345216,-0.094803,0.714417,0.42581199999999997
434,4.34,-1.717185,0.750417,2.164829,0.046875,0.8316040000000001,0.465225
435,4.35,0.2236229999999999,-0.02216199999999996,1.583034,0.173645,0.900833,0.47908
436,4.36,2.008727,-0.856024,0.839133,0.262054,0.9253389999999999,0.456696
437,4.37,3.5235819999999998,-1.6854330000000002,0.105402,0.299347,0.891251,0.41516099999999995
438,4.38,4.2861839999999995,-2.296086,-0.6484029999999998,0.285492,0.801773,0.368286
439,4.39,4.412733,-2.705276,-1.118737,0.21838400000000002,0.672867,0.329941
440,4.4,3.9116239999999998,-2.848929,-1.346771,0.127838,0.524796,0.29478499999999996
441,4.41,2.86849,-2.672271,-1.392703,0.027710000000000002,0.389511,0.260696
442,4.42,1.6330930000000001,-2.373456,-1.240429,-0.069229,0.281921,0.21914699999999998
443,4.43,0.570125,-2.066753,-0.965094,-0.138474,0.20628400000000002,0.18187
444,4.44,-0.11937499999999998,-1.666282,-0.801773,-0.17363,0.167938,0.14032
445,4.45,-0.41844799999999993,-1.433219,-0.810725,-0.18748499999999998,0.14769000000000002,0.101974
446,4.46,-0.44008100000000006,-1.395933,-0.800271,-0.181091,0.146637,0.06681799999999999
447,4.47,-0.134206,-1.437913,-0.802217,-0.166168,0.143433,0.034851
448,4.48,0.352506,-1.530909,-0.920166,-0.14060999999999998,0.139175,0.006104000000000003
449,4.49,0.8562379999999999,-1.499698,-1.059944,-0.102264,0.127457,-0.022659000000000002
450,4.5,1.092689,-1.3225719999999999,-1.21912,-0.059647000000000006,0.119995,-0.058884000000000006
451,4.51,1.16849,-0.9414520000000001,-1.312838,-0.025558,0.130646,-0.09829700000000001
452,4.52,0.9828600000000001,-0.382498,-1.320804,0.028763,0.170074,-0.132385
453,4.53,0.546999,-0.180851,-1.427807,0.091614,0.24462899999999999,-0.161148
454,4.54,0.14319299999999996,-0.23788099999999998,-1.6805869999999998,0.142746,0.30748000000000003,-0.164352
455,4.55,-0.44188,-0.411016,-1.86748,0.152344,0.334122,-0.140915
456,4.56,-0.98482,-0.46024899999999996,-1.6683009999999998,0.123581,0.370331,-0.119598
457,4.57,-1.292419,-0.31754699999999997,-1.108104,0.083099,0.457687,-0.12599200000000002
458,4.58,-0.958802,0.135848,-0.8259879999999999,0.038360999999999985,0.572739,-0.143036
459,4.59,-0.09918999999999993,0.849801,-0.83526,-0.007446000000000001,0.615341,-0.144104
460,4.6,0.736056,1.676373,-1.067122,-0.004257,0.589783,-0.10043300000000001
461,4.61,1.7633599999999998,2.536131,-1.462807,0.058593999999999986,0.540787,-0.032257
462,4.62,2.468971,3.248875,-1.8840830000000002,0.142746,0.464081,0.062561
463,4.63,2.592434,3.9357879999999996,-2.0243900000000004,0.21199,0.388443,0.157364
464,4.64,2.1822779999999997,4.313608,-1.8151220000000001,0.269516,0.36821,0.23939499999999997
465,4.65,1.428706,4.478446,-1.15596,0.18429600000000002,0.356491,0.272415
466,4.66,1.339534,4.438242,0.2885630000000001,-0.037277000000000005,0.40016199999999996,0.22979699999999997
467,4.67,1.269881,4.093421,1.6994049999999998,-0.117172,0.36607399999999995,0.182922
468,4.68,0.727785,3.3152559999999998,2.788448,-0.064972,0.275528,0.204239
469,4.69,0.06424299999999994,2.427095,3.519711,-0.080948,0.180725,0.28625500000000004
470,4.7,-0.7142390000000001,1.8070259999999998,4.505857,-0.16297899999999998,0.171127,0.388519
471,4.71,-1.5342200000000001,0.864125,5.358896,-0.18748499999999998,0.212677,0.46308900000000003
472,4.72,-1.699518,0.174705,5.218067,-0.08201599999999999,0.28299,0.474808
473,4.73,-1.613996,0.208029,3.954358,0.10653699999999999,0.279785,0.405563
474,4.74,-1.890437,0.189645,2.201108,0.27271999999999996,0.190308,0.29904200000000003
475,4.75,-1.585848,0.19728900000000002,0.71022,0.354736,0.086975,0.185059
476,4.76,-1.08012,0.270266,-0.09913900000000003,0.34834299999999996,0.049698,0.06149300000000001
477,4.77,-0.49027299999999996,-0.040471000000000014,-0.19101700000000002,0.294022,0.063538,-0.073792
478,4.78,0.26256899999999994,-0.39444,-0.142921,0.24607800000000002,0.065674,-0.190979
479,4.79,1.287887,-0.58562,-0.23735,0.20666500000000002,0.0006870000000000001,-0.277267
480,4.8,2.283621,-0.594955,-0.339908,0.131027,-0.058960000000000005,-0.344376
481,4.81,2.779798,-0.828837,0.07445100000000003,0.012787,-0.10476700000000001,-0.43173199999999995
482,4.82,2.814714,-1.439832,0.685948,-0.057510000000000006,-0.182541,-0.48925799999999997
483,4.83,2.391721,-1.793139,1.066677,-0.045807,-0.322083,-0.509491
484,4.84,1.80103,-1.847682,1.139689,0.0032039999999999985,-0.461639,-0.493515
485,4.85,0.8300120000000001,-1.6926240000000001,0.9333229999999999,0.043686,-0.600113,-0.47966000000000003
486,4.86,-0.273329,-1.545835,0.528172,0.055404999999999996,-0.727951,-0.457291
487,4.87,-1.222824,-1.392995,0.287628,0.024506,-0.821701,-0.433853
488,4.88,-2.226008,-1.344226,0.220742,-0.02449,-0.8579100000000001,-0.424271
489,4.89,-3.091059,-1.441202,0.304265,-0.044739,-0.8440700000000001,-0.422134
490,4.9,-3.5759,-1.686884,0.393088,-0.040466,-0.7865449999999999,-0.40829499999999996
491,4.91,-3.6053040000000003,-1.8950939999999998,0.27050799999999997,-0.025558,-0.690659,-0.382721
492,4.92,-3.272594,-2.052747,0.046395999999999986,-0.027694999999999997,-0.576675,-0.34544400000000003
493,4.93,-2.51418,-2.032102,-0.171396,-0.047928,-0.47761499999999996,-0.29431199999999996
494,4.94,-1.74827,-1.979357,-0.35175700000000004,-0.088409,-0.392395,-0.24104299999999998
495,4.95,-1.081021,-1.877416,-0.483023,-0.127823,-0.34019499999999997,-0.18565399999999999
496,4.96,-0.527583,-1.761045,-0.5642739999999999,-0.164047,-0.315689,-0.134521
497,4.97,-0.142344,-1.693544,-0.652069,-0.186417,-0.314621,-0.087646
498,4.98,-0.042621,-1.69353,-0.677837,-0.200256,-0.329544,-0.058884000000000006
499,4.99,-0.196329,-1.8785209999999999,-0.729236,-0.19813499999999998,-0.34552,-0.040770999999999995
500,5.0,-0.458083,-2.030063,-0.794391,-0.19280999999999998,-0.35830700000000004,-0.024796000000000002
501,5.01,-0.738084,-2.0902279999999998,-0.956233,-0.200256,-0.373215,-0.009888
502,5.02,-0.9255049999999999,-1.977479,-1.111608,-0.229019,-0.390259,0.011429
503,5.03,-0.88039,-1.735711,-1.173594,-0.27163699999999996,-0.403046,0.041245
504,5.04,-0.71636,-1.2391459999999999,-1.051867,-0.295074,-0.429672,0.07746900000000001
505,5.05,-0.46053599999999995,-0.589956,-0.9226059999999999,-0.27163699999999996,-0.46908599999999995,0.132858
506,5.06,-0.177553,-0.03872799999999999,-0.897802,-0.200256,-0.522354,0.189316
507,5.07,0.11963199999999999,0.282616,-1.0555219999999998,-0.13208,-0.564972,0.23406999999999997
508,5.08,0.388237,0.279618,-1.141989,-0.091599,-0.59906,0.262817
509,5.09,0.52412,0.506839,-0.993708,-0.086273,-0.6267550000000001,0.270279
510,5.1,0.125444,1.031695,-0.774083,-0.086273,-0.670425,0.257492
511,5.11,-0.627486,1.801073,-0.43293400000000004,-0.078827,-0.680008,0.209564
512,5.12,-1.446081,2.475881,-0.256787,-0.056458,-0.597992,0.122208
513,5.13,-1.9062919999999999,3.193632,-0.44134300000000004,-0.027695,-0.47441099999999997,0.031662
514,5.14,-1.814668,3.7594800000000004,-1.077844,0.022385,-0.386002,-0.046097000000000006
515,5.15,-0.8495739999999999,3.8072519999999996,-1.645287,0.10865799999999999,-0.32634,-0.087646
516,5.16,-0.046732,3.6911910000000003,-2.1738,0.202408,-0.310364,-0.103622
517,5.17,0.8426790000000001,3.8251800000000005,-2.328104,0.255676,-0.35405,-0.090836
518,5.18,1.279253,4.06354,-1.2613379999999998,0.017044000000000004,-0.381744,-0.073792
519,5.19,0.03176699999999999,3.7156629999999997,0.44286,-0.18321199999999999,-0.45631400000000005,-0.090836
520,5.2,-1.057126,2.906221,2.24856,-0.22583000000000003,-0.45843500000000004,-0.091904
521,5.21,-1.751683,1.967472,3.508951,-0.211975,-0.35084499999999996,-0.10043300000000001
522,5.22,-2.0799990000000004,1.2735319999999999,4.313084,-0.19813499999999998,-0.210236,-0.132385
523,5.23,-1.773004,0.771699,4.815884,-0.160843,-0.096252,-0.17393499999999998
524,5.24,-0.968985,-0.018959999999999973,4.632082,-0.089478,-0.025939999999999998,-0.210159
525,5.25,-0.12997000000000006,-0.44209799999999994,4.114539,-0.019165,-0.025939999999999998,-0.20695500000000003
526,5.26,0.859742,-0.811286,3.4881889999999998,0.070312,-0.018478,-0.14624
527,5.27,1.494977,-0.8331799999999999,2.4003509999999997,0.170456,0.047562000000000014,-0.061020000000000005
528,5.28,2.176689,-0.779485,0.121116,0.20666500000000002,0.116806,0.05935700000000001
529,5.29,1.9281830000000002,-0.8390719999999999,-0.722155,0.127838,0.06353800000000001,0.11581400000000001
530,5.3,0.9816950000000001,-0.943632,-0.696002,0.042618,-0.035522000000000005,0.156296
531,5.31,0.057520000000000016,-1.022981,-0.290385,-0.012772,-0.10583499999999998,0.203171
532,5.32,-1.046141,-1.012683,0.10084400000000003,-0.067108,-0.12501500000000002,0.259628
533,5.33,-1.6622970000000001,-0.941472,0.40539000000000003,-0.11503599999999999,-0.09411599999999999,0.318222
534,5.34,-2.281653,-0.8664120000000001,0.8574780000000001,-0.14593499999999998,-0.009964,0.36296100000000003
535,5.35,-2.272657,-0.9912350000000001,1.1780709999999999,-0.13208,0.084839,0.399185
536,5.36,-1.8911169999999997,-1.32392,1.3351870000000001,-0.080948,0.190308,0.41409300000000004
537,5.37,-1.419133,-1.612745,1.288214,-0.021301,0.305359,0.40023800000000004
538,5.38,-0.554991,-1.895011,1.030484,0.019180000000000003,0.418274,0.377869
539,5.39,0.15592600000000004,-1.8875509999999998,0.484464,0.026642000000000002,0.526932,0.34910599999999997
540,5.4,0.881814,-1.8999970000000002,0.092758,0.015991,0.616409,0.31929
541,5.41,1.571269,-1.8272509999999997,-0.306709,0.0,0.672867,0.28093
542,5.42,2.2795490000000003,-1.6354739999999999,-0.559882,-0.019165,0.6899109999999999,0.23725900000000003
543,5.43,2.6922029999999997,-1.5621909999999999,-0.784836,-0.040466,0.667542,0.193588
544,5.44,2.636835,-1.5416239999999999,-0.843158,-0.071365,0.629196,0.14032
545,5.45,2.202709,-1.5836780000000001,-0.857633,-0.10759,0.565277,0.087051
546,5.46,1.526948,-1.685814,-0.771529,-0.15125999999999998,0.49177600000000005,0.043381
547,5.47,1.001007,-1.668384,-0.815733,-0.186417,0.418274,0.015686000000000002
548,5.48,0.406801,-1.577696,-0.8412350000000001,-0.221573,0.370331,-0.004562000000000001
549,5.49,-0.002824999999999994,-1.4185459999999999,-0.9170450000000001,-0.241806,0.341568,-0.018402
550,5.5,0.055428000000000005,-1.3170620000000002,-1.001824,-0.257782,0.31919899999999995,-0.023727
551,5.51,0.199249,-0.976942,-1.082912,-0.25885,0.29364,-0.036514
552,5.52,0.584499,-0.666555,-1.113234,-0.240738,0.263809,-0.054626
553,5.53,0.78683,-0.40323400000000004,-1.1999879999999998,-0.201324,0.239304,-0.07699600000000001
554,5.54,0.9201870000000001,-0.204321,-1.2379120000000001,-0.15551800000000002,0.23397800000000002,-0.10575899999999999
555,5.55,0.7895800000000001,-0.18682200000000002,-1.305152,-0.10438499999999999,0.249969,-0.132385
556,5.56,0.621158,-0.398075,-1.3273840000000001,-0.035141000000000006,0.27766399999999997,-0.153687
557,5.57,0.43133299999999997,-0.7141850000000001,-1.536317,0.025574,0.28511,-0.149429
558,5.58,0.285254,-1.018676,-1.566668,0.057526,0.264877,-0.12599200000000002
559,5.59,0.058628999999999994,-1.095081,-1.368737,0.071381,0.26061999999999996,-0.09829700000000001
560,5.6,-0.019325,-0.6238790000000001,-1.237622,0.078842,0.29896500000000004,-0.091904
561,5.61,0.20313800000000004,0.311807,-1.3348719999999998,0.069244,0.377792,-0.12705999999999998
562,5.62,0.638737,1.2806790000000001,-1.677687,0.027710000000000002,0.423599,-0.171799
563,5.63,1.09641,2.064796,-1.8740700000000001,-0.021301,0.407623,-0.193115
564,5.64,1.62175,2.67447,-1.835825,-0.018097,0.37886,-0.183517
565,5.65,1.9197419999999998,3.141685,-1.8073029999999999,0.042618,0.370331,-0.16008
566,5.66,1.7343490000000001,3.542164,-1.8253759999999999,0.139557,0.341568,-0.103622
567,5.67,1.1065690000000001,4.185955,-2.043889,0.21731599999999998,0.291504,0.0007629999999999997
568,5.68,0.839462,5.069007,-1.720767,0.075638,0.269135,0.110489
569,5.69,1.472756,5.227118,0.2403130000000001,-0.253525,0.320267,0.137131
570,5.7,1.73807,4.68485,2.495588,-0.364319,0.212677,0.134995
571,5.71,1.333862,3.464288,4.002975,-0.24819899999999998,-0.022750999999999997,0.191452
572,5.72,0.8412440000000001,2.234455,4.950305,-0.167236,-0.22940100000000002,0.289459
573,5.73,0.546664,1.1841,5.87712,-0.120361,-0.259232,0.37468
574,5.74,0.0016090000000000269,0.02686999999999995,6.1849680000000005,0.020248,-0.177216,0.443924
575,5.75,-0.404858,-0.480721,5.325744,0.226913,-0.045120000000000014,0.45776400000000006
576,5.76,-0.990075,-0.417325,3.5164940000000002,0.439957,0.055023,0.399185
577,5.77,-1.169719,-0.07361099999999997,1.334419,0.581635,0.039047000000000005,0.29478499999999996
578,5.78,-1.017752,0.44675200000000004,-0.671039,0.561401,-0.041916,0.08065800000000001
579,5.79,-0.8006439999999999,0.545351,-1.0153510000000001,0.45700100000000005,-0.040848,-0.059952
580,5.8,-0.1845,0.11406900000000005,-0.8168569999999999,0.36113,-0.052566999999999996,-0.165405
581,5.81,0.706692,-0.574187,-0.624668,0.278046,-0.10476700000000001,-0.23252899999999999
582,5.82,1.893041,-0.986052,-0.42617200000000005,0.180038,-0.21875,-0.274063
583,5.83,2.692713,-1.576332,0.15962200000000004,0.08522,-0.368958,-0.318817
584,5.84,3.622436,-1.7383849999999998,0.607019,0.050079000000000005,-0.542587,-0.359283
585,5.85,3.7937769999999995,-2.119468,1.170208,0.063919,-0.749252,-0.39869699999999997
586,5.86,3.447867,-1.980276,1.261016,0.103333,-0.898392,-0.438126
587,5.87,2.5637950000000003,-1.8920310000000002,0.8862110000000001,0.11718800000000001,-0.971893,-0.47966000000000003
588,5.88,1.561115,-1.8607470000000002,0.336564,0.101212,-1.024094,-0.505234
589,5.89,0.421702,-1.941768,0.03992699999999999,0.049011,-1.080551,-0.516953
590,5.9,-0.787193,-1.8407630000000001,-0.10152699999999999,-0.023422,-1.123169,-0.528671
591,5.91,-2.112323,-1.8185630000000002,-0.001868999999999996,-0.10545299999999999,-1.139145,-0.532928
592,5.92,-3.039438,-1.772156,0.092231,-0.16297899999999998,-1.132751,-0.519073
593,5.93,-3.496858,-1.7933580000000002,0.112471,-0.200256,-1.101852,-0.478592
594,5.94,-3.459744,-1.6966990000000002,0.047501,-0.218369,-1.034744,-0.42108199999999996
595,5.95,-2.8860419999999998,-1.52672,-0.007075000000000001,-0.224762,-0.9591059999999999,-0.347565
596,5.96,-2.0195380000000003,-1.259767,-0.08627499999999999,-0.21304299999999998,-0.882416,-0.275131
597,5.97,-1.03882,-1.2170809999999999,-0.119279,-0.175766,-0.819565,-0.209091
598,5.98,-0.254429,-1.2369459999999999,-0.30741399999999997,-0.124634,-0.776947,-0.164352
599,5.99,0.25756499999999993,-1.449581,-0.596679,-0.068176,-0.769501,-0.133453
600,6.0,0.446204,-1.6586310000000002,-1.000942,-0.038345,-0.771622,-0.11534100000000001
601,6.01,0.28691300000000003,-1.912477,-1.220776,-0.039413,-0.789734,-0.101501
602,6.02,-0.140762,-1.8476599999999999,-1.294884,-0.060715,-0.7822720000000001,-0.072739
603,6.03,-0.513833,-1.6549909999999999,-1.262359,-0.08201599999999999,-0.757782,-0.037582
604,6.04,-0.740715,-1.21817,-1.329972,-0.091599,-0.73114,0.006104000000000004
605,6.05,-0.832815,-0.6758460000000001,-1.3721299999999998,-0.073502,-0.73114,0.050842
606,6.06,-0.710122,-0.13727300000000006,-1.3949850000000001,-0.009583,-0.765228,0.091324
607,6.07,-0.416225,0.186754,-1.4566540000000001,0.08416699999999999,-0.801453,0.116882
608,6.08,0.06244500000000001,0.077964,-1.4522629999999999,0.14595,-0.80571,0.10409500000000001
609,6.09,0.498471,-0.222536,-1.357785,0.13742100000000002,-0.795059,0.049774
610,6.1,0.8749290000000001,-0.516501,-1.0856290000000002,0.069244,-0.829147,-0.0013580000000000016
611,6.11,0.889948,-0.349111,-0.784932,0.017044,-0.927155,-0.010956
612,6.12,0.60525,0.23667400000000005,-0.527332,0.020248,-1.0145110000000002,0.001831
613,6.13,-0.09869799999999997,1.158527,-0.46181300000000003,0.042618,-1.000656,-0.013077000000000002
614,6.14,-1.056246,2.146423,-0.87166,0.06072999999999999,-0.897324,-0.065277
615,6.15,-1.6569209999999999,3.089673,-1.456213,0.08203099999999999,-0.813171,-0.13559000000000002
616,6.16,-1.6777819999999999,3.682611,-1.7681689999999999,0.118256,-0.781219,-0.194168
617,6.17,-0.940197,4.590133,-1.638362,0.200272,-0.872833,-0.198441
618,6.18,0.36959699999999984,5.739859,-0.543473,0.129974,-0.8962549999999999,-0.186722
619,6.19,0.9648180000000001,6.591778,1.512209,-0.126755,-0.637405,-0.250626
620,6.2,0.45661999999999997,6.016619,3.228861,-0.226898,-0.38706999999999997,-0.37953200000000004
621,6.21,0.07941000000000001,4.523975,4.1044,-0.195999,-0.184662,-0.492447
622,6.22,-0.11161900000000001,2.74424,4.54129,-0.20771799999999999,0.043304,-0.571274
623,6.23,-0.34223400000000004,0.9888879999999999,4.913435,-0.190674,0.129593,-0.591522
624,6.24,0.299473,-0.398301,4.794466000000001,-0.084152,0.004959000000000005,-0.5148159999999999
625,6.25,1.688782,-1.131636,4.1635599999999995,0.057526,-0.20597800000000002,-0.37846399999999997
626,6.26,3.005378,-1.2512290000000001,2.739383,0.16832,-0.355103,-0.23252899999999999
627,6.27,3.760047,-1.112766,1.106515,0.202408,-0.457367,-0.069534
628,6.28,3.072037,-0.64703,-0.869173,0.0010679999999999995,-0.6278229999999999,0.13179000000000002
629,6.29,1.72367,-1.017815,-0.56514,-0.125702,-0.7077180000000001,0.191452
630,6.3,0.30601900000000004,-1.2374399999999999,-0.06339600000000001,-0.20665,-0.75032,0.250046
631,6.31,-1.042959,-1.0983370000000001,0.49024700000000004,-0.26310700000000004,-0.715164,0.306503
632,6.32,-1.9264270000000001,-0.769871,1.09429,-0.305725,-0.610779,0.357635
633,6.33,-2.7907889999999997,-0.866085,1.7540779999999998,-0.31637600000000005,-0.45631400000000005,0.390656
634,6.34,-3.12043,-0.717966,2.023782,-0.268433,-0.285858,0.432205
635,6.35,-2.428074,-0.920169,1.9257549999999999,-0.181091,-0.153778,0.46736099999999997
636,6.36,-1.18232,-1.2520639999999998,1.435921,-0.071365,-0.061096000000000004,0.47373999999999994
637,6.37,0.11694400000000005,-1.467128,0.798933,0.010666000000000005,-0.0035710000000000047,0.466293
638,6.38,1.502001,-1.571218,0.09418,0.045807,0.012405,0.441788
639,6.39,2.637691,-1.684604,-0.24209,0.026642000000000002,0.022003,0.398117
640,6.4,3.408347,-1.822238,-0.473904,-0.018097,0.025192,0.342712
641,6.41,3.659082,-1.9740529999999998,-0.666661,-0.062851,0.010284,0.283066
642,6.42,3.488111,-2.145276,-0.824325,-0.117172,-0.029144,0.22767600000000002
643,6.43,3.110391,-2.34002,-0.9183110000000001,-0.18321199999999999,-0.077072,0.187195
644,6.44,2.5684259999999997,-2.267248,-0.813596,-0.246063,-0.132462,0.153107
645,6.45,1.814273,-2.038776,-0.657565,-0.29293800000000003,-0.191055,0.119019
646,6.46,1.331077,-1.67468,-0.504221,-0.321701,-0.232605,0.092377
647,6.47,1.026409,-1.239838,-0.459809,-0.323837,-0.267761,0.075333
648,6.48,0.8295950000000001,-0.9202370000000001,-0.548347,-0.305725,-0.295456,0.06681799999999999
649,6.49,0.708888,-0.783082,-0.683208,-0.27270500000000003,-0.332733,0.062561
650,6.5,0.7998930000000001,-0.7348180000000001,-0.788972,-0.238617,-0.363632,0.052962999999999996
651,6.51,1.075914,-0.685218,-0.8510700000000001,-0.19813499999999998,-0.381744,0.028473000000000002
652,6.52,1.297221,-0.64098,-0.905914,-0.142746,-0.38813800000000004,-0.007751000000000002
653,6.53,1.385291,-0.526875,-0.9471959999999999,-0.08201599999999999,-0.362564,-0.042908
654,6.54,1.292203,-0.194962,-1.1207989999999999,-0.011719,-0.308243,-0.069534
655,6.55,1.032091,0.07109799999999998,-1.343696,0.06072999999999999,-0.215561,-0.089783
656,6.56,0.632371,-0.07142799999999999,-1.836754,0.118256,-0.095184,-0.108948
657,6.57,0.11064599999999997,-0.468847,-2.220764,0.139557,0.018799,-0.119598
658,6.58,-0.33474,-0.69198,-2.414567,0.133163,0.09550499999999999,-0.119598
659,6.59,-0.7520819999999999,-0.9215979999999999,-2.1531689999999997,0.091614,0.149826,-0.133453
660,6.6,-0.579438,-0.820149,-1.7129400000000001,0.018112,0.195633,-0.154755
661,6.61,0.3418100000000001,-0.22755600000000006,-1.317572,-0.056458,0.226532,-0.141983
662,6.62,1.753068,0.8054699999999999,-1.151382,-0.08522,0.226532,-0.107895
663,6.63,2.8311189999999997,1.91735,-1.356657,-0.041533999999999995,0.160477,-0.059952
664,6.64,3.567365,3.006894,-1.549404,0.044754,0.050751,0.016754
665,6.65,3.988668,3.8724339999999997,-1.597939,0.12677,-0.085602,0.10304300000000001
666,6.66,3.4909809999999997,4.515201,-1.48504,0.199219,-0.213425,0.204239
667,6.67,2.425578,4.561523,-0.975432,0.162994,-0.247513,0.28625500000000004
668,6.68,2.012952,4.201772,0.751869,-0.022369,-0.14418,0.284134
669,6.69,1.475423,3.932612,2.439812,-0.111847,-0.098373,0.23725900000000003
670,6.7,0.653359,3.121683,3.6979910000000005,-0.10119600000000001,-0.198517,0.250046
671,6.71,-0.20926300000000006,2.455283,4.817895,-0.136353,-0.285858,0.338455
672,6.72,-0.5933470000000001,2.189852,5.691953,-0.215179,-0.28373699999999996,0.444992
673,6.73,-0.58255,1.727891,6.428838,-0.20665,-0.324219,0.52594
674,6.74,-0.39000300000000004,0.9462959999999999,6.587148,-0.039413,-0.35405,0.519547
675,6.75,-0.6394920000000001,0.658026,5.187317,0.22370900000000002,-0.39878800000000003,0.439651
676,6.76,-1.016627,0.365494,3.00251,0.46871899999999994,-0.47868299999999997,0.337387
677,6.77,-0.906301,0.137188,1.04313,0.597626,-0.530884,0.22767600000000002
678,6.78,-0.669371,-0.208265,-0.37357,0.6103970000000001,-0.515961,0.097702
679,6.79,-0.319742,-0.6578579999999999,-1.066746,0.549683,-0.46908599999999995,-0.036514
680,6.8,0.380899,-1.2800479999999999,-1.346554,0.466599,-0.428604,-0.161148
681,6.81,1.2240309999999999,-1.621853,-1.4411370000000001,0.34834299999999996,-0.427551,-0.26873800000000003
682,6.82,1.9904680000000001,-1.8125630000000001,-1.2053459999999998,0.19175699999999998,-0.43820200000000004,-0.368881
683,6.83,2.696566,-2.234159,-0.635837,0.043686,-0.523422,-0.44984399999999997
684,6.84,3.055596,-2.5672189999999997,0.16987900000000006,-0.06178300000000001,-0.674683,-0.5030979999999999
685,6.85,2.928354,-2.667623,0.786452,-0.12356600000000001,-0.8397979999999999,-0.5276029999999999
686,6.86,2.41643,-2.529232,1.043656,-0.176834,-0.9963989999999999,-0.522278
687,6.87,1.649093,-2.106925,1.052078,-0.234344,-1.154053,-0.502029
688,6.88,0.584198,-1.71207,0.993775,-0.287613,-1.292542,-0.483932
689,6.89,-0.3957479999999999,-1.1230040000000001,1.069412,-0.315308,-1.400131,-0.46368400000000004
690,6.9,-1.406872,-0.823001,1.233277,-0.303589,-1.447006,-0.45622299999999993
691,6.91,-2.459192,-0.847341,1.27536,-0.26950100000000005,-1.4342190000000001,-0.45089700000000005
692,6.92,-3.133759,-1.012317,1.134463,-0.22796599999999997,-1.368179,-0.435989
693,6.93,-3.3804809999999996,-1.3144209999999998,0.868864,-0.203461,-1.256317,-0.39657600000000004
694,6.94,-3.095611,-1.606262,0.48608599999999996,-0.186417,-1.1295620000000002,-0.33265700000000004
695,6.95,-2.442328,-1.583856,0.106475,-0.178955,-1.011307,-0.261292
696,6.96,-1.608592,-1.41096,-0.301794,-0.175766,-0.9047850000000001,-0.189911
697,6.97,-0.8103199999999999,-1.261425,-0.585116,-0.180023,-0.829147,-0.133453
698,6.98,-0.256359,-1.1191870000000002,-0.77322,-0.18748499999999998,-0.7854770000000001,-0.097229
699,6.99,0.06459599999999999,-1.119341,-0.9421370000000001,-0.185349,-0.765228,-0.07913200000000001
700,7.0,0.062217999999999996,-1.1546239999999999,-1.124884,-0.186417,-0.760971,-0.070602
701,7.01,-0.255384,-1.295444,-1.2422440000000001,-0.194931,-0.748184,-0.058884000000000006
702,7.02,-0.667656,-1.576241,-1.258679,-0.20239300000000002,-0.721558,-0.039702999999999995
703,7.03,-1.003889,-1.7485490000000001,-1.259169,-0.20985399999999998,-0.676819,-0.009887999999999996
704,7.04,-1.189223,-1.6584869999999998,-1.270773,-0.224762,-0.6246189999999999,0.027405000000000002
705,7.05,-1.186972,-1.36529,-1.184177,-0.229019,-0.59053,0.06149299999999999
706,7.06,-0.944734,-0.772167,-1.1683620000000001,-0.190674,-0.595856,0.092377
707,7.07,-0.510375,-0.186686,-1.336449,-0.10438499999999999,-0.644867,0.123276
708,7.08,0.010200000000000016,-0.12143399999999999,-1.5889799999999998,-0.030883999999999998,-0.686401,0.14032
709,7.09,0.544817,-0.33776999999999996,-1.495534,-0.017044,-0.675751,0.138184
710,7.1,1.0109139999999999,-0.480042,-1.125299,-0.025558,-0.639526,0.128601
711,7.11,1.1139620000000001,-0.271837,-0.8232139999999999,-0.015976,-0.639526,0.132858
712,7.12,0.659688,0.370165,-0.6416350000000001,0.021317,-0.675751,0.14032
713,7.13,-0.21739099999999997,1.311521,-0.7540520000000001,0.08416699999999999,-0.701324,0.141388
714,7.14,-1.138048,2.235208,-0.991334,0.15979000000000002,-0.687469,0.123276
715,7.15,-1.609135,3.040979,-1.3713520000000001,0.21092199999999997,-0.603317,0.087051
716,7.16,-1.700761,3.7195,-1.9604240000000002,0.22264099999999998,-0.502121,0.034851
717,7.17,-1.501339,4.442097,-2.445173,0.21092199999999997,-0.45311,-0.023727
718,7.18,-0.31973300000000004,5.337018,-2.577864,0.20880100000000001,-0.49678,-0.078064
719,7.19,1.005323,6.199804,-2.071645,0.05540500000000001,-0.518097,-0.107895
720,7.2,0.6645760000000001,6.220756,0.5704079999999999,-0.24819899999999998,-0.359375,-0.12599200000000002
721,7.21,0.006122999999999934,5.406555,3.284015,-0.285477,-0.161224,-0.169678
722,7.22,-0.797532,3.9959160000000002,4.621078,-0.18321199999999999,0.034775,-0.24636799999999998
723,7.23,-1.095879,2.425828,5.254805999999999,-0.142746,0.261673,-0.320938
724,7.24,-1.095083,0.8761760000000001,5.483672,-0.087341,0.399094,-0.371002
725,7.25,-0.785813,-0.5963729999999999,4.867018,0.026642000000000002,0.374603,-0.377396
726,7.26,-0.13377799999999995,-1.49106,3.8275870000000003,0.147018,0.220139,-0.323074
727,7.27,0.8743790000000001,-1.4741870000000001,2.636931,0.25354,0.069931,-0.214417
728,7.28,1.877604,-1.287158,1.421035,0.327042,-0.041916,-0.05355799999999998
729,7.29,3.0500830000000003,-0.948233,0.19796599999999984,0.333435,-0.126083,0.094513
730,7.3,3.396674,-0.7510020000000001,-0.558715,0.24395799999999998,-0.182541,0.182922
731,7.31,2.787472,-0.816606,-0.577821,0.11718800000000001,-0.235794,0.228729
732,7.32,1.637664,-1.095466,-0.292942,0.031967,-0.261368,0.255371
733,7.33,0.224322,-1.422785,0.048879000000000006,-0.027695,-0.259232,0.276672
734,7.34,-1.152513,-1.593046,0.497007,-0.070297,-0.20916700000000002,0.312897
735,7.35,-2.3924950000000003,-1.7223810000000002,0.900075,-0.10119600000000001,-0.122879,0.351242
736,7.36,-3.352389,-1.671768,1.335927,-0.10971099999999999,-0.017425999999999997,0.4077
737,7.37,-3.825962,-1.567708,1.797759,-0.088409,0.112549,0.465225
738,7.38,-3.491447,-1.605026,2.056705,-0.02449,0.273392,0.507843
739,7.39,-2.4656439999999997,-1.6229930000000001,1.744906,0.063919,0.44490100000000005,0.524887
740,7.4,-1.1850579999999995,-1.705971,1.041739,0.131027,0.569534,0.5227510000000001
741,7.41,0.280143,-1.7140900000000001,0.289976,0.151276,0.6334529999999999,0.49717700000000004
742,7.42,1.641327,-1.636789,-0.17172300000000001,0.123581,0.647308,0.44711300000000004
743,7.43,2.819704,-1.6453799999999998,-0.396967,0.078842,0.626007,0.390656
744,7.44,3.460242,-1.594368,-0.45441499999999996,0.027710000000000002,0.583389,0.340591
745,7.45,3.71262,-1.6924919999999999,-0.48441999999999996,-0.015976,0.533325,0.29478499999999996
746,7.46,3.5515510000000003,-1.706932,-0.539108,-0.050064,0.46940600000000005,0.251114
747,7.47,2.948632,-1.608133,-0.665759,-0.072433,0.398041,0.209564
748,7.48,2.1469810000000003,-1.4668940000000001,-0.8392,-0.087341,0.323471,0.168015
749,7.49,1.34505,-1.2517479999999999,-0.9217549999999999,-0.097992,0.24144000000000002,0.128601
750,7.5,0.698292,-1.1594229999999999,-0.975958,-0.089478,0.176453,0.095581
751,7.51,0.22686599999999998,-1.196703,-1.016002,-0.072433,0.124268,0.06575
752,7.52,-0.022572,-1.268299,-1.102095,-0.053252999999999995,0.097626,0.035919
753,7.53,-0.021656,-1.211021,-1.099601,-0.034088,0.09336900000000001,0.011429
754,7.54,0.030889999999999997,-0.974417,-1.118162,-0.0010529999999999984,0.11041300000000001,-0.013077000000000002
755,7.55,0.167363,-0.736402,-1.209623,0.039428999999999985,0.143433,-0.026931999999999998
756,7.56,0.26774499999999996,-0.487911,-1.319593,0.080963,0.22013899999999997,-0.046097000000000006
757,7.57,0.245179,-0.360491,-1.497325,0.10546900000000001,0.31494099999999997,-0.07486
758,7.58,0.01827400000000001,-0.49179300000000004,-1.532499,0.11398299999999999,0.406555,-0.10043300000000001
759,7.59,-0.411928,-0.586472,-1.619637,0.134232,0.461945,-0.10255399999999999
760,7.6,-0.838462,-0.562455,-1.8030009999999999,0.170456,0.503494,-0.08125299999999999
761,7.61,-1.136217,-0.42605600000000005,-1.877606,0.180038,0.568481,-0.071671
762,7.62,-0.817609,-0.05989700000000001,-1.8542470000000002,0.13742100000000002,0.659027,-0.082321
763,7.63,0.091269,0.472778,-1.712032,0.056473,0.7026979999999999,-0.071671
764,7.64,1.198415,1.030867,-1.427433,-0.009583,0.6899109999999999,-0.041839999999999995
765,7.65,2.114521,1.7195740000000002,-1.357593,-0.0031889999999999987,0.6323850000000001,0.014618000000000003
766,7.66,2.854177,2.6025650000000002,-1.701548,0.049011,0.547165,0.096649
767,7.67,2.824331,3.5250559999999997,-2.091612,0.104401,0.414017,0.20849600000000001
768,7.68,2.0985650000000002,4.48778,-2.0127,0.1353,0.31494099999999997,0.336334
769,7.69,1.282146,5.051419999999999,-1.282374,0.049011,0.29470799999999997,0.4077
770,7.7,1.227025,4.976021,0.8210780000000001,-0.15551800000000002,0.330917,0.368286
771,7.71,1.0414290000000002,4.826294,2.757638,-0.180023,0.308548,0.30862399999999995
772,7.72,0.55055,4.262761,3.8252639999999998,-0.091599,0.21160900000000002,0.322479
773,7.73,0.024399000000000004,3.7471879999999995,4.361537,-0.122498,0.104019,0.416229
774,7.74,-0.544042,3.047339,5.310442,-0.203461,0.041168,0.539795
775,7.75,-0.872268,1.911505,6.216222,-0.174698,0.046494,0.596252
776,7.76,-1.122981,0.759679,6.490582,0.011718999999999992,0.102951,0.5451199999999999
777,7.77,-1.874139,0.11925799999999992,5.1135470000000005,0.296158,0.173264,0.43432600000000005
778,7.78,-2.34219,-0.42525799999999997,2.640598,0.539032,0.174332,0.313965
779,7.79,-2.472438,-0.526046,0.4902729999999999,0.633835,0.170074,0.176544
780,7.8,-2.220582,-0.728297,-0.708605,0.599747,0.230789,0.029526
781,7.81,-1.771755,-1.020835,-1.217437,0.476181,0.322403,-0.114273
782,7.82,-0.8853040000000001,-1.4335129999999998,-1.306718,0.320648,0.379929,-0.230392
783,7.83,0.265358,-1.681798,-1.279189,0.166183,0.362885,-0.303894
784,7.84,1.53939,-1.6987299999999999,-0.847249,0.0032039999999999985,0.27766399999999997,-0.353958
785,7.85,2.731521,-1.3366360000000002,-0.169298,-0.129959,0.146637,-0.401901
786,7.86,3.315971,-1.389461,0.6268229999999999,-0.191742,-0.040848,-0.44345100000000004
787,7.87,3.235011,-1.467244,1.389477,-0.147003,-0.27415500000000004,-0.45410200000000006
788,7.88,2.5451349999999997,-1.153419,1.7493459999999998,-0.043670999999999995,-0.442459,-0.44984399999999997
789,7.89,0.753922,-0.8570040000000001,1.1729,0.090561,-0.6129,-0.444504
790,7.9,-0.655215,-0.901726,0.526277,0.127838,-0.68428,-0.444504
791,7.91,-1.9060810000000001,-1.136635,0.123093,0.125702,-0.7173,-0.43173199999999995
792,7.92,-3.0480270000000003,-1.420231,-0.141101,0.100143,-0.699188,-0.42852799999999996
793,7.93,-3.86335,-1.9130060000000002,-0.292779,0.049011,-0.643799,-0.41255200000000003
794,7.94,-4.062412999999999,-2.424323,-0.310408,-0.017043999999999997,-0.564972,-0.37953200000000004
795,7.95,-3.660025,-2.765172,-0.35639699999999996,-0.080948,-0.47229,-0.335861
796,7.96,-2.8603400000000003,-2.807583,-0.34915999999999997,-0.149124,-0.37854,-0.283661
797,7.97,-1.96003,-2.508066,-0.31699099999999997,-0.204529,-0.29331999999999997,-0.22506700000000002
798,7.98,-1.233106,-1.9111740000000002,-0.385984,-0.24287399999999998,-0.22514299999999998,-0.166473
799,7.99,-0.611725,-1.500368,-0.545534,-0.264175,-0.19426,-0.110016
800,8.0,-0.156124,-1.239468,-0.733701,-0.268433,-0.201706,-0.068466
801,8.01,-0.019711000000000003,-1.2765090000000001,-0.878692,-0.26950100000000005,-0.22302199999999997,-0.055695
802,8.02,-0.126304,-1.465684,-0.9828540000000001,-0.281219,-0.24644499999999997,-0.049301
803,8.03,-0.457158,-1.8871790000000002,-0.974982,-0.295074,-0.267761,-0.045044
804,8.04,-0.8870899999999999,-2.2141759999999997,-1.007365,-0.31851199999999996,-0.277344,-0.030121
805,8.05,-1.262937,-2.297987,-1.065999,-0.354721,-0.282669,-0.00028999999999999865
806,8.06,-1.496001,-1.845709,-0.9943069999999999,-0.398407,-0.295456,0.060424999999999986
807,8.07,-1.371356,-1.090295,-0.764305,-0.389877,-0.307175,0.110489
808,8.08,-1.082358,-0.105174,-0.763404,-0.317444,-0.35191300000000003,0.166946
809,8.09,-0.623384,0.660556,-1.2374399999999999,-0.18321199999999999,-0.442459,0.21914699999999998
810,8.1,-0.115093,0.8418899999999999,-1.805252,-0.07775900000000001,-0.52449,0.254303
811,8.11,0.498463,0.696075,-2.020505,-0.040466,-0.5575100000000001,0.270279
812,8.12,0.6139140000000001,0.560341,-1.78167,-0.056458,-0.585205,0.268158
813,8.13,0.317621,0.904918,-1.432734,-0.059647000000000006,-0.6576390000000001,0.276672
814,8.14,-0.39208000000000004,1.53406,-1.134323,-0.013839999999999998,-0.713043,0.26709
815,8.15,-1.258573,2.207092,-0.972634,0.051132,-0.681076,0.22235100000000002
816,8.16,-1.823204,2.982617,-1.035756,0.101212,-0.548981,0.134995
817,8.17,-2.16709,3.652774,-1.2416120000000002,0.10760499999999999,-0.377472,0.018875000000000003
818,8.18,-2.07088,4.272924,-1.520239,0.11718800000000001,-0.26455700000000004,-0.08871500000000003
819,8.19,-1.208169,5.237101999999999,-1.89757,0.14595,-0.22514299999999998,-0.166473
820,8.2,0.17388099999999995,5.893209,-1.954009,-0.018097,-0.137787,-0.205887
821,8.21,0.096344,5.64036,0.124498,-0.405853,-0.062164,-0.23892199999999997
822,8.22,-0.688203,4.878501,3.074822,-0.528366,-0.047241000000000005,-0.27833600000000003
823,8.23,-1.331053,3.7875370000000004,4.912964,-0.45698500000000003,0.099762,-0.303894
824,8.24,-1.86086,2.734263,5.735431,-0.398407,0.369278,-0.352905
825,8.25,-1.7402330000000001,1.743653,6.021454,-0.30998200000000004,0.540787,-0.377396
826,8.26,-1.685591,0.74665,5.748926,-0.142746,0.551437,-0.365677
827,8.27,-1.073588,-0.2530760000000001,5.096759,0.044754,0.513077,-0.308151
828,8.28,0.007633000000000002,-0.80137,3.890625,0.237564,0.532257,-0.21228000000000002
829,8.29,0.683806,-0.946857,2.2480700000000002,0.401611,0.559952,-0.09404
830,8.3,1.340223,-0.880652,0.399901,0.466599,0.564209,0.033798000000000016
831,8.31,1.682791,-0.908364,-0.724795,0.408005,0.536514,0.141388
832,8.32,1.4494340000000001,-0.9514379999999999,-1.16923,0.288696,0.463013,0.226608
833,8.33,0.651374,-1.101883,-0.9781920000000001,0.165115,0.376724,0.290527
834,8.34,-0.43775200000000003,-1.271301,-0.608881,0.077774,0.292572,0.34484899999999996
835,8.35,-1.447443,-1.353949,-0.168194,0.006393000000000003,0.253159,0.40023800000000004
836,8.36,-2.140354,-1.351249,0.130653,-0.034088,0.291504,0.454575
837,8.37,-2.579114,-1.308501,0.49585200000000007,-0.040466,0.387375,0.505707
838,8.38,-2.558161,-1.368115,1.0837510000000001,-0.026626999999999998,0.5077510000000001,0.536591
839,8.39,-2.180778,-1.531183,1.561248,0.005340999999999999,0.666473,0.546188
840,8.4,-1.518073,-1.664075,1.785869,0.06072999999999999,0.8316040000000001,0.533401
841,8.41,-0.666479,-1.7646400000000002,1.660875,0.12251300000000001,0.9626309999999999,0.5121
842,8.42,0.15031600000000006,-1.8784290000000001,1.252043,0.171509,1.052109,0.485458
843,8.43,1.050504,-1.994,0.691983,0.186432,1.1000370000000002,0.45883199999999996
844,8.44,1.758384,-2.137553,0.17643599999999998,0.175781,1.098984,0.42048599999999997
845,8.45,2.34461,-2.16186,-0.33064699999999997,0.138489,1.061691,0.393845
846,8.46,2.683456,-2.088162,-0.668514,0.07457000000000001,0.989258,0.354431
847,8.47,2.642523,-1.9527279999999998,-0.74811,0.012787,0.897644,0.309692
848,8.48,2.3462549999999998,-1.764203,-0.754375,-0.034088,0.797516,0.260696
849,8.49,1.721828,-1.518629,-0.71014,-0.058578,0.716553,0.209564
850,8.5,1.0559120000000002,-1.368683,-0.743917,-0.058578,0.649429,0.160553
851,8.51,0.602647,-1.231248,-0.9048639999999999,-0.038345,0.582321,0.113693
852,8.52,0.347975,-1.2161309999999999,-1.08474,-0.020233,0.529068,0.072144
853,8.53,0.29923,-1.379154,-1.212487,-0.004257,0.48963900000000005,0.029526
854,8.54,0.24477800000000002,-1.545491,-1.234394,0.012787,0.45982399999999995,-0.017334000000000002
855,8.55,0.13805,-1.605207,-1.357969,0.027710000000000002,0.44596899999999995,-0.064209
856,8.56,-0.05655399999999999,-1.504807,-1.4810590000000001,0.046875,0.440643,-0.10682699999999999
857,8.57,-0.240681,-1.081421,-1.650739,0.069244,0.452362,-0.139847
858,8.58,-0.325936,-0.571177,-1.917038,0.10653699999999999,0.485382,-0.156891
859,8.59,-0.306845,-0.289578,-2.371841,0.14595,0.506699,-0.16328399999999998
860,8.6,-0.408292,-0.491953,-2.694627,0.1353,0.49177600000000005,-0.154755
861,8.61,-0.828081,-0.838744,-2.455477,0.077774,0.44490100000000005,-0.117477
862,8.62,-1.241152,-0.939951,-2.012657,0.022385,0.458755,-0.063141
863,8.63,-0.9698100000000001,-0.311581,-1.142792,-0.036209,0.6739350000000001,-0.034378
864,8.64,-0.36843200000000004,0.609269,-0.9691930000000001,-0.039413,0.834793,-0.072739
865,8.65,0.18759,1.587604,-1.12978,-0.023422,0.844376,-0.101501
866,8.66,0.798737,2.5283849999999997,-1.248017,0.014923000000000004,0.750641,-0.057816
867,8.67,1.5098260000000001,3.2520279999999997,-1.292683,0.073517,0.695236,0.044449
868,8.68,1.87087,3.6828540000000003,-1.701813,0.161926,0.6323850000000001,0.17440799999999998
869,8.69,1.725228,3.9968019999999997,-1.965877,0.257797,0.537582,0.303299
870,8.7,0.8581690000000001,4.211707,-1.615365,0.275909,0.473663,0.356567
871,8.71,0.323427,4.208601,0.029761999999999955,0.036224000000000006,0.496033,0.30011
872,8.72,0.115725,4.269933999999999,2.2345759999999997,-0.24394200000000002,0.547165,0.231934
873,8.73,-0.381405,3.8553949999999997,4.031548,-0.24287399999999998,0.417206,0.270279
874,8.74,-1.103019,3.369614,4.84084,-0.194931,0.22758500000000004,0.42260699999999995
875,8.75,-1.815767,2.950768,5.894923,-0.224762,0.116806,0.610107
876,8.76,-2.000109,2.404672,7.422356,-0.168304,0.193497,0.7336729999999999
877,8.77,-1.8248389999999999,1.9784419999999998,7.379361,0.076706,0.384186,0.7198180000000001
878,8.78,-2.186512,1.9166860000000001,5.0723199999999995,0.410141,0.46726999999999996,0.597321
879,8.79,-2.421777,2.174097,2.011731,0.624252,0.438507,0.453506
880,8.8,-1.987105,2.180744,-0.05080600000000002,0.64769,0.407623,0.293716
881,8.81,-1.290284,1.877298,-0.730537,0.584839,0.429993,0.113693
882,8.82,-0.47643900000000006,1.071569,-0.609583,0.539032,0.46833800000000003,-0.045044
883,8.83,0.642648,0.15663699999999994,-0.45410600000000007,0.488968,0.51947,-0.175003
884,8.84,1.6864880000000002,-0.256248,-0.382792,0.390961,0.558884,-0.29643200000000003
885,8.85,2.220734,-0.890739,-0.044291000000000004,0.298279,0.537582,-0.420013
886,8.86,2.686013,-1.645139,0.5131760000000001,0.264191,0.484314,-0.5265350000000001
887,8.87,2.454552,-2.494816,0.731128,0.28656,0.410812,-0.600037
888,8.88,1.80217,-2.9378990000000003,0.429349,0.300415,0.374603,-0.644775
889,8.89,1.008475,-3.176055,-0.292537,0.266327,0.301102,-0.666092
890,8.9,0.03162399999999998,-3.3800809999999997,-0.754174,0.171509,0.162613,-0.665024
891,8.91,-1.2248629999999998,-3.3460989999999997,-0.7805300000000001,0.039429000000000006,0.02626000000000001,-0.652237
892,8.92,-2.602968,-3.1092169999999997,-0.40566399999999997,-0.074554,-0.08560200000000001,-0.623474
893,8.93,-3.708383,-2.799412,-0.047458,-0.139542,-0.126083,-0.5616909999999999
894,8.94,-4.054018,-2.445955,0.066548,-0.177887,-0.123947,-0.47966000000000003
895,8.95,-3.66994,-2.225844,0.147047,-0.20985399999999998,-0.11116,-0.397644
896,8.96,-2.734859,-2.1611290000000003,0.13625,-0.234344,-0.11436500000000001,-0.3284
897,8.97,-1.655225,-2.076709,0.21561599999999997,-0.25245700000000004,-0.127136,-0.28471399999999997
898,8.98,-0.827808,-1.855088,0.27070500000000003,-0.24819899999999998,-0.134598,-0.24636799999999998
899,8.99,-0.39010100000000003,-1.547675,0.293286,-0.224762,-0.13352999999999998,-0.21121199999999998
900,9.0,-0.280871,-1.2782950000000002,0.049455,-0.174698,-0.123947,-0.166473
901,9.01,-0.467321,-1.1181299999999998,-0.386287,-0.111847,-0.11116,-0.12066700000000001
902,9.02,-0.8620909999999999,-1.245625,-0.757211,-0.036209,-0.086655,-0.07486
903,9.03,-1.430849,-1.630676,-1.097688,0.027710000000000002,-0.055771,-0.030121
904,9.04,-1.7854990000000002,-1.9075369999999998,-1.428151,0.049011,-0.016357,0.01355
905,9.05,-1.822016,-2.0118169999999997,-1.588518,0.027710000000000002,0.014542,0.048706
906,9.06,-1.616041,-1.916551,-1.5997620000000001,-0.011719000000000002,0.022003,0.07428
907,9.07,-1.200117,-1.601274,-1.481614,-0.025558,-0.018478,0.10304300000000001
908,9.08,-0.680381,-0.969931,-1.6614400000000002,0.0010679999999999995,-0.102646,0.142456
909,9.09,-0.09365800000000007,-0.5251140000000001,-2.132735,0.040482,-0.22195399999999998,0.186127
910,9.1,0.46102,-0.37555900000000003,-2.40211,0.047943,-0.34126300000000004,0.223404
911,9.11,1.013875,-0.268839,-2.29166,0.012787,-0.43499799999999994,0.260696
912,9.12,1.013061,0.08431499999999997,-1.816611,-0.021301,-0.550049,0.289459
913,9.13,0.260259,0.934679,-1.140655,-0.018097,-0.687469,0.31929
914,9.14,-0.886509,1.8666049999999998,-0.359806,0.014923,-0.732208,0.313965
915,9.15,-2.1886650000000003,2.677232,0.19703900000000002,0.071381,-0.6022489999999999,0.240448
916,9.16,-3.16093,3.6372720000000003,0.021770000000000008,0.167252,-0.40518200000000004,0.12434400000000001
917,9.17,-3.3645699999999996,4.189856,-0.741772,0.296158,-0.248581,0.009292999999999996
918,9.18,-2.457417,4.054089,-1.632642,0.46127299999999993,-0.153778,-0.065277
919,9.19,-0.956308,4.324317,-2.680199,0.58696,-0.169754,-0.11322
920,9.2,0.5624020000000001,4.5309989999999996,-2.606507,0.497482,-0.238998,-0.155823
921,9.21,0.765416,4.584679,-0.510073,0.151276,-0.24432399999999999,-0.226135
922,9.22,-0.11536400000000002,4.290627,2.1209540000000002,-0.073502,-0.292252,-0.291107
923,9.23,-0.712431,3.412704,3.9419720000000003,-0.07775900000000001,-0.24644499999999997,-0.333725
924,9.24,-0.947565,2.375369,4.793387,-0.10119600000000001,-0.032333,-0.3806
925,9.25,-1.7314080000000003,1.452809,5.574148,-0.12356600000000001,0.226532,-0.41787700000000005
926,9.26,-1.850956,0.8827520000000001,5.677616,-0.031952,0.365005,-0.41787700000000005
927,9.27,-0.810515,0.699638,5.196763,0.100143,0.46726999999999996,-0.377396
928,9.28,0.14643099999999992,0.22191799999999998,4.345608,0.20134000000000002,0.626007,-0.358231
929,9.29,0.735893,0.24173200000000003,2.833685,0.294022,0.721878,-0.309219
930,9.3,0.9775459999999999,0.5559609999999999,1.164132,0.327042,0.715485,-0.22187800000000002
931,9.31,1.089189,0.457507,0.050095,0.278046,0.6899109999999999,-0.107895
932,9.32,0.764926,0.078291,-0.235947,0.194946,0.675003,-0.0024259999999999976
933,9.33,-0.11349600000000006,-0.199241,-0.209238,0.129974,0.663284,0.106232
934,9.34,-0.954015,-0.49565,0.10205299999999999,0.07457000000000001,0.665421,0.209564
935,9.35,-1.823779,-0.986764,0.570397,0.0522,0.6739350000000001,0.334198
936,9.36,-2.6227970000000003,-1.520514,0.920482,0.06072999999999999,0.695236,0.43327299999999996
937,9.37,-3.240535,-1.773796,1.157907,0.08522,0.776199,0.49398800000000004
938,9.38,-3.191166,-2.14761,1.2162819999999999,0.110794,0.874207,0.542984
939,9.39,-3.088677,-2.221539,1.264125,0.1353,1.014816,0.5440520000000001
940,9.4,-2.409653,-2.367985,1.256356,0.15020799999999998,1.1820680000000001,0.532333
941,9.41,-1.277866,-2.366486,1.0516159999999999,0.16406199999999999,1.3184200000000001,0.505707
942,9.42,0.048329999999999984,-2.263584,0.6392220000000001,0.171509,1.421753,0.47268699999999997
943,9.43,1.34366,-2.1480349999999997,0.20025199999999999,0.152344,1.494186,0.43327299999999996
944,9.44,2.506462,-2.062304,-0.153591,0.100143,1.525085,0.386398
945,9.45,3.264224,-1.921484,-0.433733,0.024506,1.484604,0.348053
946,9.46,3.5599480000000003,-1.7628,-0.41632399999999997,-0.055389000000000015,1.375946,0.31076
947,9.47,3.3502059999999996,-1.684809,-0.221379,-0.10545299999999999,1.217224,0.271347
948,9.48,2.693868,-1.612031,-0.144146,-0.116104,1.043579,0.24151599999999998
949,9.49,1.9106610000000002,-1.315663,-0.296973,-0.096939,0.8923190000000001,0.218079
950,9.5,1.2107620000000001,-1.039592,-0.566837,-0.07989500000000001,0.7836609999999999,0.18399000000000001
951,9.51,0.729241,-0.905065,-0.819723,-0.062851,0.71228,0.149902
952,9.52,0.4179550000000001,-0.979282,-1.02904,-0.04686,0.660095,0.110489
953,9.53,0.297688,-1.150684,-1.245536,-0.034088,0.626007,0.071075
954,9.54,0.29084099999999996,-1.482892,-1.394183,-0.027694999999999997,0.608963,0.033798
955,9.55,0.36328499999999997,-1.6707560000000001,-1.463449,-0.029816000000000002,0.6025699999999999,-0.0013580000000000016
956,9.56,0.38361300000000004,-1.710437,-1.456656,-0.036209,0.610016,-0.031188999999999998
957,9.57,0.23751799999999998,-1.4574690000000001,-1.378213,-0.028763,0.63559,-0.046097000000000006
958,9.58,0.004930000000000004,-0.885286,-1.3700700000000001,0.024506,0.675003,-0.062088
959,9.59,-0.229289,-0.30424,-1.602268,0.10760499999999999,0.728271,-0.073792
960,9.6,-0.45030200000000004,0.004344000000000001,-2.0836580000000002,0.180038,0.737854,-0.08551
961,9.61,-0.810512,-0.139046,-2.464146,0.203476,0.71228,-0.08551
962,9.62,-1.217415,-0.44683900000000004,-2.333452,0.182159,0.6920470000000001,-0.091904
963,9.63,-1.348395,-0.544841,-1.875786,0.119324,0.730392,-0.114273
964,9.64,-0.7746350000000001,-0.24304100000000006,-1.3250309999999998,0.026642000000000002,0.8124239999999999,-0.144104
965,9.65,0.29687199999999997,0.242067,-0.8542360000000001,-0.062851,0.8720700000000001,-0.144104
966,9.66,1.426303,0.965374,-0.655802,-0.097992,0.897644,-0.119598
967,9.67,2.7666720000000002,2.01078,-1.090908,-0.052185,0.8614200000000001,-0.048233
968,9.68,3.7555709999999998,2.98795,-1.7208990000000002,0.037292000000000006,0.725067,0.029525999999999986
969,9.69,3.889269,3.748332,-2.1765209999999997,0.141693,0.5578310000000001,0.1073
970,9.7,2.9653970000000003,4.115126999999999,-2.198446,0.241821,0.390579,0.191452
971,9.71,1.6750029999999998,4.3497650000000005,-1.6806709999999998,0.24395799999999998,0.267014,0.23086500000000001
972,9.72,0.35189800000000004,4.4657540000000004,-0.115896,0.05326800000000002,0.261673,0.197845
973,9.73,-0.24168499999999998,4.370014,1.552042,-0.10865799999999999,0.367142,0.12114000000000001
974,9.74,-0.934472,4.034673000000001,2.598824,-0.111847,0.387375,0.114746
975,9.75,-1.655516,3.2811980000000003,3.310424,-0.137405,0.311752,0.209564
976,9.76,-2.4839599999999997,2.642506,4.525766,-0.26310700000000004,0.280853,0.35549899999999995
977,9.77,-2.8187189999999998,1.874036,5.702849,-0.31105,0.38205,0.48120100000000005
978,9.78,-2.247832,0.945994,5.647208,-0.20559699999999997,0.476868,0.517426
979,9.79,-1.706425,0.559298,4.56056,0.01811199999999999,0.509888,0.46203599999999995
980,9.8,-1.742796,0.44933900000000004,2.735602,0.280167,0.49177600000000005,0.34591700000000003
981,9.81,-1.681764,0.583101,0.8154650000000001,0.43251000000000006,0.48645,0.21595799999999998
982,9.82,-1.440405,0.629308,-0.249942,0.44316099999999997,0.515213,0.067886
983,9.83,-0.868993,0.522404,-0.51281,0.367523,0.584457,-0.068466
984,9.84,0.05499600000000005,0.260058,-0.58773,0.273773,0.603638,-0.194168
985,9.85,0.936433,-0.112239,-0.709811,0.207733,0.536514,-0.28685
986,9.86,2.249502,-0.20995500000000003,-0.797504,0.12251300000000001,0.423599,-0.34970100000000004
987,9.87,3.10985,-0.571574,-0.41161499999999995,0.017044000000000004,0.31601,-0.45516999999999996
988,9.88,3.316918,-1.170316,0.23406900000000005,-0.023422,0.163681,-0.535065
989,9.89,2.899873,-1.770428,0.8851100000000001,0.009598,-0.014220999999999998,-0.577667
990,9.9,2.131898,-2.130098,1.019835,0.08203099999999999,-0.161224,-0.581924
991,9.91,1.207629,-2.24138,0.6054729999999999,0.124649,-0.28373699999999996,-0.569153
992,9.92,0.031772000000000016,-2.302324,0.04905599999999999,0.125702,-0.404114,-0.55423
993,9.93,-1.110175,-2.220324,-0.351109,0.083099,-0.504242,-0.536118
994,9.94,-2.313534,-2.1547009999999998,-0.52386,0.026642000000000002,-0.550049,-0.528671
995,9.95,-3.2315549999999997,-2.233886,-0.471865,-0.026626999999999998,-0.5553739999999999,-0.518021
996,9.96,-3.778278,-2.243609,-0.389207,-0.063904,-0.527679,-0.494583
997,9.97,-3.683411,-2.23642,-0.345521,-0.094803,-0.459503,-0.458359
998,9.98,-3.128573,-2.5141299999999998,-0.245412,-0.13208,-0.383865,-0.41255200000000003
999,9.99,-2.371876,-2.541782,-0.258438,-0.149124,-0.329544,-0.34863299999999997
1000,10.0,-1.624923,-2.300354,-0.354829,-0.174698,-0.28480500000000003,-0.28685
1001,10.01,-1.07733,-1.8156560000000002,-0.5232829999999999,-0.194931,-0.27308699999999997,-0.222931
1002,10.02,-0.637048,-1.482259,-0.645429,-0.203461,-0.27095,-0.170731
1003,10.03,-0.41628000000000004,-1.336927,-0.699459,-0.195999,-0.27095,-0.13131700000000002
1004,10.04,-0.403438,-1.332075,-0.782954,-0.172562,-0.269882,-0.09829700000000001
1005,10.05,-0.6097520000000001,-1.563099,-0.9013620000000001,-0.136353,-0.27948,-0.069534
1006,10.06,-0.859331,-1.920018,-1.011472,-0.10865799999999999,-0.282669,-0.045044
1007,10.07,-1.048216,-2.2203049999999998,-1.230306,-0.11398299999999999,-0.27308699999999997,-0.023727
1008,10.08,-1.0948120000000001,-2.256638,-1.53372,-0.170441,-0.261368,-0.0013580000000000016
1009,10.09,-1.052275,-1.9805549999999998,-1.604641,-0.241806,-0.268814,0.0242
1010,10.1,-0.724092,-0.18821199999999996,-1.6492630000000001,-0.259918,-0.381744,0.10516400000000001
1011,10.11,-0.45848900000000004,0.66247,-1.973438,-0.18428,-0.482941,0.155228
1012,10.12,-0.08376,0.9592149999999999,-2.2388939999999997,-0.138474,-0.564972,0.197845
1013,10.13,0.411951,1.043506,-2.220384,-0.166168,-0.5862729999999999,0.22979699999999997
1014,10.14,0.627985,1.197393,-1.6455990000000003,-0.224762,-0.605438,0.240448
1015,10.15,0.200971,1.789557,-0.91455,-0.235413,-0.681076,0.226608
1016,10.16,-1.123952,2.467445,-0.112041,-0.15551800000000002,-0.740738,0.17440799999999998
1017,10.17,-2.219921,3.026002,0.243258,-0.027695,-0.686401,0.100906
1018,10.18,-3.046241,3.5942870000000005,-0.17504,0.116119,-0.551117,0.0039669999999999974
1019,10.19,-3.372739,4.000102,-1.138906,0.232239,-0.380676,-0.086578
1020,10.2,-2.853005,3.977447,-2.12184,0.318527,-0.228348,-0.153687
1021,10.21,-1.5165629999999999,4.348197,-2.5924099999999997,0.357941,-0.14418,-0.198441
1022,10.22,0.25219400000000003,4.827380000000001,-2.51118,0.189621,-0.071747,-0.233582
1023,10.23,0.318689,4.7244470000000005,-0.4627920000000001,-0.17895500000000006,-0.007828000000000002,-0.26873800000000003
1024,10.24,-0.3232419999999999,4.149064,2.0713470000000003,-0.294006,-0.032333,-0.29643200000000003
1025,10.25,-0.600295,3.2209630000000002,3.506815,-0.264175,-0.024872,-0.304962
1026,10.26,-0.8878219999999999,2.300812,4.583648999999999,-0.290817,0.10189800000000003,-0.311356
1027,10.27,-1.111063,1.3430870000000001,5.5522540000000005,-0.285477,0.257416,-0.312424
1028,10.28,-0.782917,0.424133,5.676552,-0.165115,0.30748000000000003,-0.297501
1029,10.29,0.004450999999999983,-0.262432,5.24872,-0.013840000000000005,0.26806599999999997,-0.261292
1030,10.3,0.8974600000000001,-0.813805,4.517165,0.14595,0.253159,-0.198441
1031,10.31,1.6516220000000001,-0.927491,3.142113,0.315323,0.278717,-0.12705999999999998
1032,10.32,2.212399,-0.818859,1.241571,0.42504899999999995,0.286179,-0.039702999999999995
1033,10.33,2.3866110000000003,-0.858191,-0.4500080000000001,0.41333000000000003,0.284058,0.029526
1034,10.34,1.919488,-0.943103,-1.218132,0.290817,0.271271,0.07746900000000001
1035,10.35,0.81512,-0.955623,-1.258576,0.14488199999999998,0.256348,0.139252
1036,10.36,-0.322518,-0.844649,-0.7705960000000001,0.015991000000000002,0.23611500000000002,0.21595799999999998
1037,10.37,-1.20765,-0.531042,0.05875900000000001,-0.086273,0.24144000000000002,0.293716
1038,10.38,-1.932798,-0.526475,0.8553649999999999,-0.119308,0.28299,0.365097
1039,10.39,-2.6091740000000003,-0.730342,1.344924,-0.076691,0.360748,0.42474399999999995
1040,10.4,-2.6833560000000003,-1.1139780000000001,1.52893,0.004271999999999998,0.48963900000000005,0.486526
1041,10.41,-2.284017,-1.486349,1.4661680000000001,0.10227999999999997,0.604691,0.5121
1042,10.42,-1.534412,-1.920648,1.093431,0.180038,0.7389220000000001,0.516357
1043,10.43,-0.58408,-2.303774,0.71055,0.21519499999999997,0.826263,0.49291999999999997
1044,10.44,0.15480900000000006,-2.467964,0.275208,0.221588,0.893387,0.46096800000000004
1045,10.45,1.0237399999999999,-2.595339,-0.12256300000000002,0.200272,0.9402469999999999,0.429001
1046,10.46,1.752779,-2.713984,-0.628067,0.15979000000000002,0.9700780000000001,0.399185
1047,10.47,2.3041970000000003,-2.611788,-1.121215,0.092682,0.9700780000000001,0.370422
1048,10.48,2.756079,-2.2676939999999997,-1.421201,-0.002120999999999998,0.935989,0.34165999999999996
1049,10.49,2.912851,-1.869961,-1.396344,-0.09906000000000001,0.867813,0.306503
1050,10.5,2.794869,-1.4427590000000001,-1.1188120000000001,-0.180023,0.7740779999999999,0.261765
1051,10.51,2.256512,-1.141155,-0.768985,-0.220505,0.659027,0.20742800000000003
1052,10.52,1.491838,-0.971044,-0.504965,-0.22583000000000003,0.548233,0.149902
1053,10.53,0.884559,-0.993705,-0.344387,-0.199203,0.466217,0.108368
1054,10.54,0.433658,-1.0640459999999998,-0.30793400000000004,-0.15979000000000002,0.426804,0.07746900000000001
1055,10.55,0.238246,-1.1938010000000001,-0.446349,-0.11503599999999999,0.40976,0.055099
1056,10.56,0.201034,-1.204173,-0.654738,-0.072433,0.403366,0.038055
1057,10.57,0.190432,-1.221416,-0.8744649999999999,-0.037277,0.394836,0.025269
1058,10.58,0.229415,-0.9678889999999999,-1.065823,0.0032039999999999985,0.38311799999999996,0.003967
1059,10.59,0.21578000000000003,-0.796145,-1.2963770000000001,0.04155,0.37886,-0.025864
1060,10.6,0.154305,-0.545558,-1.619392,0.091614,0.384186,-0.067413
1061,10.61,0.101512,-0.309494,-2.128832,0.141693,0.38311799999999996,-0.10682699999999999
1062,10.62,0.086449,-0.266293,-2.457668,0.169388,0.35968,-0.134521
1063,10.63,0.081097,-0.305177,-2.551525,0.17897000000000002,0.325592,-0.137711
1064,10.64,-0.027598000000000004,-0.22369899999999998,-2.3229029999999997,0.172577,0.346909,-0.132385
1065,10.65,-0.004622000000000001,0.048869,-1.9379529999999998,0.153412,0.461945,-0.136642
1066,10.66,0.411896,0.508189,-1.799655,0.128906,0.604691,-0.16328399999999998
1067,10.67,1.0744850000000001,1.0810309999999999,-1.802534,0.096939,0.686722,-0.180328
1068,10.68,1.655556,1.469049,-1.855466,0.103333,0.6803279999999999,-0.17393499999999998
1069,10.69,1.951279,1.9805669999999997,-2.139383,0.15020799999999998,0.621735,-0.137711
1070,10.7,2.168657,2.326893,-2.635206,0.202408,0.538651,-0.075928
1071,10.71,1.733639,2.669425,-3.087164,0.24075300000000002,0.402298,-0.0034939999999999967
1072,10.72,1.0702,3.183871,-3.0435689999999997,0.274841,0.288315,0.071075
1073,10.73,0.1827870000000001,3.5530760000000003,-2.385119,0.258865,0.212677,0.114746
1074,10.74,0.17062999999999998,3.741856,-0.825018,0.056473,0.177521,0.143509
1075,10.75,0.724902,3.9959050000000005,1.5613710000000005,-0.134216,0.248901,0.12646500000000002
1076,10.76,0.5202439999999999,3.837503,3.481082,-0.101196,0.321335,0.099838
1077,10.77,0.025810999999999973,3.293239,4.4308440000000004,0.013855000000000001,0.35435500000000003,0.122208
1078,10.78,-0.341019,2.749247,5.057134,0.022385,0.356491,0.20742800000000003
1079,10.79,-0.523926,1.793337,5.885947,-0.002121,0.356491,0.31929
1080,10.8,-0.790089,0.774845,6.353034,0.06605499999999999,0.374603,0.42688000000000004
1081,10.81,-0.6837770000000001,0.15841099999999994,5.731826,0.21519499999999997,0.358612,0.474808
1082,10.82,-0.999067,-0.243265,4.219702,0.387756,0.255295,0.44072
1083,10.83,-1.135313,-0.321214,2.122633,0.493225,0.108276,0.36296100000000003
1084,10.84,-0.795449,-0.406694,0.32995599999999997,0.48364300000000005,0.0060119999999999965,0.254303
1085,10.85,-0.10720899999999994,-0.584681,-0.6009,0.392029,-0.07814,0.116882
1086,10.86,0.6784859999999999,-0.842087,-0.7270409999999999,0.278046,-0.160172,-0.031188999999999998
1087,10.87,1.65178,-1.0910790000000001,-0.648632,0.175781,-0.253906,-0.136642
1088,10.88,3.222712,-1.104316,-0.540982,0.055405,-0.381744,-0.21121199999999998
1089,10.89,4.108435,-1.062527,-0.048464000000000014,-0.086273,-0.501053,-0.292175
1090,10.9,4.8897,-0.48930500000000005,0.506546,-0.20771799999999999,-0.610779,-0.364609
1091,10.91,4.687716,-0.53589,1.171206,-0.234344,-0.746063,-0.43173199999999995
1092,10.92,3.523765,-0.28126100000000004,1.429714,-0.15125999999999998,-0.8653719999999999,-0.481796
1093,10.93,1.919385,-0.30343400000000004,1.298668,-0.039413,-0.952728,-0.515884
1094,10.94,0.17678800000000006,-0.5133989999999999,0.826202,0.06605499999999999,-1.029419,-0.543579
1095,10.95,-1.633143,-0.846672,0.334388,0.120377,-1.0656430000000001,-0.5616909999999999
1096,10.96,-3.049251,-1.276168,-0.026757000000000003,0.11718800000000001,-1.054993,-0.569153
1097,10.97,-4.250235,-1.8529400000000003,-0.357788,0.069244,-0.9995879999999999,-0.567017
1098,10.98,-4.804608999999999,-2.4156470000000003,-0.5575720000000001,0.0010679999999999995,-0.920761,-0.530792
1099,10.99,-4.594829,-2.910939,-0.772389,-0.069229,-0.8163600000000001,-0.47753900000000005
1100,11.0,-3.5726449999999996,-3.146517,-0.8937129999999999,-0.158722,-0.681076,-0.40936300000000003
1101,11.01,-2.410406,-3.116549,-0.7892600000000001,-0.249268,-0.553253,-0.34330700000000003
1102,11.02,-1.283565,-2.727452,-0.638495,-0.30998200000000004,-0.455246,-0.270874
1103,11.03,-0.408326,-2.230468,-0.606375,-0.331284,-0.400909,-0.202698
1104,11.04,0.20577800000000002,-1.8524900000000002,-0.5908899999999999,-0.32702600000000004,-0.389191,-0.143036
1105,11.05,0.5528569999999999,-1.60886,-0.683678,-0.30891399999999997,-0.401978,-0.097229
1106,11.06,0.5200670000000001,-1.580641,-0.730282,-0.30146799999999996,-0.43180799999999997,-0.070602
1107,11.07,0.146957,-1.674786,-0.874403,-0.294006,-0.47122200000000003,-0.056747000000000006
1108,11.08,-0.3246680000000001,-1.837847,-1.0253370000000002,-0.290817,-0.5084989999999999,-0.043976
1109,11.09,-0.7351340000000001,-1.939354,-1.1831559999999999,-0.29186999999999996,-0.5330050000000001,-0.023727
1110,11.1,-0.9997889999999999,-1.7918,-1.1763780000000001,-0.303589,-0.5212859999999999,-0.0024259999999999998
1111,11.11,-1.040804,-1.214328,-0.9516180000000001,-0.288681,-0.488266,0.014618000000000003
1112,11.12,-0.909378,-0.369526,-0.685208,-0.21092199999999997,-0.475479,0.038055
1113,11.13,-0.6912020000000001,0.4751969999999999,-0.860541,-0.06178300000000001,-0.5106350000000001,0.071075
1114,11.14,-0.36221,0.871518,-1.382443,0.121445,-0.582016,0.097702
1115,11.15,-0.01174900000000001,0.76753,-1.957064,0.24714699999999998,-0.6118319999999999,0.093445
1116,11.16,0.372116,0.45686499999999997,-2.310864,0.270584,-0.589462,0.063614
1117,11.17,0.560077,0.307716,-2.363753,0.19601400000000002,-0.596924,0.025269
1118,11.18,0.368681,0.44656899999999994,-2.154631,0.08416699999999999,-0.6651,0.014618
1119,11.19,-0.2703249999999999,0.945642,-1.92808,0.004271999999999998,-0.722626,0.031662
1120,11.2,-1.1130229999999999,1.726315,-1.746032,-0.037277,-0.703445,0.039124
1121,11.21,-1.925729,2.689559,-1.9822939999999998,-0.056458,-0.621429,0.009293000000000001
1122,11.22,-2.2366490000000003,3.6500019999999997,-2.434701,-0.071365,-0.5330050000000001,-0.045044
1123,11.23,-1.907663,4.52161,-2.6541189999999997,-0.06604,-0.46696499999999996,-0.10043300000000001
1124,11.24,-0.8090069999999999,5.289207,-2.562116,-0.021301,-0.46482799999999996,-0.13131700000000002
1125,11.25,0.488929,6.025535,-1.7753330000000003,-0.097992,-0.49252299999999993,-0.141983
1126,11.26,0.507475,6.158653,0.9411930000000001,-0.321701,-0.396652,-0.186722
1127,11.27,-0.229238,5.3060599999999996,3.7506150000000003,-0.351532,-0.189987,-0.281525
1128,11.28,-1.061604,3.846261,4.883817,-0.23222399999999999,0.037979,-0.376328
1129,11.29,-1.32911,2.1345110000000003,5.063631,-0.154449,0.271271,-0.42108199999999996
1130,11.3,-1.248527,0.5459450000000001,5.035323,-0.07882700000000001,0.414017,-0.424271
1131,11.31,-0.706922,-0.44367799999999996,4.400129,0.029831,0.40123000000000003,-0.37953200000000004
1132,11.32,0.32768200000000003,-0.9038139999999999,3.514104,0.11186199999999999,0.27766399999999997,-0.29538000000000003
1133,11.33,1.300271,-1.080486,2.926237,0.155533,0.182846,-0.198441
1134,11.34,2.1930810000000003,-0.742649,2.226384,0.198151,0.143433,-0.091904
1135,11.35,3.100794,-0.331974,1.299391,0.23330700000000001,0.0923,0.0039669999999999905
1136,11.36,3.121226,-0.29001,0.478587,0.24821500000000002,0.009216000000000002,0.075333
1137,11.37,2.459561,-0.5621470000000001,0.01571700000000001,0.23330700000000001,-0.093048,0.12753299999999998
1138,11.38,1.391105,-0.9967379999999999,-0.117604,0.190689,-0.150574,0.186127
1139,11.39,0.0021360000000000268,-1.488849,-0.143286,0.120377,-0.155899,0.235123
1140,11.4,-1.4373,-1.646909,-0.086899,0.021317000000000003,-0.11116,0.292648
1141,11.41,-2.751436,-1.815866,0.24700100000000005,-0.076691,-0.016356999999999997,0.358704
1142,11.42,-3.6718949999999997,-1.7553509999999999,0.591138,-0.147003,0.14769000000000002,0.40876799999999996
1143,11.43,-3.9007680000000002,-1.506867,0.9125270000000001,-0.186417,0.346909,0.47268699999999997
1144,11.44,-3.402885,-1.56569,1.285388,-0.175766,0.509888,0.50145
1145,11.45,-2.338071,-1.556705,1.382206,-0.111847,0.666473,0.505707
1146,11.46,-0.946858,-1.5507540000000002,1.208213,-0.050064,0.770874,0.49291999999999997
1147,11.47,0.3660479999999999,-1.5563719999999999,0.950325,-0.0031890000000000013,0.834793,0.474808
1148,11.48,1.768948,-1.567379,0.648287,0.029831,0.848648,0.45776400000000006
1149,11.49,2.749734,-1.667477,0.363344,0.05859400000000001,0.829468,0.43859899999999996
1150,11.5,3.568603,-1.789478,-0.11145200000000002,0.06605499999999999,0.797516,0.416229
1151,11.51,3.593193,-2.054791,-1.008226,0.010665999999999998,0.6803279999999999,0.337387
1152,11.52,2.934278,-2.1121790000000003,-1.252311,-0.038345,0.597244,0.28625500000000004
1153,11.53,1.9382580000000003,-1.9331880000000001,-1.359761,-0.083084,0.502426,0.228729
1154,11.54,1.023723,-1.667745,-1.352365,-0.11291500000000002,0.41508500000000004,0.176544
1155,11.55,0.379126,-1.4446370000000002,-1.4109530000000001,-0.134216,0.35435500000000003,0.12646500000000002
1156,11.56,0.04902299999999998,-1.228977,-1.471079,-0.139542,0.300034,0.091324
1157,11.57,-0.07054099999999999,-1.130722,-1.4612290000000001,-0.137405,0.263809,0.062561
1158,11.58,0.016433,-1.056337,-1.428168,-0.117172,0.25209000000000004,0.034851
1159,11.59,0.21039899999999997,-1.03158,-1.3860430000000001,-0.080948,0.254227,0.008223999999999999
1160,11.6,0.27960999999999997,-0.909459,-1.38516,-0.031952,0.276596,-0.020538
1161,11.61,0.265322,-0.6298600000000001,-1.493023,0.023438,0.334122,-0.047165
1162,11.62,0.125271,-0.472376,-1.7919310000000002,0.07989500000000001,0.417206,-0.083389
1163,11.63,-0.095073,-0.5774239999999999,-2.220375,0.10760499999999999,0.48858599999999996,-0.110016
1164,11.64,-0.39161,-0.776084,-2.495989,0.092682,0.502426,-0.118546
1165,11.65,-0.814369,-0.9153969999999999,-2.352436,0.038361,0.516281,-0.114273
1166,11.66,-1.1701350000000001,-0.665629,-1.770228,-0.025558,0.590851,-0.116409
1167,11.67,-0.9915780000000001,-0.144023,-1.237946,-0.094803,0.744247,-0.151566
1168,11.68,-0.16907700000000006,0.759821,-0.960609,-0.161911,0.8667450000000001,-0.188843
1169,11.69,1.091508,1.723018,-0.8823059999999999,-0.178955,0.891251,-0.187775
1170,11.7,2.374364,2.67984,-0.973131,-0.106522,0.807098,-0.128128
1171,11.71,3.438679,3.478162,-1.349704,0.002135999999999999,0.665421,-0.013076999999999998
1172,11.72,3.947887,3.9532059999999998,-1.880428,0.099075,0.48645,0.129669
1173,11.73,3.420553,4.252572,-2.282322,0.170456,0.303223,0.283066
1174,11.74,2.563762,4.100704,-2.047174,0.171509,0.17965699999999998,0.382141
1175,11.75,1.497851,3.9304629999999996,-0.6522929999999999,0.017044000000000004,0.13385,0.371475
1176,11.76,0.8197139999999999,3.7709580000000003,1.405564,-0.129959,0.22120700000000001,0.276672
1177,11.77,0.02737899999999993,3.4803879999999996,2.825944,-0.138474,0.247833,0.20530700000000002
1178,11.78,-1.001962,3.2710790000000003,3.524914,-0.121429,0.190308,0.22235100000000002
1179,11.79,-1.7714290000000001,3.1133290000000002,4.3617,-0.20665,0.089111,0.324615
1180,11.8,-2.246386,2.923325,5.7084660000000005,-0.283356,0.056090999999999995,0.453506
1181,11.81,-2.286915,1.524252,6.951886999999999,-0.102264,0.129593,0.561096
1182,11.82,-2.0564,0.926259,5.911119,0.19708299999999998,0.187119,0.5238189999999999
1183,11.83,-2.042335,0.298078,3.5269,0.493225,0.204163,0.429001
1184,11.84,-1.732345,0.158164,0.662871,0.641296,0.193497,0.29797399999999996
1185,11.85,-1.33481,-0.148731,-1.119951,0.6263890000000001,0.18391400000000002,0.142456
1186,11.86,-1.026231,-0.371422,-1.43349,0.5241239999999999,0.21693400000000002,-0.015213000000000003
1187,11.87,-0.193995,-0.784632,-1.150335,0.39521799999999996,0.28511,-0.149429
1188,11.88,0.9256909999999999,-1.076249,-0.907733,0.268448,0.310684,-0.249573
1189,11.89,2.11328,-1.268335,-0.672396,0.142746,0.26806599999999997,-0.316681
1190,11.9,3.271388,-1.58673,0.157898,0.014923,0.061417,-0.438126
1191,11.91,3.450086,-1.904838,0.77362,0.012787,-0.12181099999999999,-0.47753900000000005
1192,11.92,2.967874,-2.1780880000000002,1.130514,0.059662,-0.297577,-0.491379
1193,11.93,1.927927,-2.1543759999999996,1.028994,0.116119,-0.42434700000000003,-0.47966000000000003
1194,11.94,0.704813,-2.214029,0.6153609999999999,0.13636800000000002,-0.530884,-0.45622299999999993
1195,11.95,-0.790419,-2.195394,0.201488,0.109726,-0.6129,-0.44131499999999996
1196,11.96,-2.1738880000000003,-2.101052,-0.016429000000000013,0.064987,-0.6459199999999999,-0.433853
1197,11.97,-3.3295449999999995,-2.039989,-0.21515700000000001,0.022385,-0.636337,-0.425339
1198,11.98,-4.155058,-2.148314,-0.345894,-0.010651,-0.570297,-0.41255200000000003
1199,11.99,-4.395055999999999,-2.214673,-0.429446,-0.044739,-0.45098900000000003,-0.39444
1200,12.0,-3.7580910000000003,-2.4165669999999997,-0.628718,-0.111847,-0.253906,-0.326263
1201,12.01,-2.759995,-2.3466139999999998,-0.627103,-0.160843,-0.165497,-0.264481
1202,12.02,-1.827303,-2.046062,-0.6428699999999999,-0.20239300000000002,-0.11009200000000001,-0.199493
1203,12.03,-1.0784610000000001,-1.595035,-0.6409090000000001,-0.226898,-0.08985900000000001,-0.139847
1204,12.04,-0.500661,-1.299345,-0.656161,-0.241806,-0.088791,-0.086578
1205,12.05,-0.10291399999999998,-1.16357,-0.654246,-0.22264099999999998,-0.096252,-0.050369
1206,12.06,0.076914,-1.228256,-0.7343930000000001,-0.178955,-0.106903,-0.025863999999999998
1207,12.07,-0.081294,-1.51075,-0.972058,-0.131027,-0.115417,-0.004562
1208,12.08,-0.391412,-1.8283900000000002,-1.208904,-0.10545299999999999,-0.12181099999999999,0.025269
1209,12.09,-0.645691,-1.9943520000000001,-1.4307020000000001,-0.11398299999999999,-0.136734,0.05935700000000001
1210,12.1,-0.710471,-1.97253,-1.4731049999999999,-0.14060999999999998,-0.16336099999999998,0.094513
1211,12.11,-0.500113,-1.613341,-1.487378,-0.168304,-0.220886,0.133926
1212,12.12,-0.24885900000000002,-0.862756,-1.57618,-0.166168,-0.333801,0.176544
1213,12.13,-0.033442,-0.14974499999999996,-1.885373,-0.13208,-0.46696499999999996,0.21702600000000002
1214,12.14,0.259087,0.3208599999999999,-2.188065,-0.11398299999999999,-0.5575100000000001,0.243652
1215,12.15,0.659925,0.533047,-2.016999,-0.121429,-0.597992,0.253235
1216,12.16,0.8537030000000001,0.781317,-1.54441,-0.136353,-0.643799,0.243652
1217,12.17,0.522093,1.251652,-0.9331649999999999,-0.121429,-0.73114,0.21489
1218,12.18,-0.497724,1.868896,-0.389295,-0.052185,-0.7982640000000001,0.172272
1219,12.19,-1.772774,2.392219,-0.078247,0.042618,-0.75032,0.101974
1220,12.2,-2.9246939999999997,2.983991,-0.352143,0.151276,-0.596924,0.009293000000000004
1221,12.21,-3.447675,3.6243550000000004,-1.148937,0.24500999999999998,-0.42434700000000003,-0.071671
1222,12.22,-3.056515,3.857843,-1.9985650000000001,0.318527,-0.263489,-0.121735
1223,12.23,-1.651272,4.14315,-2.72841,0.362198,-0.17507899999999998,-0.149429
1224,12.24,-0.02769699999999986,4.805768,-3.052162,0.299347,-0.198517,-0.175003
1225,12.25,0.625781,5.023479,-1.7039549999999999,0.02876300000000001,-0.238998,-0.187775
1226,12.26,0.36287600000000003,4.818618,0.868957,-0.25245700000000004,-0.243256,-0.208023
1227,12.27,-0.612051,3.815471,3.2385610000000002,-0.289749,-0.22514299999999998,-0.25383
1228,12.28,-1.222356,2.593093,4.636305,-0.25245700000000004,-0.080276,-0.292175
1229,12.29,-1.457199,1.385443,5.34449,-0.20559699999999997,0.11573800000000001,-0.308151
1230,12.3,-1.482089,0.302504,5.370902,-0.092667,0.225464,-0.311356
1231,12.31,-0.641029,-0.32045999999999997,4.723237999999999,0.028763,0.21693400000000002,-0.29538000000000003
1232,12.32,0.316892,-0.614062,4.246976,0.10760499999999999,0.193497,-0.266617
1233,12.33,1.2103,-0.6805899999999999,3.6080550000000002,0.19708299999999998,0.191376,-0.217606
1234,12.34,1.9116540000000002,-0.276638,2.426037,0.294022,0.19989,-0.148361
1235,12.35,2.29992,0.128855,0.9081239999999999,0.332367,0.203094,-0.067413
1236,12.36,2.190775,0.25503000000000003,-0.12486300000000002,0.258865,0.22120700000000001,0.009293000000000001
1237,12.37,1.3761430000000001,0.02878899999999998,-0.426422,0.140625,0.246765,0.06681799999999999
1238,12.38,0.07335800000000002,-0.22226100000000001,-0.297808,0.045807,0.263809,0.145645
1239,12.39,-1.042011,-0.30748200000000003,0.265813,-0.027695000000000004,0.287247,0.22979699999999997
1240,12.4,-1.9924580000000003,-0.417988,0.900148,-0.061783000000000005,0.339447,0.313965
1241,12.41,-2.837877,-0.516313,1.368416,-0.045807,0.40016199999999996,0.386398
1242,12.42,-3.2820120000000004,-1.041567,1.602733,0.009598000000000002,0.48963900000000005,0.44604499999999997
1243,12.43,-3.306401,-1.420778,1.552713,0.073517,0.612152,0.502502
1244,12.44,-2.463017,-1.8040209999999999,1.323964,0.13209500000000002,0.757034,0.532333
1245,12.45,-1.7770970000000001,-2.0371669999999997,1.038065,0.17897000000000002,0.9157559999999999,0.505707
1246,12.46,-0.849715,-2.197,0.692573,0.21092199999999997,1.05423,0.470551
1247,12.47,0.122938,-2.328687,0.29838000000000003,0.225845,1.1469120000000002,0.42581199999999997
1248,12.48,1.055459,-2.43743,-0.16666199999999998,0.207733,1.190598,0.394913
1249,12.49,1.866424,-2.5788290000000003,-0.589113,0.158737,1.196976,0.360825
1250,12.5,2.498364,-2.6874439999999997,-0.913472,0.08522000000000003,1.170349,0.340591
1251,12.51,2.8334669999999997,-2.612741,-1.0753709999999999,0.0010680000000000064,1.113892,0.323547
1252,12.52,2.7771049999999997,-2.303793,-0.962284,-0.067108,1.028671,0.30862399999999995
1253,12.53,2.438967,-1.8606369999999999,-0.696607,-0.103317,0.9391940000000001,0.283066
1254,12.54,1.846612,-1.4653690000000001,-0.465052,-0.10438499999999999,0.8529049999999999,0.25216700000000003
1255,12.55,1.20757,-1.257311,-0.41916099999999995,-0.087341,0.7676850000000001,0.213821
1256,12.56,0.7252390000000001,-1.213398,-0.500052,-0.073502,0.6931149999999999,0.170151
1257,12.57,0.359466,-1.3279610000000002,-0.792457,-0.059647000000000006,0.643051,0.119019
1258,12.58,0.28505199999999997,-1.451282,-1.158958,-0.054321,0.611084,0.068939
1259,12.59,0.396368,-1.534081,-1.384088,-0.056458,0.605759,0.030594
1260,12.6,0.624475,-1.346945,-1.4511399999999999,-0.063904,0.624939,0.005035
1261,12.61,0.783273,-0.9364,-1.478768,-0.064972,0.675003,-0.00882
1262,12.62,0.669104,-0.540405,-1.471834,-0.04686,0.7389220000000001,-0.027999999999999997
1263,12.63,0.417735,-0.10226200000000002,-1.4985879999999998,0.0032039999999999985,0.784729,-0.050369
1264,12.64,0.170726,0.04846,-1.7278830000000003,0.06605499999999999,0.792175,-0.08551
1265,12.65,-0.13622100000000004,-0.079731,-1.842443,0.116119,0.7836609999999999,-0.12599200000000002
1266,12.66,-0.506173,-0.349758,-1.7913970000000001,0.147018,0.746368,-0.156891
1267,12.67,-0.7865479999999999,-0.666424,-1.7506150000000003,0.169388,0.714417,-0.161148
1268,12.68,-0.812524,-0.702116,-1.612219,0.171509,0.725067,-0.161148
1269,12.69,-0.20379699999999995,-0.305573,-1.537842,0.147018,0.7676850000000001,-0.16008
1270,12.7,0.907967,0.418915,-1.7454189999999998,0.10228,0.782593,-0.137711
1271,12.71,2.1021959999999997,1.1679700000000002,-1.8601880000000002,0.061798,0.746368,-0.090836
1272,12.72,3.157653,1.8578299999999999,-1.988736,0.0522,0.671814,-0.045044
1273,12.73,3.923223,2.479994,-2.197806,0.08203099999999999,0.5556949999999999,-0.003494000000000001
1274,12.74,3.640195,2.971803,-2.5063869999999997,0.152344,0.426804,0.048706
1275,12.75,2.0741490000000002,3.527429,-2.516994,0.22903400000000002,0.342636,0.12646500000000002
1276,12.76,0.3717269999999999,4.070851,-2.017039,0.275909,0.372467,0.177597
1277,12.77,-0.898733,4.552865,-0.754209,0.142746,0.44171099999999996,0.155228
1278,12.78,-1.236979,4.818524,0.989867,-0.15551800000000002,0.514145,0.110489
1279,12.79,-1.598557,4.586456,2.922246,-0.28015100000000004,0.43318199999999996,0.18187
1280,12.8,-1.683385,3.6986190000000003,4.239511,-0.28015100000000004,0.29789699999999997,0.356567
1281,12.81,-1.433347,2.7479080000000002,5.349465,-0.335556,0.173264,0.558975
1282,12.82,-1.065656,1.619612,6.657583,-0.330231,0.13703900000000002,0.675079
1283,12.83,-0.21368,0.5982270000000001,6.872818,-0.126755,0.163681,0.663361
1284,12.84,-0.2186,0.31502800000000003,5.493707,0.186432,0.21160900000000002,0.541931
1285,12.85,-0.700289,0.2608,3.064299,0.431442,0.213745,0.39598099999999997
1286,12.86,-0.880065,0.609909,0.995362,0.502808,0.13810699999999998,0.251114
1287,12.87,-0.782046,0.813894,-0.0022949999999999915,0.452744,0.111481,0.093445
1288,12.88,-0.41894899999999996,0.653741,-0.32884800000000003,0.381378,0.12532000000000001,-0.049301
1289,12.89,0.213189,0.284617,-0.526502,0.322784,0.139175,-0.17286700000000002
1290,12.9,0.8294360000000001,0.054029000000000015,-0.621004,0.263123,0.117874,-0.262344
1291,12.91,1.41185,-0.013503,-0.490385,0.186432,0.05927999999999999,-0.330521
1292,12.92,2.00712,-0.063649,0.09628099999999996,0.116119,-0.031265,-0.397644
1293,12.93,1.964016,-0.47427700000000006,0.997553,0.129974,-0.129272,-0.44131499999999996
1294,12.94,1.682106,-0.809597,1.489228,0.23117100000000002,-0.200638,-0.45196499999999995
1295,12.95,1.303884,-0.967468,1.0817219999999999,0.351547,-0.238998,-0.453033
1296,12.96,0.716584,-1.241436,0.06696500000000005,0.397354,-0.275208,-0.46368400000000004
1297,12.97,-0.196874,-1.741623,-0.8804780000000001,0.352615,-0.35405,-0.482864
1298,12.98,-1.112185,-2.447321,-1.209743,0.257797,-0.461639,-0.48498500000000005
1299,12.99,-2.020823,-2.867491,-1.051608,0.14488199999999998,-0.552185,-0.47753900000000005
1300,13.0,-2.609826,-3.2339860000000002,-0.683526,0.053267999999999996,-0.59053,-0.45516999999999996
1301,13.01,-3.015831,-3.2863919999999998,-0.395425,-0.012772000000000002,-0.582016,-0.41255200000000003
1302,13.02,-2.6112330000000004,-3.211697,-0.362558,-0.055389,-0.541534,-0.34863299999999997
1303,13.03,-2.166734,-3.04093,-0.370375,-0.090546,-0.482941,-0.292175
1304,13.04,-1.6355819999999999,-2.7486099999999998,-0.4909,-0.148071,-0.40518200000000004,-0.23571799999999998
1305,13.05,-1.226889,-2.4790919999999996,-0.5132439999999999,-0.20771799999999999,-0.35191300000000003,-0.18565399999999999
1306,13.06,-1.005789,-2.258595,-0.5719890000000001,-0.247131,-0.331665,-0.12493900000000001
1307,13.07,-0.751654,-1.9107939999999999,-0.6593289999999999,-0.27803,-0.332733,-0.068466
1308,13.08,-0.7988029999999999,-1.709654,-0.7718689999999999,-0.305725,-0.35191300000000003,-0.019469999999999998
1309,13.09,-0.8597670000000001,-1.6434900000000001,-0.8316709999999999,-0.321701,-0.390259,0.029526
1310,13.1,-1.104268,-1.5883559999999999,-0.7489859999999999,-0.323837,-0.43073999999999996,0.078537
1311,13.11,-1.378148,-1.627876,-0.660647,-0.320633,-0.446716,0.11795
1312,13.12,-1.435914,-1.727905,-0.613272,-0.315308,-0.43073999999999996,0.148834
1313,13.13,-1.32827,-1.784914,-0.6834939999999999,-0.312119,-0.40518200000000004,0.17334000000000002
1314,13.14,-1.112059,-1.564937,-0.688561,-0.30998200000000004,-0.356171,0.179733
1315,13.15,-0.9478190000000001,-0.9476110000000001,-0.7709739999999999,-0.27589400000000003,-0.315689,0.180801
1316,13.16,-0.8621639999999999,-0.054812000000000034,-1.064331,-0.195999,-0.301849,0.189316
1317,13.17,-0.697843,0.696828,-1.645203,-0.076691,-0.307175,0.209564
1318,13.18,-0.500486,0.999481,-2.2820400000000003,0.022385,-0.317825,0.226608
1319,13.19,-0.28738400000000003,0.9309120000000001,-2.5850869999999997,0.056473,-0.32847600000000005,0.23406999999999997
1320,13.2,-0.266757,0.8722549999999999,-2.221308,0.038361,-0.357239,0.24258400000000002
1321,13.21,-0.507787,1.075692,-1.488918,0.037292,-0.43394499999999997,0.254303
1322,13.22,-0.984226,1.533787,-0.8811129999999999,0.094818,-0.497849,0.26921100000000003
1323,13.23,-1.520702,2.151914,-0.73688,0.155533,-0.462692,0.26921100000000003
1324,13.24,-1.8113860000000002,2.827256,-1.023533,0.177902,-0.323151,0.22447199999999998
1325,13.25,-1.76023,3.4481629999999996,-1.553277,0.186432,-0.200638,0.15097
1326,13.26,-1.673519,4.248259,-2.275186,0.216263,-0.159103,0.067886
1327,13.27,-0.44225800000000015,5.244103,-2.725237,0.219452,-0.172943,0.017807
1328,13.28,0.780112,6.080596,-1.4268100000000001,-0.031952000000000015,-0.13352999999999998,-0.043976
1329,13.29,0.443941,6.2664290000000005,2.086832,-0.307861,-0.025940000000000005,-0.151566
1330,13.3,-0.552554,5.333917,5.383113,-0.157654,-0.024872,-0.275131
1331,13.31,-1.487668,4.196419000000001,7.124074,0.009598000000000002,0.188171,-0.399765
1332,13.32,-2.23153,2.814915,7.315874000000001,0.090561,0.553558,-0.523346
1333,13.33,-2.5045439999999997,1.546037,6.508198,0.20559699999999997,0.820938,-0.578735
1334,13.34,-2.304871,0.2515709999999999,4.857149,0.34729,0.865692,-0.541443
1335,13.35,-1.5890790000000001,-0.9537459999999999,3.13642,0.431442,0.871017,-0.414688
1336,13.36,-0.289241,-1.44308,1.612838,0.474045,0.9136200000000001,-0.258087
1337,13.37,0.5936020000000001,-1.344423,0.12977499999999995,0.452744,0.9455870000000001,-0.121735
1338,13.38,1.162635,-1.4188,-0.78304,0.36538699999999996,0.938126,-0.025864
1339,13.39,0.655355,-1.537488,-0.765241,0.258865,0.917877,0.049774
1340,13.4,-0.29335300000000003,-1.794225,-0.22528400000000004,0.170456,0.933868,0.137131
1341,13.41,-1.559755,-2.138874,0.766197,0.12144500000000001,0.9871219999999999,0.24472
1342,13.42,-2.818905,-2.1519169999999996,1.341791,0.103333,1.0180209999999998,0.358704
1343,13.43,-3.713026,-1.8059669999999999,1.5621969999999998,0.09800700000000001,1.051041,0.465225
1344,13.44,-3.96375,-1.256506,1.252585,0.067123,1.1287989999999999,0.52594
1345,13.45,-3.6650440000000004,-0.719119,0.986714,-0.002120999999999998,1.2459870000000002,0.5131680000000001
1346,13.46,-2.777903,-0.219036,1.20628,-0.073502,1.408966,0.485458
1347,13.47,-1.296806,-0.070369,1.765886,-0.08201599999999999,1.570892,0.44711300000000004
1348,13.48,0.272308,0.006437999999999999,2.223808,-0.015975999999999997,1.7349400000000001,0.41195699999999996
1349,13.49,1.764572,-0.12703599999999998,2.243761,0.08949299999999999,1.8489229999999999,0.384262
1350,13.5,3.011672,-0.597542,1.7235639999999999,0.199219,1.8904720000000002,0.36615
1351,13.51,3.69115,-1.0700379999999998,0.870186,0.264191,1.8531799999999998,0.357635
1352,13.52,3.7871309999999996,-1.5383879999999999,-0.015099999999999947,0.268448,1.750916,0.343781
1353,13.53,3.2172099999999997,-1.8508369999999998,-0.661562,0.21838400000000002,1.6209559999999998,0.321411
1354,13.54,2.2395549999999997,-1.9236509999999998,-0.942097,0.13742100000000002,1.483536,0.281998
1355,13.55,1.115307,-1.886611,-1.054928,0.061798,1.366364,0.24151599999999998
1356,13.56,0.194021,-1.658734,-1.111399,0.0042719999999999946,1.27475,0.204239
1357,13.57,-0.42595200000000005,-1.4896280000000002,-1.211508,-0.043670999999999995,1.215088,0.171219
1358,13.58,-0.507682,-1.322901,-1.2429299999999999,-0.087341,1.1756739999999999,0.148834
1359,13.59,-0.345087,-1.296014,-1.1445450000000001,-0.11398299999999999,1.156509,0.129669
1360,13.6,0.17427,-1.299058,-1.046338,-0.116104,1.145844,0.122208
1361,13.61,0.900906,-1.531468,-0.8594440000000001,-0.10865799999999999,1.097916,0.07746900000000001
1362,13.62,0.858512,-1.465524,-0.674319,-0.088409,1.068085,0.04657
1363,13.63,0.709685,-1.1136469999999998,-0.551936,-0.048996,1.069153,0.0061039999999999974
1364,13.64,0.449058,-0.630862,-0.701326,0.029831000000000007,1.09259,-0.035445999999999984
1365,13.65,0.258202,-0.155088,-1.266592,0.133163,1.090454,-0.067413
1366,13.66,0.07903499999999998,0.10848499999999998,-1.7944779999999998,0.21199,1.048904,-0.088715
1367,13.67,0.014229000000000004,-0.008319,-1.9928169999999998,0.27271999999999996,0.9604950000000001,-0.09404
1368,13.68,-0.13525299999999998,-0.352565,-2.062066,0.317459,0.8550260000000001,-0.082321
1369,13.69,-0.190604,-0.546214,-1.855484,0.321716,0.8124239999999999,-0.064209
1370,13.7,0.374761,-0.588078,-1.49295,0.262054,0.8923190000000001,-0.052489999999999995
1371,13.71,0.997976,-0.278019,-1.446179,0.204544,0.938126,-0.056747000000000006
1372,13.72,1.464967,0.219694,-1.618451,0.128906,0.911499,-0.055695
1373,13.73,1.7265810000000001,0.8803799999999999,-1.682175,0.061798,0.836929,-0.026931999999999998
1374,13.74,1.9617310000000001,1.732507,-1.87146,0.030899,0.7676850000000001,0.015686000000000002
1375,13.75,1.9151209999999999,2.492829,-2.210051,0.063919,0.686722,0.07746900000000001
1376,13.76,1.43285,2.714065,-2.270917,0.143814,0.592972,0.133926
1377,13.77,0.394075,2.9277610000000003,-1.87975,0.25035100000000005,0.571671,0.154175
1378,13.78,-0.903525,3.185964,-1.160811,0.31958000000000003,0.666473,0.128601
1379,13.79,-1.8932779999999998,3.515772,-0.0016270000000000449,0.261002,0.8411870000000001,0.06575
1380,13.8,-2.132085,3.5246510000000004,1.554397,0.090561,1.047852,0.0018309999999999995
1381,13.81,-2.062281,3.353946,3.0272799999999997,0.013855000000000001,1.116028,0.012482
1382,13.82,-2.120119,2.9503060000000003,4.079764,0.12251300000000001,1.063828,0.125412
1383,13.83,-2.080966,2.138913,4.274457,0.160858,1.004166,0.273483
1384,13.84,-2.332784,1.21674,4.578496,0.124649,0.9956510000000001,0.390656
1385,13.85,-2.8191029999999997,0.347692,4.755192,0.142746,1.078735,0.466293
1386,13.86,-3.3098690000000004,0.023023,4.145722,0.22370900000000002,1.223618,0.46841400000000005
1387,13.87,-3.477726,0.263191,2.5805439999999997,0.324905,1.362091,0.388519
1388,13.88,-3.29624,0.697968,0.7436729999999999,0.351547,1.44838,0.250046
1389,13.89,-2.7584150000000003,1.054276,-0.38398000000000004,0.282303,1.521881,0.08065800000000001
1390,13.9,-1.772484,1.323373,-0.646662,0.172577,1.6049799999999999,-0.07913200000000001
1391,13.91,-0.680588,1.363184,-0.50124,0.090561,1.633743,-0.196304
1392,13.92,0.37747800000000004,0.973565,-0.188421,0.049011,1.579407,-0.269806
1393,13.93,1.557721,0.318643,0.180923,0.023438,1.475021,-0.312424
1394,13.94,2.676455,0.16485999999999998,0.451563,0.0010679999999999995,1.322678,-0.344376
1395,13.95,3.049028,-0.294729,0.9092309999999999,0.005340999999999999,1.113892,-0.402969
1396,13.96,2.949507,-0.8653760000000001,1.1502649999999999,0.062851,0.902969,-0.4328
1397,13.97,2.607657,-1.3261889999999998,0.922558,0.134232,0.7186739999999999,-0.453033
1398,13.98,1.521666,-1.696998,0.508549,0.160858,0.5556949999999999,-0.46475200000000005
1399,13.99,0.33904899999999993,-1.8348220000000002,-0.02466599999999997,0.147018,0.423599,-0.469009
1400,14.0,-0.9343020000000001,-1.825606,-0.500267,0.100143,0.351166,-0.46261599999999997
1401,14.01,-2.15635,-1.825963,-0.879524,0.043686,0.31494099999999997,-0.438126
1402,14.02,-3.009211,-1.839264,-1.0760450000000001,-0.019165,0.301102,-0.406158
1403,14.03,-3.425388,-1.895889,-1.035225,-0.070297,0.29896500000000004,-0.357162
1404,14.04,-3.3606309999999997,-2.105073,-0.760812,-0.097992,0.296829,-0.301773
1405,14.05,-2.9532529999999997,-2.268411,-0.55015,-0.106522,0.311752,-0.252762
1406,14.06,-2.418187,-2.2783290000000003,-0.300697,-0.128891,0.347961,-0.20695500000000003
1407,14.07,-1.892396,-2.210014,-0.07927799999999999,-0.16297899999999998,0.416138,-0.165405
1408,14.08,-1.278569,-2.0894009999999996,-0.160547,-0.180023,0.485382,-0.122803
1409,14.09,-0.8787309999999999,-1.8916990000000002,-0.427292,-0.176834,0.531189,-0.086578
1410,14.1,-0.5950439999999999,-1.711552,-0.78067,-0.15551800000000002,0.550369,-0.048233
1411,14.11,-0.630216,-1.537641,-1.037425,-0.131027,0.533325,-0.007751000000000004
1412,14.12,-0.910184,-1.648349,-1.154018,-0.095871,0.499237,0.041245
1413,14.13,-1.225085,-1.779405,-1.2847629999999999,-0.063904,0.465149,0.10304300000000001
1414,14.14,-1.430311,-1.7884470000000001,-1.536176,-0.060715,0.438507,0.158432
