,ts,ax,ay,az,wx,wy,wz
0,0.0,0.013318,-0.01254,0.012902000000000005,-0.023468,-0.009033,-7.6e-05
1,0.01,0.01405,-0.016748,-0.051564,-0.025604000000000002,-0.004776,-0.0021969999999999997
2,0.02,0.005901,-0.010952,-0.034358,-0.027739999999999997,-0.00264,-0.0032649999999999997
3,0.03,0.012740999999999999,-0.0056760000000000005,0.025351,-0.030930000000000003,-0.004776,-0.0011290000000000002
4,0.04,-0.018522999999999998,-0.043342,0.037814999999999994,-0.033066000000000005,-0.009033,-0.0021969999999999997
5,0.05,-0.004202000000000001,0.014895,0.007734000000000001,-0.027739999999999997,-0.00264,-0.0032649999999999997
6,0.06,-0.004627999999999998,0.0036520000000000003,0.022465,-0.027739999999999997,-0.0005189999999999999,-0.001129
7,0.07,0.007821999999999999,0.006288,0.005819,-0.026672,-0.003708,-7.59999999999999e-05
8,0.08,-0.008981,0.028902999999999998,0.011283,-0.027739999999999997,-0.001572,-7.6e-05
9,0.09,-0.005791000000000001,-0.016648,-0.027638,-0.026672,-0.001572,-0.0021969999999999997
10,0.1,0.011173,-0.0015439999999999998,-0.013319999999999999,-0.028808999999999998,0.0005489999999999999,-0.0032649999999999997
11,0.11,0.047906,-0.013138,-0.022924,-0.027739999999999997,0.0016170000000000002,-0.0032649999999999997
12,0.12,0.020411000000000002,0.00014599999999999986,-0.037175,-0.028808999999999998,0.002686,-0.004333
13,0.13,0.025333,-0.028156,-0.004546999999999999,-0.029861000000000002,-0.001572,-0.004333
14,0.14,0.024302,-0.010383,0.018697,-0.031998,0.0016170000000000002,-0.0054020000000000006
15,0.15,0.014403000000000001,-0.018787,-0.014371000000000004,-0.028808999999999998,-0.001572,-0.0064540000000000005
16,0.16,-0.0141,0.011886,0.029142,-0.029861000000000002,-0.0005189999999999999,-0.0064540000000000005
17,0.17,-0.009122,0.007708,0.011608,-0.029861000000000002,-0.000519,-0.0054020000000000006
18,0.18,0.032195,0.016411000000000002,0.037127999999999994,-0.026672,0.000549,-0.0064540000000000005
19,0.19,0.022909,0.0002959999999999994,0.040067,-0.027739999999999997,0.0026860000000000005,-0.007523
20,0.2,-0.0016299999999999995,0.017225,-0.009726999999999998,-0.024536000000000002,0.004822,-0.008591
21,0.21,-0.019791,-0.024296,-0.027275999999999998,-0.021347,0.004822,-0.008591
22,0.22,-0.020565,-0.011315,-0.085637,-0.024536000000000002,0.002686,-0.0054020000000000006
23,0.23,0.016936,-0.009767,-0.066069,-0.029861000000000002,0.003754,-0.004333
24,0.24,0.014944999999999998,-0.017472,-0.063553,-0.035187,0.002686,-0.0054020000000000006
25,0.25,0.028323,0.010582,0.036355,-0.035187,0.006943,-0.0064540000000000005
26,0.26,0.015616,0.0011190000000000002,0.019801,-0.034134,0.005875,-0.0064540000000000005
27,0.27,-0.0006189999999999998,-0.022989,-0.050852,-0.033066000000000005,0.006943,-0.007523
28,0.28,0.0056549999999999994,-0.023916999999999997,-0.033408999999999994,-0.037323,0.008011,-0.0064540000000000005
29,0.29,0.001273,-0.016603,0.0057,-0.040512,0.006943,-0.004333
30,0.3,-0.007162000000000001,0.019889000000000004,0.047816000000000004,-0.039458999999999994,0.004822,-0.0054020000000000006
31,0.31,-0.043062,0.013189,0.065058,-0.030930000000000003,0.003754,-0.0054020000000000006
32,0.32,-0.020358,0.020893000000000002,0.045418,-0.023468,0.003754,-0.004333
33,0.33,0.016590999999999998,0.046887,0.049373,-0.018143,0.002686,-0.0054020000000000006
34,0.34,0.021816,-0.013103,-0.014211000000000001,-0.013885,0.003754,-0.004333
35,0.35,-0.011491,-0.0059700000000000005,-0.019928,-0.012816999999999999,0.005875,-0.0054020000000000006
36,0.36,-0.001422,-0.0043760000000000005,0.014024000000000002,-0.011765000000000001,0.008011,-0.0064540000000000005
37,0.37,-0.016896,0.037408,0.031653,-0.009628,0.010147,-0.0054020000000000006
38,0.38,0.008009,0.051395,0.051019,-0.006423999999999999,0.010147,-0.004333
39,0.39,-0.031287,0.024018,0.078877,-4.600000000000003e-05,0.0112,-0.0064540000000000005
40,0.4,-0.023864,-0.0029100000000000003,0.056299,0.0010220000000000001,0.015472,-0.0064540000000000005
41,0.41,-0.020455,-0.026599,0.011265999999999998,0.004227000000000001,0.016525,-0.0054020000000000006
42,0.42,-0.010387,-0.022527000000000002,-0.015578,0.005295,0.014403999999999998,-0.0064540000000000005
43,0.43,0.0035860000000000024,-0.052828,-0.007560000000000002,0.007416,0.014403999999999998,-0.0032649999999999997
44,0.44,-0.018969,-0.033067,-0.07782599999999999,0.0063479999999999995,0.014403999999999998,-0.0032649999999999997
45,0.45,0.011572,0.003143,-0.07209199999999999,0.007416,0.013336,-0.0021969999999999997
46,0.46,-0.00804,0.0007529999999999992,-0.039956,0.004227000000000001,0.012268000000000001,-0.004333
47,0.47,0.018431000000000003,0.015629,-0.016613,0.00209,0.010147,-0.0032649999999999997
48,0.48,0.0002330000000000001,0.011883,-0.007901000000000002,-0.0010989999999999997,0.005875,-0.004333
49,0.49,-0.013153,-0.004841,-0.010616,0.0010219999999999997,0.005875,-0.0054020000000000006
50,0.5,0.0038670000000000006,0.006934,0.010005,-0.003235,0.004822,-0.0032649999999999997
51,0.51,-0.021401,0.00021700000000000018,0.053138000000000005,0.00209,0.008011,-0.0032649999999999997
52,0.52,-0.043535000000000004,-0.010562,0.0051039999999999966,0.003159,0.006943,-0.0021969999999999997
53,0.53,-0.037235000000000004,0.0021790000000000004,0.056095000000000006,0.005295,0.006943,-0.0054020000000000006
54,0.54,-0.008602,0.000973,0.054861,0.008484,0.006943,-0.0054020000000000006
55,0.55,-0.019191999999999997,0.014833000000000002,0.028017,0.009552,0.006943,-0.004333
56,0.56,-0.023809,0.005864,0.006248,0.011673000000000001,0.008011,-0.004333
57,0.57,-0.031195,-0.028327999999999996,0.007606999999999999,0.009552,0.010147,-0.0064540000000000005
58,0.58,-0.026807,0.0023409999999999998,-0.036892,0.007416,0.009079,-0.0054020000000000006
59,0.59,-0.019706,0.0023190000000000003,0.0040030000000000005,0.008484,0.010147,-0.004333
60,0.6,-0.016537,-0.011701000000000001,0.049113,0.008484,0.008011,-0.0032649999999999997
61,0.61,-0.035056,0.00033400000000000015,0.039448000000000004,0.012740999999999999,0.006943,-0.0064540000000000005
62,0.62,-0.020589,0.014041999999999999,0.083594,0.016998,0.005875,-0.0032649999999999997
63,0.63,-0.014569,0.030080000000000003,0.05331,0.018066,0.006943,-0.0032649999999999997
64,0.64,0.002112000000000001,0.016168000000000002,0.035986000000000004,0.019135,0.009079,-0.0054020000000000006
65,0.65,-0.033559,-0.001508,0.022841,0.020203,0.006943,-0.0054020000000000006
66,0.66,0.002962,0.009732,0.038583,0.012740999999999999,0.008011,-0.0054020000000000006
67,0.67,0.01405,0.034069,0.054026999999999985,0.011673000000000001,0.010147,-0.007523
68,0.68,-0.032238,0.010369000000000005,0.053778999999999993,0.0063479999999999995,0.008011,-0.0064540000000000005
69,0.69,-0.026532,-0.0017320000000000046,0.084716,0.005295,0.008011,-0.007523
70,0.7,-0.006821999999999997,0.031595,0.077467,0.009552,0.003754,-0.008591
71,0.71,-0.021202000000000002,-0.015313,0.031531,0.005295,0.003754,-0.009659000000000001
72,0.72,-0.010415999999999993,-0.054162,0.0004490000000000015,0.004227000000000001,0.002686,-0.0064540000000000005
73,0.73,-0.024852000000000003,-0.047347,-0.08857999999999999,-4.600000000000003e-05,0.002686,-0.0064540000000000005
74,0.74,-0.045103,-0.11050399999999999,-0.135524,-0.005371,0.0005489999999999996,-0.004333
75,0.75,-0.011717,-0.14535399999999998,-0.182836,-0.013884999999999998,0.005875,-0.0032649999999999997
76,0.76,-0.025611000000000002,-0.183427,-0.23118699999999998,-0.028808999999999998,0.004822,-0.0011290000000000002
77,0.77,0.0020849999999999983,-0.175405,-0.202211,-0.044785000000000005,0.004822,-0.0021969999999999997
78,0.78,-0.001314,-0.100156,-0.16161199999999998,-0.061828999999999995,0.006943,-0.0032649999999999997
79,0.79,-0.006351999999999997,-0.02565800000000001,-0.099222,-0.076736,0.0112,-0.0064540000000000005
80,0.8,-0.044701999999999985,0.078079,0.013557,-0.079941,0.013336,-0.008591
81,0.81,-0.062761,0.111831,0.13988399999999998,-0.0746,0.016525,-0.009659000000000001
82,0.82,-0.06697,0.144071,0.253411,-0.06395,0.01973,-0.008591
83,0.83,-0.088325,0.120219,0.309992,-0.04158,0.026123,-0.009659000000000001
84,0.84,-0.036483999999999996,0.11471700000000001,0.297478,-0.01709,0.032516,-0.012847999999999998
85,0.85,-0.043470999999999996,0.132806,0.10425899999999999,0.0020900000000000007,0.036774,-0.012847999999999998
86,0.86,-0.008730000000000002,0.082286,0.022026000000000004,0.015944999999999997,0.036774,-0.013916
87,0.87,-0.007829000000000001,0.042673,-0.105779,0.020203,0.035706,-0.012847999999999998
88,0.88,0.049438,0.021132,-0.12623299999999998,0.015944999999999997,0.032516,-0.010727
89,0.89,0.052876000000000006,-0.017418,-0.082241,0.011673000000000001,0.033569,-0.009659000000000001
90,0.9,0.075017,0.005756000000000001,-0.037159,0.007416,0.031448000000000004,-0.009659000000000001
91,0.91,0.058399,0.006324000000000001,-0.009678,-0.0010989999999999997,0.026123,-0.009659000000000001
92,0.92,0.077394,0.028125999999999998,0.086297,-4.6e-05,0.021866,-0.008591
93,0.93,0.065913,0.051197,0.146456,0.004227000000000001,0.018661,-0.0064540000000000005
94,0.94,0.067584,0.076369,0.15664,0.013808999999999998,0.016525,-0.004333
95,0.95,0.027614,0.065453,0.160813,0.025528,0.016525,-0.0021969999999999997
96,0.96,-0.021133000000000002,0.022566000000000003,0.138372,0.036179,0.018661,-0.0054020000000000006
97,0.97,-0.047087000000000004,0.004309,0.101749,0.045761,0.016525,-0.0054020000000000006
98,0.98,-0.021536000000000003,-0.015274000000000001,0.038504000000000004,0.050033999999999995,0.018661,-0.001129
99,0.99,0.012368,-0.021201999999999995,-0.028792,0.050033999999999995,0.015472,-0.001129
100,1.0,0.027451999999999997,-0.026026,-0.084017,0.045761,0.013336,-0.0021969999999999997
101,1.01,0.04958,-0.08523700000000001,-0.060497,0.039383,0.0112,-0.001129
102,1.02,0.010783,0.002258,-0.039111,0.031921,0.008011,-0.001129
103,1.03,0.023739,0.008272000000000002,0.0371,0.027663999999999998,0.008011,-0.0021969999999999997
104,1.04,-0.0015440000000000002,0.011431,0.07791100000000001,0.025528,0.010147,-0.0021969999999999997
105,1.05,0.026997000000000004,0.011473,0.072844,0.027663999999999998,0.012268000000000001,-0.004333
106,1.06,-0.017595999999999997,0.019329,0.11386500000000001,0.029785000000000002,0.014403999999999998,-0.004333
107,1.07,-0.055563999999999995,0.040047,0.096526,0.029785000000000002,0.012268000000000001,-0.0032649999999999997
108,1.08,-0.065809,0.021575999999999998,0.057028999999999996,0.030853,0.012268000000000001,-0.0011290000000000002
109,1.09,-0.054209,0.018787,0.067746,0.030853,0.0112,-0.0011290000000000002
110,1.1,-0.050686,0.011167,0.043074,0.031921,0.012268000000000001,-7.59999999999999e-05
111,1.11,-0.013446000000000001,-0.0008540000000000022,0.07120800000000001,0.031921,0.0112,0.003128000000000001
112,1.12,-0.024478,-0.027064000000000005,0.039432999999999996,0.030853,0.008011,-0.0011290000000000002
113,1.13,0.027530000000000002,-0.0036519999999999994,-0.004187999999999999,0.030853,0.0016169999999999995,0.003128
114,1.14,0.044338,-0.013153,-0.024095,0.029785000000000002,-0.0005189999999999999,0.004196
115,1.15,0.030657,-0.016767999999999998,-0.07915,0.023392,-0.0015719999999999994,0.003128
116,1.16,0.013331999999999998,-0.012977999999999995,-0.025581,0.020203,-0.00264,0.0052640000000000004
117,1.17,-0.015246000000000001,-0.037179000000000004,-0.00020699999999999882,0.019135,-0.0005189999999999999,0.0063170000000000006
118,1.18,-0.006019,-0.022095,0.020279,0.014877000000000001,-0.00264,0.0063170000000000006
119,1.19,-0.037578,-0.002495000000000001,0.013368000000000001,0.014877000000000001,-0.001572,0.004196
120,1.2,-0.041157,0.0037119999999999996,0.003991999999999999,0.016998,-0.004776,0.007384999999999999
121,1.21,-0.00030600000000000066,-0.0031920000000000004,-0.011913000000000002,0.016998,-0.007965,0.007384999999999999
122,1.22,-0.004952999999999999,0.011114,-0.048181000000000015,0.019135,-0.007965,0.007384999999999999
123,1.23,-0.003117,0.022585,0.015857999999999997,0.015944999999999997,-0.009033,0.008453
124,1.24,-0.014207,0.003667,0.0014299999999999998,0.018066,-0.010101,0.008453
125,1.25,-0.016104,0.028242000000000007,0.024222999999999998,0.020203,-0.011169,0.011642
126,1.26,-0.000425,0.019230000000000004,0.013613,0.02446,-0.010101,0.0063170000000000006
127,1.27,-0.002983,0.0027529999999999985,-0.034526,0.029785000000000002,-0.011169,0.01059
128,1.28,-0.000758,0.011425,-0.04508,0.031921,-0.010101,0.007384999999999999
129,1.29,0.009293999999999995,-0.027607999999999997,-0.063144,0.029785000000000002,-0.014359,0.008453
130,1.3,-0.010178,-0.015003,-0.08099500000000001,0.029785000000000002,-0.010101,0.007384999999999999
131,1.31,-0.03063,-0.029437,-0.054922000000000006,0.027663999999999998,-0.009033,0.0063170000000000006
132,1.32,-0.027775,-0.019047,-0.071977,0.029785000000000002,-0.010101,0.008453
133,1.33,-0.016715999999999998,0.008298,-0.107831,0.029785000000000002,-0.011169,0.0063170000000000006
134,1.34,-0.021223,-0.019629,-0.11159000000000001,0.027663999999999998,-0.012237999999999999,0.008453
135,1.35,-0.021362,-0.038446,-0.16589,0.028717000000000003,-0.012237999999999999,0.008453
136,1.36,-0.019772,-0.041839999999999995,-0.186377,0.026595999999999998,-0.012237999999999999,0.0052640000000000004
137,1.37,-0.02502,-0.040633999999999997,-0.15782100000000002,0.023392,-0.012237999999999999,0.01059
138,1.38,-0.04925,-0.048184,-0.141232,0.021271,-0.012237999999999999,0.007384999999999999
139,1.39,-0.057337,-0.050569,-0.11373699999999999,0.018066,-0.011169,0.009521
140,1.4,-0.05725499999999999,-0.057749,-0.126824,0.015944999999999997,-0.010101,0.008453
141,1.41,-0.032722,-0.00524,-0.09739600000000001,0.012740999999999999,-0.009033,0.009521
142,1.42,-0.051870000000000006,-0.021113,-0.073617,0.010620000000000001,-0.005843999999999999,0.009521
143,1.43,-0.019175,-0.017553,-0.036254,0.009552,-0.0005189999999999999,0.007384999999999999
144,1.44,-0.058367999999999996,-0.013988999999999998,-0.05156,0.013809,0.002686,0.003128
145,1.45,-0.056086000000000004,-0.014631,-0.058236,0.015944999999999997,0.006943,0.004196
146,1.46,-0.059639,0.005471999999999998,-0.053571,0.016998,0.008011,0.00206
147,1.47,-0.035875,0.0145,-0.055835,0.016998,0.0112,0.00206
148,1.48,-0.024483,-0.024974,-0.038345,0.020203,0.010147,0.00206
149,1.49,-0.019408,-0.001027,-0.116729,0.021271,0.015472,0.004196
150,1.5,-0.037735000000000005,0.0040490000000000005,-0.10663399999999999,0.020203,0.0112,0.00206
151,1.51,-0.06715,-0.026927999999999997,-0.14390899999999998,0.018066,0.010147,0.003128
152,1.52,-0.030602999999999998,-0.020020000000000003,-0.196475,0.019135,0.009079,0.0063170000000000006
153,1.53,-0.041589999999999995,0.005947999999999999,-0.159753,0.013809,0.009079,-7.599999999999968e-05
154,1.54,-0.018122,-0.004622,-0.082169,0.011673000000000001,0.017593,0.000992
155,1.55,0.0006849999999999981,-0.028555,-0.11936300000000001,0.013809,0.016525,-0.004333
156,1.56,-0.033112,-0.004333,-0.164185,0.011673000000000001,0.014403999999999998,-7.59999999999999e-05
157,1.57,-0.013217,0.007884,-0.176279,0.011673000000000001,0.010147,-7.6e-05
158,1.58,-0.017709,0.012941,-0.08091199999999997,0.008484,0.005875,-0.001129
159,1.59,-0.036018,0.034085000000000004,-0.096195,0.007416,0.009079,-0.0011290000000000002
160,1.6,-0.004307,-0.021824,-0.035091000000000004,0.009552,0.012268000000000001,-0.001129
161,1.61,-0.037136,-0.002587000000000001,0.005062,0.008484,0.017593,-0.0054020000000000006
162,1.62,-0.10275799999999999,0.004642,0.026747000000000003,0.0063479999999999995,0.026123,-0.008591
163,1.63,-0.09049299999999999,0.01625,0.003122,0.004227000000000001,0.028244,-0.009659000000000001
164,1.64,-0.005224000000000006,5.60000000000005e-05,-0.026259000000000005,0.005295,0.029312,-0.0054020000000000006
165,1.65,0.02565,0.027558,-0.055670000000000004,0.004227000000000001,0.029312,-0.004333
166,1.66,0.099713,0.054749,-0.033102,-0.0021670000000000005,0.028244,-0.0064540000000000005
167,1.67,0.09093,0.06338400000000001,0.0022329999999999954,-0.006423999999999999,0.028244,-0.009659000000000001
168,1.68,0.131498,0.100505,0.019859,-0.010695999999999999,0.023987,-0.012847999999999998
169,1.69,0.106853,0.07014,0.08748600000000001,-0.01709,0.022919,-0.01712
170,1.7,0.09533,0.057241,0.168998,-0.020279,0.021866,-0.018172999999999998
171,1.71,0.114731,0.020998,0.22850900000000002,-0.018143,0.015472,-0.014984
172,1.72,0.166738,0.028880000000000006,0.250786,-0.012816999999999999,0.008011,-0.007523
173,1.73,0.228465,-0.0043089999999999995,0.200107,-0.00856,0.0016170000000000002,0.0009919999999999998
174,1.74,0.22323400000000002,0.0004270000000000003,0.256193,-0.007492,-0.011169,0.004196
175,1.75,0.20805,-0.047546,0.239156,-0.007492,-0.01329,0.0052640000000000004
176,1.76,0.146276,-0.08845900000000001,0.20598400000000003,-0.009628,-0.019684,0.0063170000000000006
177,1.77,0.145567,-0.090049,0.190372,-0.009628,-0.017563,0.003128
178,1.78,0.075188,-0.07071799999999999,0.19913499999999998,-0.010695999999999999,-0.017563,0.004196
179,1.79,0.066291,-0.058194,0.13939200000000002,-0.010695999999999999,-0.012237999999999999,0.000992
180,1.8,0.094595,-0.030423000000000002,0.131354,-0.011765000000000001,-0.010101,0.003128
181,1.81,0.1055,-0.038571,0.125777,-0.011765000000000001,-0.009033,0.000992
182,1.82,0.145272,-0.028214,0.11748099999999999,-0.007492,-0.003708,-0.0011290000000000002
183,1.83,0.136391,-0.046825,0.11393099999999999,-0.004303,-0.003708,-0.0011290000000000002
184,1.84,0.1266,-0.098176,0.116542,-0.002167,-0.004776,-7.6e-05
185,1.85,0.107596,-0.11358,0.06451800000000002,0.004227000000000001,-0.005843999999999999,0.0052640000000000004
186,1.86,0.091026,-0.130537,0.003438,0.007416,-0.009033,0.007384999999999999
187,1.87,0.066078,-0.13878,-0.037724,0.007416,-0.010101,0.0063170000000000006
188,1.88,0.043598000000000005,-0.094239,-0.085664,0.00209,-0.01329,0.011642
189,1.89,0.003519000000000001,-0.070006,-0.08004700000000001,-0.00856,-0.014359,0.012711
190,1.9,-0.014616,-0.059345,-0.057254,-0.012816999999999999,-0.012237999999999999,0.013779
191,1.91,-0.060303999999999996,-0.025399,-0.07820099999999999,-0.019211000000000002,-0.010101,0.012711
192,1.92,-0.041642,-0.005579999999999997,-0.037591,-0.022415,-0.005843999999999999,0.014846999999999999
193,1.93,-0.028424,0.072281,-0.051073,-0.024536000000000002,-0.004776,0.011642
194,1.94,-0.031037,0.066674,-0.0034070000000000003,-0.023468,0.0016170000000000002,0.011642
195,1.95,-0.018437000000000002,0.07167799999999999,0.014542,-0.024536000000000002,0.006943,0.008453
196,1.96,-0.043868,0.075353,0.05821900000000001,-0.020279,0.009079,0.007384999999999999
197,1.97,-0.033951999999999996,0.064362,0.023052,-0.016022,0.009079,0.0063170000000000006
198,1.98,0.022548,0.080919,0.009696999999999999,-0.010695999999999999,0.012268000000000001,0.004196
199,1.99,-0.041573,0.029893000000000006,-0.032609,-0.005371,0.0112,0.0063170000000000006
200,2.0,-0.08017,0.037823,-0.044064,-4.600000000000003e-05,0.0112,0.0063170000000000006
201,2.01,-0.079001,0.08226,-0.130797,0.007416,0.010147,0.0063170000000000006
202,2.02,-0.088988,0.10573099999999999,-0.198346,0.013809,0.008011,0.003128
203,2.03,-0.06804500000000001,0.059338999999999996,-0.220756,0.019135,0.009079,-0.001129
204,2.04,-0.048364,0.05329400000000001,-0.250537,0.018066,0.004822,-0.0054020000000000006
205,2.05,-0.08831900000000001,0.066746,-0.242497,0.016998,0.010147,-0.009659000000000001
206,2.06,-0.167873,0.140771,-0.282103,0.020203,0.020798,-0.007523
207,2.07,-0.244837,0.15328,-0.27873000000000003,0.027663999999999998,0.033569,-0.007523
208,2.08,-0.27705,0.09127,-0.29801500000000003,0.030853,0.046356,-0.0054020000000000006
209,2.09,-0.30394899999999997,0.001910999999999996,-0.31150900000000004,0.03511,0.062332000000000005,-0.008591
210,2.1,-0.308965,-0.069037,-0.368973,0.020203,0.086838,-0.020309
211,2.11,-0.342912,-0.16276,-0.36514,-0.004303,0.12306199999999999,-0.038422000000000005
212,2.12,-0.499963,-0.13012200000000002,-0.347547,-0.035187,0.163544,-0.055465999999999994
213,2.13,-0.6209560000000001,-0.085421,-0.284466,-0.06395,0.20721399999999998,-0.068253
214,2.14,-0.744821,-0.072644,-0.18694000000000002,-0.086319,0.25195300000000004,-0.077835
215,2.15,-0.6875,-0.007011,-0.120564,-0.098038,0.295639,-0.09062200000000001
216,2.16,-0.613021,0.11086199999999999,0.03832,-0.10336300000000001,0.332916,-0.09487899999999999
217,2.17,-0.5453180000000001,0.15801700000000002,0.152223,-0.094849,0.360611,-0.097015
218,2.18,-0.45574499999999996,0.140326,0.170287,-0.06395,0.373398,-0.09806799999999999
219,2.19,-0.356668,0.057054000000000014,0.098898,-0.016022,0.360611,-0.09062200000000001
220,2.2,-0.25856399999999996,-0.151657,-0.092387,0.044708,0.33078,-0.070374
221,2.21,-0.24603200000000003,-0.344037,-0.402902,0.083054,0.303085,-0.048004000000000005
222,2.22,-0.259272,-0.44356599999999996,-0.717953,0.085175,0.282852,-0.027770999999999997
223,2.23,-0.23316199999999998,-0.423649,-0.8233959999999999,0.055359000000000005,0.25621,-0.010727
224,2.24,-0.181481,-0.25736,-0.8786930000000001,0.018066,0.227448,-0.008591
225,2.25,-0.179802,-0.129057,-0.733913,-0.013885,0.202957,-0.010727
226,2.26,-0.33665500000000004,-0.095209,-0.412211,-0.030930000000000003,0.197632,-0.020309
227,2.27,-0.48283999999999994,-0.073585,-0.01682700000000001,-0.035187,0.204025,-0.025635
228,2.28,-0.712183,-0.06322799999999999,0.255281,-0.021347,0.22106900000000002,-0.029892000000000002
229,2.29,-0.8515159999999999,-0.028762000000000006,0.25399099999999997,-0.004303,0.247696,-0.038422000000000005
230,2.3,-0.962851,-0.002048000000000001,0.16484000000000001,0.0063479999999999995,0.28178400000000003,-0.052261
231,2.31,-1.096553,-0.046596999999999986,0.10849,0.010620000000000001,0.31054699999999996,-0.070374
232,2.32,-1.170056,-0.104735,0.14921500000000001,0.014877000000000001,0.342499,-0.081024
233,2.33,-1.156636,-0.142956,0.122491,0.018066,0.378723,-0.085297
234,2.34,-0.999985,-0.03176799999999999,0.044565,0.014877000000000001,0.414948,-0.09062200000000001
235,2.35,-0.776658,0.259981,-0.132195,0.009552,0.43837,-0.106598
236,2.36,-0.5799949999999999,0.456962,-0.157748,-0.0010989999999999993,0.462875,-0.123642
237,2.37,-0.538702,0.534978,-0.05434100000000002,-0.005371,0.473526,-0.133224
238,2.38,-0.470811,0.41338,0.20945100000000003,0.004227000000000001,0.48844899999999997,-0.123642
239,2.39,-0.393027,0.248221,0.309056,0.020203,0.498032,-0.102341
240,2.4,-0.268092,0.078477,0.26153699999999996,0.030853,0.49270600000000003,-0.078903
241,2.41,-0.119298,-0.100173,0.138372,0.036179,0.47459399999999996,-0.055465999999999994
242,2.42,-0.006640999999999994,-0.151608,-0.047490999999999985,0.028717000000000003,0.452225,-0.026702999999999998
243,2.43,0.17152799999999999,-0.095551,-0.107342,0.006348,0.44371000000000005,-0.011795
244,2.44,0.22981,-0.01867,-0.050442,-0.034134000000000005,0.44371000000000005,-0.01712
245,2.45,0.276283,-0.031826,0.090699,-0.079941,0.44796800000000003,-0.044815
246,2.46,0.37048400000000004,-0.025227,0.241444,-0.100174,0.449036,-0.07357799999999999
247,2.47,0.48061099999999995,-0.125227,0.31695100000000004,-0.10336300000000001,0.460754,-0.097015
248,2.48,0.537998,-0.263829,0.324337,-0.099106,0.465012,-0.099136
249,2.49,0.591435,-0.439542,0.11927,-0.100174,0.45755,-0.085297
250,2.5,0.578275,-0.618417,0.003820000000000001,-0.117218,0.43092299999999994,-0.052261
251,2.51,0.754041,-0.669179,-0.018262999999999998,-0.154495,0.389374,-0.0075229999999999984
252,2.52,0.9699409999999999,-0.512201,0.015238999999999999,-0.193924,0.352097,0.025497
253,2.53,1.065433,-0.204062,-0.025013999999999998,-0.210968,0.333984,0.032958999999999995
254,2.54,0.916458,0.208588,-0.060314,-0.192856,0.32759099999999997,0.024429
255,2.55,0.6899350000000001,0.575747,-0.042582999999999996,-0.153442,0.335052,0.007384999999999998
256,2.56,0.621301,0.76875,-0.135001,-0.096985,0.34570300000000004,-0.007523
257,2.57,0.49768100000000004,0.794511,-0.240744,-0.056503,0.375519,-0.018172999999999998
258,2.58,0.42789099999999997,0.528354,-0.228291,-0.038391,0.400024,-0.025635
259,2.59,0.433709,0.08371000000000002,-0.13914,-0.036255,0.41600000000000004,-0.01712
260,2.6,0.6209210000000001,-0.274353,-0.269893,-0.042648,0.42453,-0.004333
261,2.61,0.778486,-0.431432,-0.551535,-0.057555999999999996,0.418137,0.0063170000000000006
262,2.62,0.771313,-0.440213,-0.717328,-0.087387,0.40962200000000004,0.013779
263,2.63,0.614043,-0.390251,-0.680905,-0.119354,0.402161,0.015915000000000002
264,2.64,0.292732,-0.43339300000000003,-0.451899,-0.154495,0.407486,0.018036
265,2.65,0.114725,-0.6058439999999999,-0.314786,-0.185394,0.418137,0.021240000000000002
266,2.66,0.057540999999999995,-0.823427,-0.364454,-0.202438,0.40962200000000004,0.024429
267,2.67,0.12823299999999999,-1.080592,-0.436406,-0.217346,0.392563,0.030823000000000003
268,2.68,0.356742,-1.316909,-0.5516310000000001,-0.23866300000000001,0.359543,0.036148
269,2.69,0.780079,-1.387329,-0.6941350000000001,-0.270615,0.31161500000000003,0.042542
270,2.7,1.242264,-1.180606,-0.9947090000000001,-0.297241,0.24983200000000003,0.04361
271,2.71,1.692669,-0.7875989999999999,-1.2037069999999999,-0.313232,0.163544,0.028687
272,2.72,1.927784,-0.28469,-1.280457,-0.318558,0.088974,0.0009919999999999998
273,2.73,1.937384,0.046524,-1.251687,-0.315353,0.011200000000000002,-0.03096
274,2.74,1.797164,0.243008,-1.2285270000000001,-0.302582,-0.061234000000000004,-0.058655
275,2.75,1.628072,0.262925,-1.1709,-0.279144,-0.104904,-0.076767
276,2.76,1.3154379999999999,0.164151,-1.230905,-0.248245,-0.12941,-0.09274299999999999
277,2.77,1.0110379999999999,0.046808999999999996,-1.452013,-0.219482,-0.151779,-0.097015
278,2.78,0.66827,-0.033566000000000006,-1.65714,-0.20137,-0.168823,-0.097015
279,2.79,0.478663,-0.118469,-1.647146,-0.198181,-0.184799,-0.095947
280,2.8,0.322117,-0.198277,-1.6305969999999999,-0.189651,-0.192261,-0.09806799999999999
281,2.81,0.306771,-0.289074,-1.6384849999999997,-0.174744,-0.182678,-0.09806799999999999
282,2.82,0.409739,-0.362728,-1.62615,-0.16409300000000002,-0.165634,-0.091675
283,2.83,0.46755699999999994,-0.406113,-1.597429,-0.142792,-0.144318,-0.087418
284,2.84,0.5128060000000001,-0.354219,-1.551534,-0.117218,-0.119827,-0.09274299999999999
285,2.85,0.5493020000000001,-0.273547,-1.542783,-0.084198,-0.09425399999999999,-0.099136
286,2.86,0.600954,-0.14861,-1.545567,-0.05223099999999999,-0.061234000000000004,-0.10446199999999999
287,2.87,0.661323,0.099299,-1.531881,-0.016022,-0.039932,-0.11938499999999999
288,2.88,0.772378,0.374927,-1.418536,0.031921,-0.031403,-0.132156
289,2.89,0.9183469999999999,0.518934,-1.2820610000000001,0.086243,-0.044189,-0.133224
290,2.9,1.236294,0.5855229999999999,-1.0716450000000002,0.15123,-0.07402,-0.118317
291,2.91,1.518907,0.43096999999999996,-0.833859,0.211945,-0.128342,-0.103394
292,2.92,1.763923,0.12201099999999998,-0.7982899999999999,0.253494,-0.199722,-0.09487899999999999
293,2.93,1.8118990000000001,-0.27728200000000003,-0.915933,0.26521300000000003,-0.257248,-0.09062200000000001
294,2.94,1.5165680000000001,-0.512943,-1.204545,0.260956,-0.29985,-0.09487899999999999
295,2.95,1.151237,-0.427899,-1.45271,0.239639,-0.33075,-0.097015
296,2.96,0.719588,-0.09227200000000002,-1.6816520000000001,0.224731,-0.33287,-0.101273
297,2.97,0.338214,0.46877299999999994,-1.872784,0.20875500000000002,-0.312637,-0.10446199999999999
298,2.98,0.120728,1.046422,-1.959727,0.21621700000000002,-0.277481,-0.10446199999999999
299,2.99,0.048983,1.3969719999999999,-1.889591,0.226868,-0.228485,-0.103394
300,3.0,0.25098200000000004,1.437862,-1.8314979999999998,0.231125,-0.188004,-0.108734
301,3.01,0.5808949999999999,1.196065,-1.780146,0.22047399999999998,-0.16136199999999998,-0.118317
302,3.02,0.974835,0.8585510000000001,-1.859563,0.205551,-0.151779,-0.13003499999999998
303,3.03,1.1556030000000002,0.551027,-2.0678080000000003,0.187454,-0.144318,-0.133224
304,3.04,1.145348,0.474087,-2.32848,0.162949,-0.136871,-0.125778
305,3.05,1.002923,0.627738,-2.5956930000000003,0.139511,-0.128342,-0.108734
306,3.06,0.742857,0.856196,-2.732926,0.121399,-0.104904,-0.079971
307,3.07,0.562182,1.170193,-2.623644,0.11288499999999999,-0.077209,-0.036285000000000005
308,3.08,0.319374,1.5503790000000002,-2.363233,0.10435499999999999,-0.022888,0.003127999999999999
309,3.09,0.196635,1.711055,-1.921892,0.10328699999999999,0.028244000000000005,0.03508
310,3.1,0.177392,1.355793,-1.356957,0.09477200000000001,0.07193,0.069168
311,3.11,0.348707,0.489555,-0.6215189999999999,0.100098,0.093231,0.07662999999999999
312,3.12,0.234066,-0.209763,-0.219761,0.129929,0.131577,0.059586
313,3.13,-0.165672,-0.51576,-0.41722600000000004,0.15123,0.18591300000000002,0.057449
314,3.14,-0.47873000000000004,-0.6392939999999999,-0.811422,0.13525399999999999,0.202957,0.11711099999999999
315,3.15,-0.25190999999999997,-0.65356,-1.013,0.10755899999999999,0.140106,0.220444
316,3.16,0.4065900000000001,-0.6503760000000001,-0.8398450000000001,0.110748,0.021866,0.34721399999999997
317,3.17,1.121313,-0.511245,-0.791027,0.130981,-0.10917699999999997,0.45585600000000004
318,3.18,1.541549,-0.530882,-0.522892,0.1427,-0.264694,0.549606
319,3.19,1.7358099999999999,-0.762328,-0.126425,0.138443,-0.401047,0.615646
320,3.2,1.740275,-0.9475049999999999,0.286582,0.106491,-0.48201000000000005,0.638031
321,3.21,1.430233,-0.995807,0.674822,0.056427,-0.502258,0.617783
322,3.22,0.926586,-1.034822,1.109944,-0.008560000000000002,-0.47135900000000003,0.559189
323,3.23,0.342632,-1.02613,1.558124,-0.066086,-0.392532,0.47184799999999993
324,3.24,-0.38415,-0.786417,1.8412709999999999,-0.10231,-0.288132,0.36319
325,3.25,-1.114847,-0.258783,1.9666439999999998,-0.11828599999999999,-0.170959,0.26411399999999996
326,3.26,-1.653962,0.22190500000000002,2.0661240000000003,-0.12468,-0.079346,0.198074
327,3.27,-2.012154,0.582885,2.298069,-0.10975599999999999,-0.02182,0.177826
328,3.28,-2.020247,0.715364,2.507533,-0.0746,0.0026860000000000013,0.198074
329,3.29,-1.705496,0.503429,2.5525580000000003,-0.016022,0.002686,0.240677
330,3.3,-1.202253,0.219334,2.265676,0.056426999999999984,-0.023941,0.27050799999999997
331,3.31,-0.5859880000000001,-0.07803599999999998,1.715495,0.116074,-0.069748,0.258789
332,3.32,-0.13633599999999998,-0.2185,0.9806360000000001,0.146973,-0.134735,0.210846
333,3.33,0.050763,-0.220092,0.469739,0.139511,-0.211441,0.139481
334,3.34,0.0687,-0.24197399999999997,0.172776,0.106491,-0.288132,0.072372
335,3.35,0.372613,-0.183076,0.036886,0.064941,-0.391464,0.027634
336,3.36,0.8541190000000001,0.031169,-0.002419,0.019135,-0.526749,-0.0054020000000000006
337,3.37,1.248674,0.363743,0.08404499999999998,-0.039458999999999994,-0.649261,-0.046936000000000005
338,3.38,1.252214,0.6419729999999999,0.41037799999999997,-0.111893,-0.769638,-0.081024
339,3.39,1.014702,0.527061,0.90009,-0.17260699999999998,-0.8719020000000001,-0.093811
340,3.4,0.5315310000000001,0.308527,1.254081,-0.203506,-0.929428,-0.089554
341,3.41,0.012488999999999972,-0.010782999999999987,1.3260290000000001,-0.199249,-0.9656370000000001,-0.068253
342,3.42,-0.488454,-0.349101,1.0467469999999999,-0.184326,-0.98056,-0.042679
343,3.43,-0.955074,-0.456805,0.6961,-0.169418,-0.9922790000000001,-0.027770999999999997
344,3.44,-1.250981,-0.489263,0.41537299999999994,-0.15983599999999998,-0.9965360000000001,-0.025635
345,3.45,-1.465012,-0.522779,0.11926399999999998,-0.150238,-0.974167,-0.036285000000000005
346,3.46,-1.622336,-0.610769,-0.011746999999999994,-0.152374,-0.927292,-0.06398
347,3.47,-1.7131290000000001,-0.7579560000000001,-0.093855,-0.160889,-0.845261,-0.08316
348,3.48,-1.6799419999999998,-0.970118,-0.146003,-0.170486,-0.752594,-0.09806799999999999
349,3.49,-1.574224,-1.1304969999999999,-0.23745100000000002,-0.16835,-0.662048,-0.10446199999999999
350,3.5,-1.3589639999999998,-1.234807,-0.37750700000000004,-0.165161,-0.5917359999999999,-0.10766600000000001
351,3.51,-1.146521,-1.289104,-0.5049819999999999,-0.154495,-0.538467,-0.10553
352,3.52,-1.097008,-1.3162120000000002,-0.589619,-0.150238,-0.49266099999999996,-0.093811
353,3.53,-1.186187,-1.340066,-0.598777,-0.145981,-0.442596,-0.082092
354,3.54,-1.369832,-1.308086,-0.5499569999999999,-0.139587,-0.389328,-0.06718400000000001
355,3.55,-1.462616,-1.3081399999999999,-0.557768,-0.12361099999999998,-0.3414,-0.051208000000000004
356,3.56,-1.55227,-1.370543,-0.719458,-0.105499,-0.295593,-0.033096
357,3.57,-1.622586,-1.415016,-0.9014770000000001,-0.087387,-0.242325,-0.0054020000000000006
358,3.58,-1.524007,-1.332891,-0.996821,-0.075668,-0.186935,0.027634
359,3.59,-1.3447850000000001,-1.270807,-1.1279540000000001,-0.051177999999999994,-0.143265,0.05426
360,3.6,-1.039459,-1.12055,-1.2198069999999999,-0.022415,-0.11236600000000001,0.07130399999999999
361,3.61,-0.74742,-0.795009,-1.39774,0.023392,-0.101715,0.079819
362,3.62,-0.5629970000000001,-0.507224,-1.69397,0.07666,-0.100647,0.07662999999999999
363,3.63,-0.46233199999999997,-0.292927,-1.849537,0.140579,-0.104904,0.064911
364,3.64,-0.4256,-0.074121,-1.869474,0.211945,-0.108109,0.042542
365,3.65,-0.518462,0.201197,-1.7575869999999998,0.292908,-0.11129800000000001,0.015915000000000002
366,3.66,-0.8084979999999999,0.388403,-1.7003580000000003,0.369614,-0.08467100000000001,-0.023499000000000003
367,3.67,-1.318033,0.441147,-1.5614629999999998,0.40475500000000003,-0.023941000000000004,-0.07251
368,3.68,-1.8491490000000002,0.514783,-1.255258,0.41861000000000004,0.059142999999999994,-0.126831
369,3.69,-2.271092,0.7021390000000001,-0.9309299999999999,0.419678,0.172058,-0.19500699999999999
370,3.7,-2.385773,1.1219860000000001,-0.7627970000000001,0.39624000000000004,0.287109,-0.293015
371,3.71,-2.3809310000000004,1.650264,-0.628405,0.367477,0.390442,-0.41125500000000004
372,3.72,-2.175975,2.187348,-0.692174,0.361084,0.471405,-0.514587
373,3.73,-1.7435200000000002,2.585097,-1.0789469999999999,0.41328400000000004,0.49270600000000003,-0.566788
374,3.74,-1.17334,2.7750049999999997,-1.750432,0.541122,0.459686,-0.55188
375,3.75,-0.5643779999999999,2.691725,-2.618215,0.716888,0.341431,-0.483704
376,3.76,0.28275900000000004,2.509446,-3.6183370000000004,0.867081,0.128387,-0.391022
377,3.77,1.562818,2.8876779999999997,-4.555701,0.948044,-0.215698,-0.304733
378,3.78,2.697107,3.698771,-4.6163419999999995,0.8777309999999999,-0.5480649999999999,-0.266388
379,3.79,2.717288,4.087117,-2.983753,0.598633,-0.66098,-0.35693400000000003
380,3.8,0.4891289999999999,3.6149430000000002,-0.703268,0.293976,-0.545929,-0.562531
381,3.81,-1.3866559999999999,2.8234220000000003,1.587485,0.11714200000000001,-0.33714299999999997,-0.724457
382,3.82,-2.8831830000000003,1.7208829999999995,3.258481,0.006348,-0.05590800000000001,-0.797958
383,3.83,-3.5526760000000004,0.3708560000000001,4.345352,-0.099106,0.156082,-0.7393649999999999
384,3.84,-2.6916130000000003,-0.633091,4.973596,-0.185394,0.156082,-0.587036
385,3.85,-0.4586570000000001,-0.6709069999999999,5.017712,-0.21629299999999999,-0.012238,-0.41232299999999994
386,3.86,2.3297060000000003,-0.300875,4.691954,-0.200302,-0.358444,-0.169449
387,3.87,3.244247,0.029281,4.188379,-0.152374,-0.478821,-0.041611
388,3.88,3.460589,0.5466260000000001,3.08775,-0.056503,-0.5469970000000001,0.064911
389,3.89,2.977541,1.287447,1.910842,0.040436,-0.570435,0.145874
390,3.9,2.342704,1.541228,1.416009,0.087311,-0.508636,0.16185
391,3.91,1.1301169999999998,1.23726,1.625313,0.126724,-0.324356,0.13308699999999998
392,3.92,-0.0017810000000000323,0.493016,1.795826,0.176788,-0.09425400000000002,0.096863
393,3.93,-0.955024,-0.4585290000000001,1.721899,0.223663,0.12731900000000002,0.069168
394,3.94,-1.457938,-1.510457,1.450421,0.239639,0.315872,0.055327999999999995
395,3.95,-1.5620020000000001,-2.359221,1.1515360000000001,0.21514899999999998,0.433044,0.05426
396,3.96,-1.125643,-2.880572,0.85735,0.164017,0.46608,0.05426
397,3.97,-0.283327,-2.938774,0.503012,0.110748,0.44583100000000003,0.052124000000000004
398,3.98,0.653663,-2.5534220000000003,0.143378,0.061752,0.43518100000000004,0.028687
399,3.99,1.3618,-2.043232,-0.24050500000000002,0.027663999999999998,0.41600000000000004,-0.012848000000000002
400,4.0,1.7456169999999998,-1.649029,-0.359214,0.00209,0.376587,-0.045883
401,4.01,2.027432,-1.275426,-0.29935900000000004,-0.019211000000000002,0.338242,-0.07251
402,4.02,1.991612,-1.104507,-0.234945,-0.040512,0.29775999999999997,-0.089554
403,4.03,1.788093,-1.015156,-0.162143,-0.061828999999999995,0.26367199999999996,-0.089554
404,4.04,1.63232,-0.9753870000000001,-0.12454000000000001,-0.076736,0.22639499999999999,-0.082092
405,4.05,1.553983,-1.098335,-0.078536,-0.076736,0.172058,-0.08316
406,4.06,1.515535,-1.042604,-0.077811,-0.056503,0.11134300000000001,-0.093811
407,4.07,1.475178,-0.988799,-0.011273000000000005,-0.030930000000000003,0.06127899999999999,-0.095947
408,4.08,1.425575,-0.9499190000000001,-0.065804,0.008484,0.008011,-0.099136
409,4.09,1.3766100000000001,-0.9395979999999999,-0.22554899999999997,0.039383,-0.029282,-0.09806799999999999
410,4.1,1.503934,-1.0253139999999998,-0.5086579999999999,0.045761,-0.058029,-0.09274299999999999
411,4.11,1.602061,-1.159463,-0.9111969999999999,0.024460000000000003,-0.083603,-0.091675
412,4.12,1.7155330000000002,-1.333995,-1.260514,-0.013885000000000002,-0.10704000000000001,-0.103394
413,4.13,1.731168,-1.514497,-1.3194709999999998,-0.06076,-0.125153,-0.122574
414,4.14,1.7296470000000002,-1.562078,-1.226694,-0.095917,-0.145386,-0.147079
415,4.15,1.681341,-1.508402,-1.29389,-0.111893,-0.158173,-0.173706
416,4.16,1.597751,-1.31513,-1.242788,-0.11508199999999999,-0.168823,-0.19075
417,4.17,1.544317,-1.000766,-1.26219,-0.094849,-0.168823,-0.192886
418,4.18,1.654779,-0.6767890000000001,-1.3363690000000001,-0.051177999999999994,-0.177353,-0.175842
419,4.19,1.977625,-0.5055729999999999,-1.2187709999999998,-0.002166999999999999,-0.213562,-0.14068599999999998
420,4.2,2.5533189999999997,-0.396063,-0.855292,0.03299,-0.288132,-0.11299100000000001
421,4.21,3.004284,-0.16550399999999998,-0.49022899999999997,0.059615999999999995,-0.387207,-0.103394
422,4.22,2.9253970000000002,0.381228,-0.39014899999999997,0.09689299999999999,-0.457504,-0.09487899999999999
423,4.23,2.117366,0.964457,-0.8168979999999999,0.17466700000000002,-0.43513500000000005,-0.11299100000000001
424,4.24,0.802561,1.3887180000000001,-1.4109200000000002,0.296112,-0.309433,-0.193954
425,4.25,-0.29822,1.824191,-1.848946,0.431396,-0.183731,-0.283432
426,4.26,-1.1591280000000002,2.29143,-2.064048,0.491043,-0.052703999999999994,-0.342026
427,4.27,-1.3847120000000002,2.4744189999999997,-2.3311479999999998,0.501694,0.092163,-0.334564
428,4.28,-0.76176,2.149461,-2.6419900000000003,0.508087,0.152893,-0.24295
429,4.29,0.5217149999999999,1.574767,-2.926409,0.49743699999999996,0.120926,-0.07357799999999999
430,4.3,1.7828709999999999,1.239105,-3.222943,0.481461,0.064468,0.139481
431,4.31,2.36785,1.498335,-2.877542,0.45269799999999993,-0.025009,0.371704
432,4.32,1.724188,2.825883,-2.153393,0.389847,-0.033539,0.544281
433,4.33,0.043516,4.266275,-1.1096030000000001,0.29930100000000004,0.08258099999999999,0.643356
434,4.34,-0.811253,4.557836,0.5383349999999999,0.20343,0.120926,0.7051390000000001
435,4.35,-0.775651,3.677893,2.025574,0.125656,0.126251,0.747742
436,4.36,-0.544723,2.331547,2.3095630000000003,0.04364,0.19656400000000002,0.82019
437,4.37,0.5437030000000002,0.75022,2.918704,-0.11828599999999999,0.205078,0.9416200000000001
438,4.38,1.66203,-0.988112,3.8694260000000003,-0.305771,0.192307,1.027908
439,4.39,2.439279,-2.345757,4.334186,-0.466629,0.175262,1.0353700000000001
440,4.4,2.612085,-2.8433349999999997,4.150688,-0.559296,0.199753,0.88623
441,4.41,2.181981,-2.453695,3.3563389999999997,-0.557175,0.209351,0.620987
442,4.42,1.375733,-1.589975,2.689899,-0.474075,0.13903800000000002,0.332291
443,4.43,0.9830139999999999,-0.76883,2.333964,-0.333466,-0.040985,0.108582
444,4.44,0.986135,0.05513600000000002,2.113649,-0.17687999999999998,-0.307312,0.015915000000000002
445,4.45,1.342814,0.746182,1.910219,-0.056503,-0.586411,0.042542
446,4.46,2.140544,1.079791,1.814754,0.0020900000000000016,-0.8729709999999999,0.12883
447,4.47,2.582479,1.331061,1.651671,0.007416,-1.124359,0.199142
448,4.48,2.37499,1.1851479999999999,1.51796,0.011673000000000001,-1.296936,0.23642
449,4.49,1.6579970000000002,1.000552,1.294041,0.062805,-1.430099,0.237488
450,4.5,1.07556,0.992392,1.15907,0.130981,-1.539825,0.208725
451,4.51,-0.32167499999999993,1.031193,1.1765940000000001,0.181061,-1.609055,0.13841199999999998
452,4.52,-1.4750969999999999,0.8279690000000001,1.1469040000000001,0.182114,-1.573914,0.079819
453,4.53,-2.2178430000000002,0.246184,1.026707,0.110748,-1.518509,0.061722000000000006
454,4.54,-1.9589150000000002,-0.647124,0.957664,0.0020900000000000016,-1.455658,0.07344099999999999
455,4.55,-1.406706,-1.116144,0.64404,-0.077805,-1.423706,0.090485
456,4.56,-0.5532130000000001,-1.375139,0.43944300000000003,-0.138519,-1.423706,0.10539200000000001
457,4.57,0.381343,-1.440567,0.285456,-0.183258,-1.455658,0.101135
458,4.58,0.826894,-1.145297,0.383456,-0.219482,-1.505737,0.080887
459,4.59,0.6664,-0.5406489999999999,0.527092,-0.230133,-1.5281069999999999,0.070236
460,4.6,0.266866,-0.08623400000000002,0.658877,-0.22374000000000002,-1.551544,0.072372
461,4.61,-0.0036810000000000037,0.021069,0.865974,-0.198181,-1.55687,0.078766
462,4.62,-0.333301,-0.185246,0.8850620000000001,-0.161957,-1.543015,0.07662999999999999
463,4.63,-0.623483,-0.594616,0.78375,-0.126801,-1.504669,0.07130399999999999
464,4.64,-0.96572,-1.068765,0.599057,-0.107635,-1.472702,0.0681
465,4.65,-1.319469,-1.451825,0.42898400000000003,-0.10336300000000001,-1.426895,0.078766
466,4.66,-1.480416,-1.8329060000000001,0.301913,-0.111893,-1.373642,0.103256
467,4.67,-1.486732,-2.032834,0.22870700000000002,-0.121475,-1.32251,0.14267
468,4.68,-1.415753,-1.992305,0.13459000000000002,-0.13533,-1.266052,0.188477
469,4.69,-1.2613530000000002,-1.806361,-0.017894999999999998,-0.14491300000000001,-1.207458,0.235352
470,4.7,-1.155671,-1.5898940000000001,-0.162171,-0.145981,-1.146744,0.274765
471,4.71,-1.098276,-1.358176,-0.22980799999999998,-0.131073,-1.0700379999999998,0.306732
472,4.72,-0.986517,-1.176561,-0.324513,-0.098038,-0.993332,0.334427
473,4.73,-0.815439,-0.9069309999999999,-0.5415369999999999,-0.037323,-0.917709,0.335495
474,4.74,-0.716137,-0.5442279999999999,-0.7904329999999999,0.046829,-0.8516540000000001,0.307785
475,4.75,-0.797909,-0.328349,-1.028614,0.158691,-0.771759,0.260925
476,4.76,-1.201946,-0.28664,-1.121682,0.276932,-0.67482,0.199142
477,4.77,-1.6986400000000001,-0.421442,-1.077117,0.360016,-0.551254,0.136292
478,4.78,-1.894998,-0.442054,-0.9887799999999999,0.381332,-0.463898,0.084091
479,4.79,-1.7756889999999999,-0.375445,-0.814688,0.368546,-0.42981,0.061722000000000006
480,4.8,-1.423289,-0.21837399999999998,-0.457016,0.360016,-0.360565,0.070236
481,4.81,-1.1579620000000002,0.050715,-0.011759999999999993,0.321671,-0.222092,0.065979
482,4.82,-1.364142,0.6673520000000001,0.49803800000000004,0.260956,-0.05058299999999999,0.014847
483,4.83,-1.7852279999999998,1.560267,0.797244,0.21621700000000002,0.166733,-0.053328999999999994
484,4.84,-1.781641,2.634561,-0.02215500000000004,0.259888,0.346771,-0.126831
485,4.85,-1.3942510000000001,2.869303,-1.486572,0.444183,0.395767,-0.177963
486,4.86,-0.288181,2.070389,-3.022376,0.661484,0.352097,-0.166245
487,4.87,1.104199,1.181693,-4.366219999999999,0.801041,0.13478099999999998,-0.097015
488,4.88,3.17545,1.4170690000000001,-5.551603,0.8585659999999999,-0.284943,0.039352
489,4.89,5.130269999999999,2.7732799999999997,-4.638258,0.747772,-0.717438,0.149063
490,4.9,6.180701999999999,4.08371,-2.128304,0.495316,-0.9006649999999999,0.045731
491,4.91,5.1684,4.438271,0.48298,0.254562,-0.807983,-0.333496
492,4.92,1.924626,2.9466240000000004,2.8579209999999997,0.10116599999999999,-0.615173,-0.689301
493,4.93,-0.087287,0.6366529999999999,4.753430000000001,-0.022415000000000004,-0.560837,-0.8096770000000001
494,4.94,-1.378935,-1.568861,5.264156,-0.12468,-0.595993,-0.7649229999999999
495,4.95,-0.10771799999999998,-1.997407,3.92015,-0.43573,-0.9613799999999999,-0.37397800000000003
496,4.96,1.546999,0.11346599999999984,4.305813,-0.549713,-1.137146,-0.154526
497,4.97,2.410742,2.784719,4.447161,-0.513504,-1.1776280000000001,0.052124000000000004
498,4.98,2.677018,4.707964,3.860617,-0.371811,-1.1169129999999998,0.208725
499,4.99,2.049528,5.4078919999999995,2.847326,-0.186462,-0.911316,0.26197800000000004
500,5.0,0.819022,4.609251,1.9925169999999999,-0.025604,-0.629013,0.237488
501,5.01,-0.6156929999999999,2.564677,1.293215,0.11821,-0.388275,0.172501
502,5.02,-1.844934,0.138544,0.46361800000000003,0.190643,-0.138992,0.1203
503,5.03,-2.517663,-1.8926349999999998,-0.2360179999999999,0.156555,0.088974,0.126694
504,5.04,-2.7447,-3.239583,-0.08898899999999997,0.057479999999999996,0.235977,0.18528699999999998
505,5.05,-2.0177709999999998,-3.787319,0.597869,-0.04158,0.299896,0.27369699999999997
506,5.06,-0.682228,-3.610922,0.718295,-0.12468,0.304153,0.34721399999999997
507,5.07,0.7905009999999999,-3.085667,0.41945699999999997,-0.19178800000000001,0.303085,0.372772
508,5.08,1.940174,-2.423979,0.145405,-0.255707,0.276459,0.339752
509,5.09,2.6745330000000003,-1.849957,-0.066025,-0.282333,0.230652,0.279022
510,5.1,3.075768,-1.417889,-0.053652,-0.264221,0.165665,0.21937600000000002
511,5.11,3.144262,-1.203396,0.12200999999999998,-0.232269,0.114532,0.171432
512,5.12,3.149302,-1.2869700000000002,0.24231,-0.196045,0.03891,0.135223
513,5.13,3.15826,-1.2999100000000001,0.394664,-0.183258,-0.051651,0.10539200000000001
514,5.14,3.05372,-1.3357809999999999,0.497971,-0.175812,-0.128342,0.06704700000000001
515,5.15,2.546404,-1.332476,0.605,-0.170486,-0.179474,0.021240000000000002
516,5.16,1.990415,-1.218921,0.480171,-0.15876800000000002,-0.207169,-0.022446
517,5.17,1.514401,-1.1274950000000001,0.185074,-0.152374,-0.231674,-0.052261
518,5.18,1.372962,-1.017009,-0.095835,-0.14917,-0.255112,-0.068253
519,5.19,1.603948,-0.8612860000000001,-0.28616199999999997,-0.143845,-0.292389,-0.086349
520,5.2,2.019425,-0.845043,-0.55064,-0.140656,-0.335007,-0.099136
521,5.21,2.443103,-0.883699,-0.896119,-0.143845,-0.40637199999999996,-0.102341
522,5.22,2.871556,-1.045663,-1.033333,-0.160889,-0.477753,-0.102341
523,5.23,3.0359279999999997,-1.226301,-1.104624,-0.188583,-0.541672,-0.097015
524,5.24,2.463149,-0.965008,-1.390895,-0.252502,-0.580017,-0.093811
525,5.25,2.0238709999999998,-0.404571,-1.524276,-0.241852,-0.571487,-0.095947
526,5.26,1.853325,0.22254800000000005,-1.774894,-0.175812,-0.565109,-0.078903
527,5.27,2.131529,0.570607,-1.785856,-0.066086,-0.584274,-0.036285000000000005
528,5.28,2.667361,0.578205,-1.421103,0.027663999999999998,-0.639664,0.014846999999999997
529,5.29,3.283405,0.49386199999999997,-0.989972,0.072403,-0.72702,0.062775
530,5.3,3.139631,0.8852200000000001,-1.055447,0.093704,-0.757919,0.07662999999999999
531,5.31,1.6307719999999999,1.336814,-1.513217,0.146973,-0.597061,0.012711
532,5.32,-0.27773600000000004,1.476781,-2.296174,0.28118899999999997,-0.294525,-0.153473
533,5.33,-2.057481,1.6510490000000002,-2.660918,0.384521,-0.110229,-0.324982
534,5.34,-2.6451439999999997,1.9893880000000002,-2.049399,0.33657800000000004,0.0005490000000000009,-0.330307
535,5.35,-1.7634150000000002,1.840593,-1.624179,0.253494,0.015472,-0.18649300000000002
536,5.36,0.804719,1.277216,-2.145775,0.24496500000000002,-0.086792,0.07023600000000002
537,5.37,2.520489,1.424974,-2.8258389999999998,0.289719,-0.24125700000000003,0.358917
538,5.38,2.875391,2.077643,-3.1066439999999997,0.34510799999999997,-0.200775,0.616714
539,5.39,1.8360560000000001,2.844737,-1.922839,0.339783,-0.23486300000000002,0.777573
540,5.4,0.968549,3.207905,-0.696965,0.256683,-0.142197,0.7839659999999999
541,5.41,0.322855,3.117659,0.018668000000000014,0.173599,-0.003708000000000003,0.633759
542,5.42,-1.032744,2.768019,0.8517020000000001,0.084122,0.197632,0.486755
543,5.43,-2.370618,2.217557,1.6762,-0.039458999999999994,0.459686,0.509125
544,5.44,-1.9085849999999998,0.26036800000000004,3.3329239999999998,-0.257828,0.648239,0.7520140000000001
545,5.45,-0.5623589999999999,-1.144203,4.244785,-0.381409,0.6556850000000001,0.9086
546,5.46,1.0673319999999995,-2.168052,4.605005,-0.49111899999999997,0.6035,0.9714510000000001
547,5.47,2.682674,-2.171872,4.460248,-0.5518489999999999,0.449036,0.9054110000000001
548,5.48,3.830121,-1.38153,3.6409569999999998,-0.547592,0.247696,0.709396
549,5.49,3.562207,-0.711915,2.8950720000000003,-0.479401,0.03891,0.460129
550,5.5,3.4526410000000003,-0.02110200000000001,2.281836,-0.365417,-0.22741700000000006,0.314178
551,5.51,3.657581,0.653942,1.7456049999999999,-0.22587600000000002,-0.5480649999999999,0.237488
552,5.52,3.999649,0.990455,1.4449940000000001,-0.108704,-0.8484649999999999,0.191681
553,5.53,4.147123000000001,1.0051350000000001,1.3007959999999998,-0.035187,-1.132889,0.14694200000000002
554,5.54,3.9098010000000003,0.8561350000000001,1.058608,-0.0021670000000000005,-1.38855,0.103256
555,5.55,3.0386740000000003,0.5565479999999999,1.027735,0.014877,-1.65593,0.06704700000000001
556,5.56,2.021752,0.196687,1.191025,0.009552,-1.8700560000000002,0.042542
557,5.57,0.8112199999999999,0.191183,1.221079,-0.036255,-2.039429,0.018036
558,5.58,-0.18612300000000004,0.18807000000000001,1.4184620000000001,-0.117218,-2.172592,0.028687
559,5.59,-0.865625,-0.116902,1.7099,-0.219482,-2.236496,0.088348
560,5.6,-1.011187,-0.344016,1.893462,-0.313232,-2.261002,0.171432
561,5.61,-1.099494,-0.583557,1.932261,-0.363297,-2.236496,0.224701
562,5.62,-0.9865809999999999,-0.676322,1.7668529999999998,-0.368622,-2.182175,0.243881
563,5.63,-1.022402,-0.635281,1.358249,-0.346252,-2.113998,0.221512
564,5.64,-1.114482,-0.47893199999999997,0.661528,-0.299377,-1.99469,0.151199
565,5.65,-1.2880770000000001,-0.39537100000000003,0.30927899999999997,-0.271683,-1.8796389999999998,0.084091
566,5.66,-1.3835,-0.548855,0.14297100000000001,-0.253571,-1.761398,0.019104
567,5.67,-1.324384,-0.851234,-0.004006999999999997,-0.252502,-1.6484830000000001,-0.032027999999999994
568,5.68,-1.2851139999999999,-1.221177,-0.10910399999999999,-0.268478,-1.5345,-0.058655
569,5.69,-1.2236719999999999,-1.61029,-0.064886,-0.28979499999999997,-1.43222,-0.06718400000000001
570,5.7,-1.146325,-1.9668990000000002,0.12125599999999999,-0.300446,-1.326767,-0.058655
571,5.71,-1.1953120000000002,-2.257318,0.193777,-0.292984,-1.225571,-0.024567
572,5.72,-1.2625469999999999,-2.354996,0.09335399999999999,-0.283401,-1.137146,0.012711
573,5.73,-1.324834,-2.160454,-0.167495,-0.251434,-1.011444,0.092606
574,5.74,-1.277485,-1.971082,-0.40928000000000003,-0.226944,-0.9379430000000001,0.14267
575,5.75,-1.118417,-1.793537,-0.704399,-0.187531,-0.865509,0.192749
576,5.76,-1.0916629999999998,-1.852791,-0.944739,-0.143845,-0.793076,0.221512
577,5.77,-1.143523,-1.868143,-1.08749,-0.105499,-0.701462,0.244934
578,5.78,-1.095515,-1.6933220000000002,-1.3022610000000001,-0.06289700000000001,-0.605576,0.25346399999999997
579,5.79,-0.922568,-1.2604440000000001,-1.504025,-0.0021670000000000023,-0.513977,0.249207
580,5.8,-0.777713,-0.835045,-1.817172,0.078796,-0.421295,0.21511799999999998
581,5.81,-0.8616870000000001,-0.5055930000000001,-2.054812,0.150162,-0.335007,0.153336
582,5.82,-1.010828,-0.119189,-1.937042,0.197037,-0.26683,0.07662999999999999
583,5.83,-1.534398,0.351232,-1.2573370000000001,0.23645,-0.17840599999999998,-0.029891999999999995
584,5.84,-1.6455490000000002,0.8912959999999999,-1.1800469999999998,0.240707,-0.104904,-0.117249
585,5.85,-1.534346,1.288957,-0.826233,0.23751799999999998,-0.101715,-0.153473
586,5.86,-1.490026,1.346122,-0.040636999999999916,0.262009,-0.03886400000000001,-0.11617999999999999
587,5.87,-1.584571,1.33616,0.8105939999999999,0.23326100000000002,0.129456,-0.055465999999999994
588,5.88,-1.631872,1.908843,1.116374,0.164017,0.324387,-0.056534
589,5.89,-1.354551,3.1838759999999997,0.276907,0.158691,0.42985500000000004,-0.1492
590,5.9,-0.253895,4.209949,-1.080745,0.36322,0.37233,-0.26745599999999997
591,5.91,1.492201,4.577176000000001,-2.812964,0.7115630000000001,0.266876,-0.33989
592,5.92,3.345299,4.489403,-4.051214,0.998108,-0.077209,-0.33136
593,5.93,5.542258,4.6983440000000005,-4.565804,1.173889,-0.550186,-0.21844499999999997
594,5.94,7.357896,4.759075,-4.201148,1.055634,-0.9422,-0.141754
595,5.95,6.797331,4.2161349999999995,-1.8607100000000003,0.64444,-1.009323,-0.345215
596,5.96,3.3560839999999996,3.023136,0.7551820000000001,0.303558,-0.865509,-0.699951
597,5.97,0.1851290000000001,1.331244,2.730241,0.102234,-0.7888029999999999,-0.9193879999999999
598,5.98,-2.0928169999999997,-0.4943389999999999,4.026654,-0.133194,-0.774963,-0.9204559999999999
599,5.99,-2.31917,-1.197627,5.221392,-0.43998699999999996,-0.8516540000000001,-0.784103
600,6.0,-1.5852389999999998,-0.832837,6.590775999999999,-0.677551,-0.96991,-0.567856
601,6.01,-0.757047,-0.1277890000000001,7.145824,-0.731873,-1.031693,-0.233368
602,6.02,0.4626129999999999,0.9348649999999998,6.580311,-0.605103,-1.031693,0.176758
603,6.03,1.8857810000000002,2.0384830000000003,5.016705,-0.338791,-0.995468,0.482498
604,6.04,2.550638,2.8814450000000003,2.9785209999999998,-0.111893,-0.8836209999999999,0.59967
605,6.05,1.940332,2.90652,1.6904869999999999,0.020202999999999992,-0.696136,0.559189
606,6.06,0.552509,1.7161380000000002,1.194599,0.13205,-0.453247,0.442017
607,6.07,-0.860606,0.010476999999999959,0.781838,0.202362,-0.16349800000000006,0.31738299999999997
608,6.08,-1.952926,-1.507391,0.378847,0.21514899999999998,0.15608200000000005,0.23216199999999998
609,6.09,-2.370196,-2.554162,0.17211400000000002,0.166138,0.403229,0.211914
610,6.1,-1.899748,-3.221124,0.229041,0.080917,0.520401,0.23642
611,6.11,-1.1232959999999999,-3.54028,0.48231899999999994,-0.012817000000000002,0.555557,0.27050799999999997
612,6.12,0.0060679999999999614,-3.3411730000000004,0.584976,-0.084198,0.527863,0.307785
613,6.13,1.0817450000000002,-2.728336,0.607431,-0.127869,0.459686,0.32164
614,6.14,1.918614,-2.019133,0.5294810000000001,-0.155563,0.375519,0.328033
615,6.15,2.603335,-1.384409,0.589835,-0.147049,0.28178400000000003,0.328033
616,6.16,3.245704,-0.958467,0.603649,-0.120407,0.20828200000000002,0.319504
617,6.17,3.6093319999999998,-0.58263,0.711123,-0.101242,0.136902,0.29180900000000004
618,6.18,3.977005,-0.6103310000000001,0.8416389999999999,-0.079941,0.062332000000000005,0.25346399999999997
619,6.19,4.143804,-0.714443,0.785877,-0.061828999999999995,-0.030334,0.198074
620,6.2,3.572276,-0.9480709999999999,0.704944,-0.044785000000000005,-0.125153,0.137344
621,6.21,2.692641,-0.978621,0.314681,-0.026672,-0.19439700000000001,0.09367400000000001
622,6.22,1.896464,-1.016732,0.04673,-0.023468,-0.24658200000000002,0.072372
623,6.23,1.2365030000000001,-0.9077709999999999,-0.181983,-0.026672,-0.267899,0.047867
624,6.24,0.743432,-0.8254790000000001,-0.446349,-0.030930000000000003,-0.268951,0.020172
625,6.25,0.591184,-0.843302,-0.6585880000000001,-0.037323,-0.26683,-7.599999999999968e-05
626,6.26,0.842007,-0.9986940000000001,-0.82683,-0.054367,-0.279617,-0.014984
627,6.27,1.323321,-1.1537620000000002,-0.8172699999999999,-0.089523,-0.30838000000000004,-0.025635
628,6.28,1.839488,-1.404783,-0.8457959999999999,-0.132126,-0.33287,-0.021378
629,6.29,2.2579919999999998,-1.4989649999999999,-0.852477,-0.17793299999999998,-0.353119,-0.013916
630,6.3,2.543081,-1.173133,-0.8422940000000001,-0.219482,-0.362701,-0.020309
631,6.31,2.3355759999999997,-0.627271,-0.8734799999999999,-0.22055100000000002,-0.347794,-0.040543
632,6.32,1.997814,-0.12548,-1.011202,-0.156631,-0.313705,-0.058655
633,6.33,1.76587,0.044887,-1.099104,-0.042648,-0.2892,-0.06398
634,6.34,1.8960110000000001,-0.14418499999999998,-1.037463,0.081985,-0.276413,-0.053328999999999994
635,6.35,2.097898,-0.4608,-1.051173,0.187454,-0.276413,-0.03949
636,6.36,2.002078,-0.691959,-1.31728,0.254562,-0.23486300000000002,-0.032027999999999994
637,6.37,1.2100540000000002,-0.567121,-1.846439,0.305695,-0.10704000000000001,-0.07144199999999999
638,6.38,-0.15193299999999998,-0.282683,-2.4073830000000003,0.382385,0.078323,-0.160919
639,6.39,-0.793402,-0.140995,-2.3288599999999997,0.45163000000000003,0.20828200000000002,-0.27064499999999997
640,6.4,-1.030905,0.429275,-2.3205709999999997,0.432465,0.180588,-0.293015
641,6.41,-0.13043700000000005,0.7863399999999999,-1.7455200000000002,0.322739,0.016524999999999998,-0.159866
642,6.42,1.404614,1.060349,-1.463673,0.214081,-0.201843,0.025496999999999992
643,6.43,2.433289,1.812082,-1.741163,0.204498,-0.389328,0.281158
644,6.44,2.5856060000000003,2.848059,-2.170254,0.30249000000000004,-0.45857200000000004,0.557068
645,6.45,1.7139520000000001,3.8175809999999997,-1.9871830000000001,0.42926000000000003,-0.56723,0.835098
646,6.46,0.226768,4.628189,-1.207623,0.42926000000000003,-0.536346,1.055603
647,6.47,-0.498212,4.9208169999999996,0.046732,0.351501,-0.441528,1.118454
648,6.48,-1.565576,4.821165000000001,1.659743,0.270538,-0.267899,1.04921
649,6.49,-2.445709,4.174169999999999,2.448257,0.16507,-0.06336999999999998,0.998077
650,6.5,-2.990318,2.847243,3.213531,0.02446,0.142227,1.055603
651,6.51,-2.189245,1.0883559999999999,4.0073739999999995,-0.09271200000000003,0.371262,1.149353
652,6.52,-1.426866,-0.699018,4.300773,-0.174744,0.6343840000000001,1.167465
653,6.53,-0.9358139999999999,-2.085958,4.125505,-0.263153,0.834656,1.107803
654,6.54,0.27820100000000003,-2.549914,3.7176940000000003,-0.322815,0.928406,0.937363
655,6.55,1.484636,-1.835163,2.774869,-0.333466,0.964615,0.629501
656,6.56,1.816557,-0.9779329999999999,1.790473,-0.299377,0.902832,0.295013
657,6.57,1.8971790000000002,0.10100499999999996,1.344142,-0.264221,0.698303,0.05851699999999999
658,6.58,2.3527810000000002,0.757517,1.382491,-0.248245,0.4010929999999999,-0.056534
659,6.59,3.5179120000000004,1.0615450000000002,1.7672430000000001,-0.256775,0.049561,-0.12043800000000002
660,6.6,4.484525,1.11968,2.253636,-0.279144,-0.28067,-0.17157
661,6.61,4.51282,1.354838,2.8033959999999998,-0.263153,-0.573624,-0.217377
662,6.62,2.990911,1.563434,2.9443669999999997,-0.174744,-0.797333,-0.269577
663,6.63,1.000139,1.525776,2.668303,-0.066086,-0.978424,-0.278107
664,6.64,-0.35720100000000005,1.62058,2.049287,0.013809000000000002,-1.155258,-0.252533
665,6.65,-1.4389889999999999,1.397741,1.685209,0.028717000000000003,-1.267105,-0.202469
666,6.66,-1.807109,0.819685,1.2837450000000001,0.004227000000000001,-1.310791,-0.141754
667,6.67,-1.7895919999999998,-0.197229,0.776775,-0.049042,-1.278824,-0.11299100000000001
668,6.68,-1.296427,-1.103991,0.19197000000000006,-0.10975599999999999,-1.202133,-0.123642
669,6.69,-1.0754,-1.755496,-0.146223,-0.174744,-1.094543,-0.175842
670,6.7,-1.012756,-2.185829,-0.44627100000000003,-0.232269,-0.979492,-0.23548899999999998
671,6.71,-1.211147,-2.425582,-0.503541,-0.269547,-0.875092,-0.2845
672,6.72,-1.8529259999999999,-2.167986,-0.48402,-0.282333,-0.7536470000000001,-0.301544
673,6.73,-2.050836,-1.83607,-0.304616,-0.266357,-0.653519,-0.285553
674,6.74,-1.740029,-1.590837,-0.065738,-0.205643,-0.561905,-0.228043
675,6.75,-1.42262,-1.4153440000000002,-0.08449500000000001,-0.161957,-0.502258,-0.181168
676,6.76,-1.218817,-1.380962,-0.159474,-0.134262,-0.45431499999999997,-0.141754
677,6.77,-1.176352,-1.4494129999999998,-0.243186,-0.11296099999999999,-0.405319,-0.100204
678,6.78,-1.3219299999999998,-1.5029430000000001,-0.142102,-0.099106,-0.35524,-0.062927
679,6.79,-1.4817360000000002,-1.5408190000000002,-0.089863,-0.069275,-0.29133600000000004,-0.032027999999999994
680,6.8,-1.633673,-1.595161,-0.275995,-0.035187,-0.219955,-0.004333
681,6.81,-1.623874,-1.6971919999999998,-0.601534,-0.011765000000000001,-0.14859,0.030823
682,6.82,-1.4986030000000001,-1.6413939999999998,-0.885964,0.00209,-0.086792,0.06704700000000001
683,6.83,-1.17215,-1.5215049999999999,-0.8292450000000001,0.018066,-0.055908000000000006,0.101135
684,6.84,-0.6947840000000001,-1.264585,-0.643962,0.085175,-0.048447000000000004,0.125626
685,6.85,-0.264059,-0.884783,-0.423534,0.21621700000000002,-0.044189,0.12243699999999999
686,6.86,-0.227985,-0.41555600000000004,-0.6611100000000001,0.388779,0.011200000000000002,0.09581
687,6.87,-0.410772,-0.118894,-1.201062,0.530457,0.051682000000000006,0.053191999999999996
688,6.88,-0.76826,0.0611,-1.094,0.592255,0.050613,0.009520999999999998
689,6.89,-1.506574,-0.036963,-0.543261,0.6092989999999999,0.057007,-0.016052
690,6.9,-2.085237,-0.516229,-0.9305040000000001,0.6050260000000001,0.109207,-0.012847999999999998
691,6.91,-2.261796,-0.898799,-2.077287,0.600769,0.09109500000000001,0.021240000000000002
692,6.92,-1.650752,-0.683384,-2.875206,0.621017,-0.001571999999999997,0.09367400000000001
693,6.93,-0.8266040000000001,-0.107085,-2.8928990000000003,0.634857,-0.05484,0.169312
694,6.94,-0.424749,0.701629,-1.593461,0.581589,0.015472,0.187424
695,6.95,-0.842425,1.671773,-0.147679,0.48571800000000004,0.17419400000000002,0.11711099999999999
696,6.96,-1.4154959999999999,2.172592,0.086,0.41435200000000005,0.351028,0.018036
697,6.97,-1.82992,2.498377,-0.9488639999999999,0.401566,0.480988,-0.09701500000000003
698,6.98,-2.214966,2.252593,-3.045208,0.493179,0.498032,-0.17157
699,6.99,-1.3724120000000002,1.947788,-4.728887,0.5624239999999999,0.379791,-0.168381
700,7.0,-0.05709399999999998,1.951905,-4.95699,0.563492,0.162476,-0.13961800000000002
701,7.01,1.671603,2.528819,-4.54833,0.56987,-0.131546,-0.06825299999999998
702,7.02,3.24027,3.6462800000000004,-3.3734379999999997,0.513412,-0.444733,-0.037354000000000005
703,7.03,3.8567940000000003,4.544314,-0.031483999999999845,0.442047,-0.618362,-0.109787
704,7.04,2.964516,4.605778,2.504004,0.463348,-0.456451,-0.297272
705,7.05,0.5700649999999999,3.4828639999999997,2.852417,0.421799,-0.23806799999999997,-0.51886
706,7.06,-1.007419,1.8587509999999998,3.5456220000000003,0.286514,-0.22421300000000002,-0.6924899999999999
707,7.07,-1.8047990000000003,0.187654,5.174894999999999,0.146973,-0.184799,-0.759598
708,7.08,-2.25661,-1.285615,5.92317,0.030853,-0.09106399999999999,-0.718063
709,7.09,-1.9322840000000001,-1.652975,5.893655,-0.08845499999999999,-0.149643,-0.6019439999999999
710,7.1,-0.8378200000000001,-0.971342,5.828382,-0.148117,-0.262573,-0.463455
711,7.11,-0.016585000000000016,0.077453,5.042237,-0.11828599999999999,-0.311569,-0.24295
712,7.12,0.9535900000000002,0.922034,3.090543,-0.039458999999999994,-0.271088,0.02017200000000001
713,7.13,1.774111,1.437207,0.932099,-0.006423999999999999,-0.237,0.158661
714,7.14,1.936627,1.686304,0.006707000000000018,-0.04158,-0.149643,0.129898
715,7.15,1.06713,1.0893030000000001,0.143337,-0.091644,0.013336,0.016967999999999997
716,7.16,-0.5230859999999999,-0.25806,0.402907,-0.126801,0.218933,-0.093811
717,7.17,-1.9026880000000002,-1.6611849999999997,0.055615,-0.160889,0.44796800000000003,-0.150269
718,7.18,-2.89813,-2.626946,-0.085136,-0.22374000000000002,0.609879,-0.110855
719,7.19,-3.3317550000000002,-2.964893,0.465192,-0.283401,0.6716770000000001,0.025496999999999992
720,7.2,-2.412681,-2.648535,1.045509,-0.28979499999999997,0.662079,0.225769
721,7.21,-0.4104479999999999,-2.022648,1.255002,-0.273819,0.643967,0.35572800000000004
722,7.22,0.965799,-1.3765290000000001,1.467052,-0.245056,0.694046,0.36744699999999997
723,7.23,1.581309,-0.7175020000000001,1.580319,-0.165161,0.780319,0.297134
724,7.24,1.819821,-0.201423,1.432748,-0.076736,0.867676,0.199142
725,7.25,1.9982830000000003,-0.050781,1.260744,-0.029861000000000002,0.8953700000000001,0.089417
726,7.26,2.007861,-0.183585,0.8716959999999999,-0.006424000000000001,0.933731,-0.014983999999999997
727,7.27,1.8949209999999999,-0.491913,0.3881210000000001,-0.019211000000000002,0.94545,-0.101273
728,7.28,1.895587,-0.862894,0.16777999999999998,-0.038391,0.8996430000000001,-0.15773
729,7.29,1.9903080000000002,-1.114425,0.005801000000000001,-0.05011,0.8218690000000001,-0.17157
730,7.3,1.9858189999999998,-1.063256,-0.219021,-0.055435000000000005,0.745178,-0.159866
731,7.31,2.08066,-0.858186,-0.732412,-0.06289700000000001,0.657822,-0.11617999999999999
732,7.32,2.197043,-0.84814,-1.337084,-0.079941,0.567276,-0.077835
733,7.33,2.096351,-1.068288,-1.7316169999999997,-0.119354,0.485245,-0.054398
734,7.34,1.7755150000000002,-1.40126,-1.3697290000000002,-0.1577,0.44050600000000006,-0.045883
735,7.35,1.496336,-1.690782,-0.9630709999999999,-0.166214,0.418137,-0.051208000000000004
736,7.36,1.401349,-1.8738689999999998,-0.8438680000000001,-0.167282,0.408554,-0.06930499999999999
737,7.37,1.488848,-1.975513,-1.002126,-0.174744,0.389374,-0.099136
738,7.38,1.7169029999999998,-1.8852900000000001,-1.307372,-0.181137,0.362747,-0.134293
739,7.39,1.845632,-1.585831,-1.625391,-0.182205,0.320129,-0.163055
740,7.4,1.8223770000000001,-1.229825,-1.9439529999999998,-0.150238,0.291367,-0.18649300000000002
741,7.41,1.770416,-0.869767,-2.1400639999999997,-0.055435000000000005,0.24983200000000003,-0.184357
742,7.42,1.748264,-0.788949,-2.2909200000000003,0.061752,0.22106900000000002,-0.143875
743,7.43,2.091046,-1.0027629999999998,-1.900516,0.138443,0.162476,-0.08316
744,7.44,2.7002610000000002,-1.155024,-0.936456,0.13311800000000001,0.042099,-0.023499000000000003
745,7.45,2.864461,-0.815946,-0.14952100000000002,0.062805,-0.037795999999999996,0.00206
746,7.46,2.107986,0.12815299999999996,0.09302200000000001,0.014877000000000001,-0.0047760000000000025,-0.06504800000000001
747,7.47,0.5231399999999999,0.782537,-0.46064499999999997,0.093704,0.10281400000000002,-0.266388
748,7.48,-1.0093,1.472504,-1.240625,0.2258,0.017592999999999998,-0.370789
749,7.49,-1.376673,2.14343,-0.666978,0.190643,-0.144318,-0.27064499999999997
750,7.5,-0.733104,2.632558,-0.12626099999999998,0.129929,-0.294525,-0.021378000000000008
751,7.51,0.611028,2.207647,-1.3029609999999998,0.18425,-0.361633,0.29180900000000004
752,7.52,0.820729,1.8997939999999998,-2.705359,0.287582,-0.277481,0.541092
753,7.53,0.321536,2.16826,-3.291629,0.35257,-0.137924,0.6593319999999999
754,7.54,-0.643474,2.9050540000000002,-2.304047,0.373871,-0.036728,0.727509
755,7.55,-1.615613,3.5207,-0.937818,0.29504400000000003,0.164597,0.72644
756,7.56,-2.57209,3.951026,-0.08125499999999998,0.20768699999999998,0.36593600000000004,0.6710510000000001
757,7.57,-3.372843,4.06535,0.751342,0.12779200000000002,0.512939,0.691284
758,7.58,-3.5552029999999997,3.5355849999999998,1.797926,0.011673000000000005,0.672729,0.890488
759,7.59,-2.295327,2.2418150000000003,2.74868,-0.153442,0.83252,1.12059
760,7.6,-1.183856,0.677756,3.543306,-0.332397,1.014679,1.234573
761,7.61,-0.714313,-0.624895,4.77109,-0.536926,1.239456,1.203674
762,7.62,0.28143500000000005,-0.755095,5.62374,-0.649857,1.375809,0.976776
763,7.63,1.3227149999999999,0.49212,4.850102,-0.583801,1.404572,0.568787
764,7.64,1.432132,1.728822,3.076117,-0.393127,1.377945,0.119247
765,7.65,1.0386959999999998,2.367229,2.0146759999999997,-0.165161,1.279938,-0.183289
766,7.66,1.165881,2.4258189999999997,1.246476,0.040436,1.1137540000000001,-0.314316
767,7.67,2.091572,1.570848,0.639648,0.177856,0.8740690000000001,-0.343079
768,7.68,3.266353,-0.15446099999999996,0.23155799999999999,0.211945,0.5917819999999999,-0.346283
769,7.69,3.9524449999999995,-1.8055,0.07062000000000003,0.138443,0.300964,-0.360123
770,7.7,3.782564,-2.970125,0.258522,0.008484000000000005,0.013335999999999987,-0.419785
771,7.71,2.490823,-3.3897769999999996,0.7549319999999999,-0.117218,-0.222092,-0.512466
772,7.72,0.836838,-2.540257,1.033126,-0.235458,-0.41490200000000005,-0.55188
773,7.73,-0.965683,-1.068825,1.250237,-0.365417,-0.588531,-0.500748
774,7.74,-1.980316,-0.06729600000000002,1.610215,-0.47088599999999997,-0.699326,-0.340958
775,7.75,-2.501798,1.050909,1.389377,-0.494324,-0.783478,-0.066116
776,7.76,-2.475904,1.466758,1.065951,-0.42189,-0.804794,0.056396
777,7.77,-1.7810439999999998,1.2318209999999998,0.653095,-0.302582,-0.764313,0.09367400000000001
778,7.78,-1.4952379999999998,0.499191,0.345086,-0.189651,-0.687607,0.050003
779,7.79,-1.60398,-0.6054430000000001,0.223502,-0.107635,-0.597061,-0.035217
780,7.8,-1.9705540000000001,-1.608315,0.12293,-0.059691999999999995,-0.441528,-0.134293
781,7.81,-2.0555689999999998,-2.352695,-0.301216,-0.051177999999999994,-0.267899,-0.201401
782,7.82,-1.6334540000000002,-2.528244,-0.780996,-0.077805,-0.157104,-0.222717
783,7.83,-1.017919,-2.297352,-1.000926,-0.125748,-0.101715,-0.208862
784,7.84,-0.5305449999999999,-1.813041,-1.045024,-0.184326,-0.088928,-0.18223599999999998
785,7.85,-0.246006,-1.4884870000000001,-0.941823,-0.23652600000000001,-0.10383599999999998,-0.153473
786,7.86,-0.772,-1.4000270000000001,-0.567343,-0.270615,-0.144318,-0.122574
787,7.87,-2.2204330000000003,-1.80267,-0.419712,-0.27594,-0.130478,-0.108734
788,7.88,-2.623055,-1.9370889999999998,-0.475087,-0.281265,-0.12408399999999999,-0.06504800000000001
789,7.89,-2.6260209999999997,-2.036189,-0.620332,-0.282333,-0.100647,-0.013915999999999998
790,7.9,-2.370107,-2.136951,-0.807292,-0.281265,-0.068695,0.039352
791,7.91,-1.907746,-2.012359,-0.919114,-0.280197,-0.034607,0.081955
792,7.92,-1.441777,-1.5605280000000001,-1.164034,-0.252502,-0.026077,0.127762
793,7.93,-1.122711,-0.889283,-1.300371,-0.188583,-0.031403,0.152267
794,7.94,-1.17391,-0.32058200000000003,-1.186659,-0.079941,-0.0068969999999999995,0.144806
795,7.95,-1.644889,0.01241500000000001,-0.8780549999999999,0.006348,0.060211,0.10646099999999999
796,7.96,-2.155941,0.089656,-0.847992,0.05215499999999999,0.10495,0.064911
797,7.97,-2.315489,0.152808,-0.9832219999999999,0.093704,0.083649,0.023361
798,7.98,-1.4966700000000002,0.23944000000000001,-1.1563450000000002,0.150162,0.017592999999999998,0.025497
799,7.99,0.019178000000000032,0.620066,-1.492062,0.223663,-0.11875899999999999,0.125626
800,8.0,0.14053800000000002,1.140703,-0.75017,0.20768699999999998,-0.088928,0.212982
801,8.01,-0.517504,2.05619,0.14683,0.081985,0.09642,0.23216199999999998
802,8.02,-0.788589,3.6617800000000003,-0.09255300000000002,0.009552,0.25621,0.140549
803,8.03,-0.42112200000000005,4.784101000000001,-1.137154,0.140579,0.265808,-0.041611
804,8.04,0.8119300000000002,5.421412999999999,-2.391596,0.4814609999999999,0.165665,-0.238693
805,8.05,2.0625150000000003,5.615616999999999,-3.502395,0.798904,-0.01328999999999998,-0.39421100000000003
806,8.06,3.2977510000000003,5.436033999999999,-3.9296059999999997,0.978943,-0.254044,-0.461334
807,8.07,3.556973,4.87807,-3.7494160000000005,0.990662,-0.5778810000000001,-0.460266
808,8.08,2.387453,3.5717449999999995,-2.566134,0.80423,-0.701462,-0.393158
809,8.09,0.681231,2.46007,-1.31923,0.455887,-0.678024,-0.351608
810,8.1,-0.665443,1.0680549999999998,0.543732,0.08837899999999999,-0.607712,-0.45173599999999997
811,8.11,-2.0366020000000002,-0.8265750000000001,2.655936,-0.251434,-0.480942,-0.5849
812,8.12,-2.8599509999999997,-2.557703,4.68893,-0.534805,-0.346725,-0.641357
813,8.13,-3.141966,-3.0941009999999998,6.060408,-0.704178,-0.342468,-0.611526
814,8.14,-2.583086,-2.4255150000000003,6.619416999999999,-0.75531,-0.390396,-0.5135350000000001
815,8.15,-1.343954,-0.7912919999999999,6.279319,-0.665833,-0.344589,-0.328171
816,8.16,-0.261072,1.1608040000000002,5.101495,-0.43573,-0.287064,-0.088486
817,8.17,0.4069430000000001,2.7636580000000004,3.866765,-0.11828599999999999,-0.250854,0.088348
818,8.18,0.6313489999999999,3.317225,2.6784779999999997,0.141647,-0.056976,0.12883
819,8.19,-0.204723,2.510027,1.967817,0.273727,0.239166,0.062775
820,8.2,-1.874783,0.623787,1.706532,0.323807,0.589645,-0.024567
821,8.21,-3.285358,-1.328717,1.7912580000000002,0.34829699999999997,0.8943180000000001,-0.075699
822,8.22,-3.994196,-2.748055,1.7242080000000002,0.339783,1.216019,-0.049072000000000005
823,8.23,-3.594592,-3.5116300000000003,1.587734,0.28225700000000004,1.43866,0.010590000000000002
824,8.24,-1.289309,-3.115417,1.441378,0.093704,1.6069790000000002,0.061722000000000006
825,8.25,0.051884000000000034,-2.0163159999999998,1.609428,-0.05223099999999999,1.675156,0.032958999999999995
826,8.26,0.970777,-0.671134,1.8931900000000002,-0.141724,1.7230830000000001,-0.033096
827,8.27,1.76237,0.29537399999999997,2.0440560000000003,-0.141724,1.736938,-0.100204
828,8.28,2.116422,1.159977,1.80113,-0.069275,1.73587,-0.159866
829,8.29,2.338171,1.310393,1.3195860000000001,0.029785000000000002,1.7007139999999998,-0.19500699999999999
830,8.3,2.442398,0.928811,0.726275,0.11714200000000001,1.65065,-0.201401
831,8.31,2.40978,0.240141,0.206215,0.17466700000000002,1.564362,-0.181168
832,8.32,2.642824,-0.45355500000000004,-0.425541,0.20343,1.412033,-0.155594
833,8.33,2.4188110000000003,-1.015342,-0.881971,0.18318199999999998,1.23732,-0.13961800000000002
834,8.34,1.834452,-1.506205,-0.944844,0.13205,1.071136,-0.136429
835,8.35,1.135591,-1.7426840000000001,-0.946572,0.069199,0.9582209999999999,-0.13855
836,8.36,0.639206,-1.8187509999999998,-0.87575,0.0042270000000000025,0.873001,-0.143875
837,8.37,0.556172,-1.796655,-0.819378,-0.042647999999999985,0.797379,-0.148148
838,8.38,0.919632,-1.761677,-0.809567,-0.072479,0.732391,-0.159866
839,8.39,1.268874,-1.692836,-0.8693540000000001,-0.096985,0.665283,-0.183289
840,8.4,1.598676,-1.651602,-0.8323290000000001,-0.11296099999999999,0.5907140000000001,-0.219513
841,8.41,1.7753599999999998,-1.6647290000000001,-0.912004,-0.12361099999999998,0.517212,-0.25892600000000005
842,8.42,1.823013,-1.6541720000000002,-0.957292,-0.12468,0.449036,-0.293015
843,8.43,1.628372,-1.534023,-0.9609120000000001,-0.099106,0.380859,-0.307938
844,8.44,1.41321,-1.292915,-1.157756,-0.039459000000000015,0.312683,-0.29834
845,8.45,1.237709,-1.034123,-1.491579,0.062805,0.235977,-0.256805
846,8.46,1.506383,-0.87934,-1.696627,0.186386,0.13797,-0.184357
847,8.47,2.296422,-0.714021,-1.559052,0.304626,-0.017562999999999995,-0.08316
848,8.48,3.4948599999999996,-0.692497,-1.120719,0.364288,-0.21249400000000002,0.013779
849,8.49,4.319113,-0.505685,-0.7199810000000001,0.339783,-0.404251,0.07449299999999999
850,8.5,4.330035,-0.10866599999999997,-0.9770790000000001,0.29504400000000003,-0.49479700000000004,0.096863
851,8.51,3.059328,0.669882,-1.283968,0.287582,-0.489471,0.034012
852,8.52,0.43815,1.176144,-1.583392,0.32806399999999997,-0.328613,-0.172638
853,8.53,-1.082411,1.558634,-1.5639969999999999,0.40475500000000003,-0.301987,-0.281296
854,8.54,-1.8692119999999999,1.656923,-0.85529,0.342972,-0.403183,-0.23016399999999998
855,8.55,-2.040355,2.036066,-0.6627609999999999,0.22154200000000002,-0.46070900000000004,-0.035217
856,8.56,-0.749475,1.973902,-1.533914,0.21621700000000002,-0.421295,0.21937600000000002
857,8.57,0.412317,1.4095600000000001,-2.3900759999999996,0.315277,-0.368027,0.397278
858,8.58,0.10935300000000003,1.586983,-3.174209,0.42713900000000005,-0.2892,0.463318
859,8.59,-0.763622,2.297587,-3.4340669999999998,0.49850500000000003,-0.15603599999999998,0.45373500000000005
860,8.6,-1.964937,3.434429,-2.99748,0.47293100000000005,0.035706,0.436691
861,8.61,-2.904896,4.038645,-2.00749,0.36322,0.275391,0.42176800000000003
862,8.62,-3.020497,3.8114730000000003,-0.570477,0.270538,0.453293,0.442017
863,8.63,-2.816127,3.347893,0.4852920000000001,0.201294,0.571533,0.562393
864,8.64,-1.5463770000000001,1.993068,1.715064,0.088379,0.6343840000000001,0.793549
865,8.65,0.7443350000000001,-0.17676300000000011,3.016778,-0.038391000000000015,0.633316,0.962936
866,8.66,1.968577,-2.3239360000000002,3.817823,-0.150238,0.662079,0.9906309999999999
867,8.67,2.011637,-3.943195,4.009643,-0.291916,0.7259979999999999,0.895813
868,8.68,1.511096,-4.651423,3.965667,-0.45065299999999997,0.752625,0.7392270000000001
869,8.69,0.9375620000000001,-3.86257,3.589489,-0.545456,0.75795,0.551743
870,8.7,0.5772149999999999,-2.001057,2.8196790000000003,-0.5358729999999999,0.730255,0.34721399999999997
871,8.71,0.46398900000000004,0.2168110000000001,2.151198,-0.42082200000000003,0.558746,0.174637
872,8.72,0.602716,2.383508,1.658971,-0.250381,0.292435,0.09474199999999999
873,8.73,1.186204,3.9087989999999997,1.464228,-0.091644,-0.04737900000000003,0.112854
874,8.74,2.419286,4.479647,1.748484,0.007416000000000006,-0.376556,0.16185
875,8.75,3.40924,4.413425,1.925301,0.07772799999999999,-0.630081,0.14267
876,8.76,3.082719,3.4425800000000004,1.9691290000000001,0.150162,-0.8260959999999999,0.02656599999999999
877,8.77,0.8916600000000001,1.5579,1.372024,0.279053,-1.0338129999999999,-0.123642
878,8.78,-0.254979,0.648961,0.9766729999999999,0.305695,-1.1222379999999998,-0.16731300000000002
879,8.79,-1.084653,-0.199898,0.7282390000000001,0.230057,-1.1147770000000001,-0.173706
880,8.8,-1.343896,-0.8347899999999999,0.41174399999999994,0.10861199999999999,-1.0753629999999998,-0.169449
881,8.81,-1.468127,-1.284382,0.01668700000000001,-0.016022,-1.025299,-0.17690999999999998
882,8.82,-1.504476,-1.677155,-0.23938600000000002,-0.117218,-0.9667049999999999,-0.197144
883,8.83,-1.6346829999999999,-1.903313,-0.366151,-0.192856,-0.9091799999999999,-0.220581
884,8.84,-1.808012,-2.064437,-0.38795,-0.259964,-0.845261,-0.23548899999999998
885,8.85,-1.821129,-2.047367,-0.30001700000000003,-0.310028,-0.8069149999999999,-0.251465
886,8.86,-1.645462,-1.924748,-0.08515900000000001,-0.338791,-0.7888029999999999,-0.25892600000000005
887,8.87,-1.326122,-1.804959,0.24092800000000003,-0.341995,-0.761108,-0.25892600000000005
888,8.88,-1.269859,-1.597652,0.43461700000000003,-0.326004,-0.730225,-0.255737
889,8.89,-1.284274,-1.369637,0.41948,-0.29512,-0.675888,-0.240814
890,8.9,-1.379685,-1.4031870000000002,0.297693,-0.257828,-0.606644,-0.215256
891,8.91,-1.500516,-1.547734,0.06294,-0.222687,-0.5342100000000001,-0.175842
892,8.92,-1.621047,-1.7941200000000002,-0.271853,-0.193924,-0.467102,-0.136429
893,8.93,-1.6883400000000002,-1.895544,-0.621479,-0.173676,-0.409576,-0.085297
894,8.94,-1.810511,-1.93323,-0.764893,-0.15876800000000002,-0.359512,-0.036285000000000005
895,8.95,-1.8516139999999999,-1.8817990000000002,-0.925076,-0.148117,-0.298782,0.0020599999999999998
896,8.96,-2.0065209999999998,-1.785829,-0.9080440000000001,-0.13533,-0.227417,0.028687
897,8.97,-2.09133,-1.84553,-0.9149010000000001,-0.121475,-0.133667,0.053191999999999996
898,8.98,-1.9888009999999998,-2.0289509999999997,-1.087903,-0.11296099999999999,-0.036728,0.0681
899,8.99,-1.873618,-2.042162,-1.2818399999999999,-0.11508199999999999,0.027191000000000003,0.0681
900,9.0,-1.6189280000000001,-1.9567849999999998,-1.3880379999999999,-0.11296099999999999,0.066605,0.070236
901,9.01,-1.3115629999999998,-1.590303,-1.518124,-0.082062,0.078323,0.063843
902,9.02,-1.19707,-0.951674,-1.584291,-0.016022,0.078323,0.041473
903,9.03,-1.301711,-0.13153800000000002,-1.453671,0.06601,0.109207,-0.0054020000000000006
904,9.04,-1.600082,0.716291,-1.29623,0.154419,0.132645,-0.058655
905,9.05,-1.787993,1.4090260000000001,-1.185251,0.279053,0.13478099999999998,-0.093811
906,9.06,-1.7337930000000001,1.599832,-1.243737,0.421799,0.152893,-0.09062200000000001
907,9.07,-1.699859,1.524453,-0.875337,0.479324,0.22000100000000003,-0.06718400000000001
908,9.08,-2.092596,1.501088,0.02281600000000006,0.422867,0.37446599999999997,-0.09487899999999999
909,9.09,-2.78295,1.758209,0.885734,0.30249000000000004,0.5917819999999999,-0.166245
910,9.1,-2.651743,2.815557,0.27374899999999996,0.21621700000000002,0.765411,-0.29834
911,9.11,-1.543039,3.5391190000000003,-1.507957,0.297165,0.705765,-0.43789700000000004
912,9.12,0.3527910000000001,3.811039,-3.0451759999999997,0.527267,0.556625,-0.5081939999999999
913,9.13,2.148692,3.603511,-4.5132129999999995,0.74884,0.213608,-0.462387
914,9.14,4.166244,3.504636,-4.966931,0.809555,-0.230606,-0.28875700000000004
915,9.15,5.5278160000000005,3.7025580000000002,-2.933293,0.721146,-0.699326,-0.13961800000000002
916,9.16,4.774312,3.9448309999999998,-0.551613,0.507034,-0.8623049999999999,-0.155594
917,9.17,2.386776,3.773525,0.536611,0.34510799999999997,-0.831421,-0.296219
918,9.18,0.677859,2.822893,2.202195,0.139511,-0.8580469999999999,-0.49221800000000004
919,9.19,-0.7524099999999999,1.455055,4.500516,-0.086319,-0.776031,-0.6371
920,9.2,-1.552281,-0.115969,5.747039,-0.256775,-0.711044,-0.714859
921,9.21,-1.339291,-1.036043,5.534461,-0.360092,-0.758987,-0.665863
922,9.22,-0.496949,-0.75716,4.805951,-0.466629,-0.869766,-0.515656
923,9.23,0.12199400000000002,-0.21268499999999999,4.2627690000000005,-0.48686199999999996,-0.8623049999999999,-0.281296
924,9.24,0.296678,0.42869300000000005,3.296467,-0.395248,-0.7600399999999999,-0.035216999999999984
925,9.25,-0.09786399999999999,0.986024,2.3897009999999996,-0.256775,-0.6130369999999999,0.112854
926,9.26,-0.8662770000000001,0.990957,2.110732,-0.16409300000000002,-0.386139,0.124573
927,9.27,-1.961041,0.455855,2.017372,-0.110825,-0.037796,0.062775
928,9.28,-3.2987940000000004,-0.38877399999999995,1.8726369999999999,-0.107635,0.380859,-0.018173
929,9.29,-4.388038,-1.191195,1.8333080000000002,-0.11296099999999999,0.75795,-0.07251
930,9.3,-4.379992,-1.566203,2.050916,-0.11615,1.057297,-0.040543
931,9.31,-2.3006759999999997,-1.204884,2.228036,-0.110825,1.148911,0.056396
932,9.32,0.29317600000000005,-0.571766,1.916216,-0.096985,1.209625,0.092606
933,9.33,2.108407,-0.07078400000000001,1.579229,-0.117218,1.227737,0.07130399999999999
934,9.34,3.378961,0.10585399999999999,1.126103,-0.13000499999999998,1.172348,0.010590000000000002
935,9.35,3.819672,0.008868000000000001,0.649039,-0.104431,1.071136,-0.079971
936,9.36,3.536428,-0.170155,-0.02145900000000001,-0.071411,1.01149,-0.13855
937,9.37,2.818079,-0.664316,-0.40482199999999996,-0.057555999999999996,0.925201,-0.150269
938,9.38,2.282032,-1.2156129999999998,-0.6622319999999999,-0.054367,0.8058930000000001,-0.12150599999999999
939,9.39,1.838659,-1.696368,-0.856301,-0.06076,0.685516,-0.093811
940,9.4,1.648106,-2.0314259999999997,-1.067184,-0.069275,0.552353,-0.07144199999999999
941,9.41,1.420891,-2.0618849999999997,-1.166657,-0.082062,0.44371000000000005,-0.06930499999999999
942,9.42,0.8964479999999999,-1.9020540000000001,-1.1261940000000001,-0.096985,0.376587,-0.078903
943,9.43,0.36544899999999997,-1.7304830000000002,-1.077799,-0.11296099999999999,0.351028,-0.078903
944,9.44,0.065153,-1.689381,-1.044171,-0.128937,0.34570300000000004,-0.07357799999999999
945,9.45,0.335283,-1.761555,-0.9939020000000001,-0.141724,0.34463499999999997,-0.061859000000000004
946,9.46,1.414293,-1.847894,-1.036884,-0.156631,0.33078,-0.066116
947,9.47,2.093074,-1.8701139999999998,-1.128315,-0.167282,0.286041,-0.09062200000000001
948,9.48,2.512494,-1.871431,-1.399648,-0.196045,0.22212199999999999,-0.134293
949,9.49,2.4718,-1.636889,-1.514728,-0.22480799999999998,0.15715,-0.18223599999999998
950,9.5,2.124843,-1.158103,-1.492932,-0.218414,0.10069299999999999,-0.215256
951,9.51,1.484753,-0.67838,-1.590617,-0.161957,0.060211,-0.229095
952,9.52,0.877159,-0.544034,-1.622663,-0.051177999999999994,0.035706,-0.19927999999999998
953,9.53,0.990183,-0.6691590000000001,-1.587539,0.074524,-0.007965,-0.122574
954,9.54,1.751944,-0.9968629999999999,-1.283914,0.166138,-0.104904,-0.035217
955,9.55,2.962713,-1.130758,-0.9767620000000001,0.189575,-0.251907,0.038284
956,9.56,3.6353449999999996,-0.851866,-0.760572,0.158691,-0.41276599999999997,0.075562
957,9.57,3.617257,-0.39557800000000004,-1.005766,0.143768,-0.49054,0.10006699999999999
958,9.58,2.5412790000000003,0.46538,-1.247552,0.18850699999999998,-0.517166,0.070236
959,9.59,0.314044,1.418074,-1.57998,0.285446,-0.346725,-0.057587
960,9.6,-0.957052,2.134827,-1.869763,0.420746,-0.263626,-0.15240499999999998
961,9.61,-1.425663,2.5565029999999997,-1.512083,0.43884300000000004,-0.328613,-0.10446199999999999
962,9.62,-0.5916710000000001,2.47933,-1.490386,0.371735,-0.361633,0.038284000000000006
963,9.63,1.1153839999999997,1.420258,-2.044813,0.351501,-0.389328,0.204468
964,9.64,1.854914,0.812765,-2.620218,0.36640900000000004,-0.453247,0.361053
965,9.65,0.4425669999999999,1.199378,-2.998116,0.380264,-0.346725,0.513382
966,9.66,-0.6862729999999999,1.8223029999999998,-2.4604169999999996,0.34936500000000004,-0.293457,0.655075
967,9.67,-1.356663,2.098966,-1.522657,0.214081,-0.19545,0.727509
968,9.68,-1.373948,2.48612,-0.5458,0.044708,-0.015426999999999996,0.7051390000000001
969,9.69,-1.996793,2.92278,0.12997800000000007,-0.059691999999999995,0.260483,0.6454770000000001
970,9.7,-2.788529,2.843122,1.1749479999999999,-0.182205,0.47779799999999994,0.684891
971,9.71,-2.3622389999999998,1.7020919999999997,2.814641,-0.352646,0.61734,0.8084720000000001
972,9.72,-1.2655129999999999,-0.13578599999999996,4.088353,-0.502838,0.7281340000000001,0.91925
973,9.73,-0.2487519999999999,-1.791168,4.823087,-0.625351,0.8378450000000001,0.9320370000000001
974,9.74,0.350103,-2.545115,5.175512,-0.7137600000000001,0.8762049999999999,0.884094
975,9.75,1.289777,-2.0217509999999996,4.676273,-0.747849,0.834656,0.810593
976,9.76,2.080868,-0.20207600000000006,3.7478300000000004,-0.714828,0.7941739999999999,0.6369630000000001
977,9.77,2.167202,1.7494830000000001,2.72191,-0.559296,0.7281340000000001,0.399399
978,9.78,1.868771,3.4309629999999998,1.9632310000000002,-0.292984,0.548096,0.208725
979,9.79,1.8436990000000002,3.930595,1.531985,-0.024536,0.271133,0.09793099999999999
980,9.8,2.463056,3.173274,1.6394900000000001,0.146973,-0.03672799999999998,0.029755000000000007
981,9.81,3.198703,1.866392,1.579821,0.20768699999999998,-0.268951,-0.052261
982,9.82,3.018066,0.5406989999999999,1.311616,0.195969,-0.475616,-0.168381
983,9.83,2.0396669999999997,-0.655532,0.9330450000000001,0.150162,-0.703583,-0.239761
984,9.84,1.353666,-1.326267,0.61902,0.054290999999999985,-0.963516,-0.245087
985,9.85,0.7787810000000001,-1.296101,0.44677700000000004,-0.105499,-1.19574,-0.197144
986,9.86,0.33421,-0.890906,0.747862,-0.414429,-1.479095,-0.03949
987,9.87,0.295521,-0.448571,0.983152,-0.555038,-1.601608,0.061722000000000006
988,9.88,0.210621,-0.08449400000000001,1.024532,-0.5976560000000001,-1.6548610000000001,0.107529
989,9.89,-0.03911800000000002,0.08167999999999999,0.891368,-0.557175,-1.65274,0.09581
990,9.9,-0.725947,0.035289999999999995,0.67479,-0.47834799999999994,-1.587753,0.025497
991,9.91,-1.526449,-0.332322,0.515996,-0.386734,-1.465256,-0.06930499999999999
992,9.92,-2.34238,-0.8815069999999999,0.21343600000000001,-0.313232,-1.307587,-0.160919
993,9.93,-2.678575,-1.708072,-0.324918,-0.264221,-1.050858,-0.21205100000000002
994,9.94,-2.298685,-2.0638330000000003,-0.601971,-0.273819,-0.905991,-0.204605
995,9.95,-1.82985,-2.2557720000000003,-0.749432,-0.292984,-0.784546,-0.18223599999999998
996,9.96,-1.44143,-2.344592,-0.738355,-0.316422,-0.6844180000000001,-0.151337
997,9.97,-1.248793,-2.387212,-0.607368,-0.332397,-0.597061,-0.11617999999999999
998,9.98,-1.2997530000000002,-2.382413,-0.5388029999999999,-0.341995,-0.522491,-0.07463099999999999
999,9.99,-1.480306,-2.350374,-0.475131,-0.338791,-0.446854,-0.026702999999999998
1000,10.0,-1.537958,-2.2156279999999997,-0.5639310000000001,-0.327072,-0.375488,0.026566
1001,10.01,-1.6182040000000002,-1.9318529999999998,-0.6956640000000001,-0.310028,-0.305176,0.07130399999999999
1002,10.02,-1.636591,-1.563891,-0.899494,-0.287659,-0.235931,0.101135
1003,10.03,-1.5337690000000002,-1.285826,-1.024733,-0.257828,-0.16456600000000002,0.11604300000000001
1004,10.04,-1.320983,-1.106259,-1.0689620000000002,-0.222687,-0.110229,0.125626
1005,10.05,-0.8683069999999999,-0.68255,-1.1553069999999999,-0.15876800000000002,-0.06762699999999999,0.125626
1006,10.06,-0.526921,-0.243496,-1.3036450000000002,-0.08313,-0.07081599999999999,0.11604300000000001
1007,10.07,-0.46248999999999996,0.235421,-1.361482,0.021271,-0.079346,0.078766
1008,10.08,-0.7693270000000001,0.48058900000000004,-1.339164,0.129929,-0.071884,0.019104000000000003
1009,10.09,-1.2105489999999999,0.43826099999999996,-1.173735,0.198105,-0.069748,-0.048003999999999984
1010,10.1,-1.4984899999999999,0.252121,-1.0698379999999998,0.250305,-0.101715,-0.10553
1011,10.11,-1.449257,0.16428800000000002,-0.983369,0.315277,-0.134735,-0.126831
1012,10.12,-1.475619,0.334007,-0.804898,0.390915,-0.12941,-0.109787
1013,10.13,-1.7685509999999998,0.808018,-0.44225200000000003,0.42926000000000003,-0.037795999999999996,-0.084229
1014,10.14,-2.1443950000000003,1.5181360000000002,0.021991000000000042,0.41435200000000005,0.11346400000000001,-0.10766600000000001
1015,10.15,-2.185524,2.560492,0.013400999999999995,0.39198299999999997,0.262604,-0.169449
1016,10.16,-1.7289720000000002,3.5852199999999996,-0.664514,0.421799,0.34996,-0.26318400000000003
1017,10.17,-0.7410869999999999,3.930479,-1.344234,0.547501,0.296692,-0.368652
1018,10.18,0.8736870000000001,4.0518529999999995,-2.33283,0.773346,0.10281400000000003,-0.421921
1019,10.19,2.8960529999999998,4.280379,-3.160611,1.027939,-0.255112,-0.375046
1020,10.2,4.998598,4.2279029999999995,-3.455753,1.097183,-0.588531,-0.224838
1021,10.21,6.154411,3.9165330000000003,-2.690667,0.8308719999999999,-0.849533,-0.172638
1022,10.22,4.831082,3.539432,-1.258045,0.43884300000000004,-1.026367,-0.30899
1023,10.23,2.148324,2.852859,0.3549780000000001,0.129929,-1.0732270000000002,-0.475174
1024,10.24,0.247375,1.4366450000000002,2.3703060000000002,-0.128937,-1.022095,-0.567856
1025,10.25,-1.017211,-0.19677,4.608414,-0.326004,-1.0189059999999999,-0.5849
1026,10.26,-1.551375,-1.432776,6.29585,-0.379272,-1.1169129999999998,-0.489029
1027,10.27,-1.171518,-2.158602,6.991069,-0.367554,-1.220245,-0.294083
1028,10.28,-0.17975200000000002,-2.601336,7.241669,-0.281265,-1.290543,-0.034164
1029,10.29,0.8399989999999999,-1.8941580000000002,5.996709,-0.071411,-1.3022610000000001,0.206589
1030,10.3,1.246781,-0.402283,3.40921,0.15123,-1.219177,0.351471
1031,10.31,0.769026,1.127311,1.1964709999999998,0.25563,-1.0806879999999999,0.35466
1032,10.32,-0.22536799999999999,1.773232,0.568818,0.24177600000000002,-0.831421,0.243881
1033,10.33,-1.654091,1.30874,0.73748,0.195969,-0.451126,0.108582
1034,10.34,-2.9117509999999998,0.19941600000000004,0.865419,0.12886,-0.039932,0.027634
1035,10.35,-3.302564,-0.729992,0.9203600000000001,0.058548,0.321198,0.030823000000000003
1036,10.36,-2.789313,-1.2287649999999999,0.90822,-0.014954,0.5757899999999999,0.11711099999999999
1037,10.37,-1.353904,-0.9903770000000001,0.753077,-0.095917,0.718536,0.2034
1038,10.38,-0.13503599999999993,-0.554859,0.67524,-0.163025,0.798431,0.233231
1039,10.39,0.519423,-0.235508,0.596902,-0.194977,0.849564,0.233231
1040,10.4,0.835825,-0.356522,0.421541,-0.189651,0.8687440000000001,0.221512
1041,10.41,1.059555,-0.645841,0.13290200000000002,-0.17260699999999998,0.892181,0.220444
1042,10.42,1.266543,-1.0684,-0.12561800000000006,-0.163025,0.9039,0.223633
1043,10.43,1.664808,-1.338984,-0.27884699999999996,-0.151306,0.873001,0.224701
1044,10.44,2.354562,-1.5343209999999998,-0.446201,-0.128937,0.7728729999999999,0.201263
1045,10.45,2.716789,-1.642528,-0.717328,-0.111893,0.661011,0.18528699999999998
1046,10.46,2.7387330000000003,-1.746584,-0.8298629999999999,-0.101242,0.527863,0.158661
1047,10.47,2.4602,-1.8549779999999998,-0.8992879999999999,-0.091644,0.423462,0.136292
1048,10.48,1.9518529999999998,-1.900775,-1.050969,-0.08099400000000001,0.34570300000000004,0.12243699999999999
1049,10.49,1.6453830000000003,-1.904945,-1.259064,-0.069275,0.287109,0.1203
1050,10.5,1.641939,-1.927515,-1.442044,-0.068222,0.234909,0.11711099999999999
1051,10.51,1.879584,-1.949984,-1.532406,-0.069275,0.17419400000000002,0.11071800000000001
1052,10.52,2.284939,-1.884254,-1.520261,-0.077805,0.087906,0.090485
1053,10.53,2.600899,-1.7490990000000002,-1.394441,-0.086319,0.009078999999999995,0.055327999999999995
1054,10.54,2.569131,-1.447051,-1.308232,-0.077805,-0.06762699999999999,0.013779
1055,10.55,2.114099,-1.088126,-1.321178,-0.046906,-0.116623,-0.028839
1056,10.56,1.411638,-0.889136,-1.354615,0.013808999999999998,-0.137924,-0.045883
1057,10.57,1.0501790000000002,-0.67208,-1.3334979999999999,0.10328700000000003,-0.146454,-0.036285000000000005
1058,10.58,0.99216,-0.673613,-1.357879,0.20982399999999998,-0.16030899999999998,-0.004333
1059,10.59,1.495096,-0.952909,-1.309288,0.292908,-0.205048,0.055327999999999995
1060,10.6,1.992028,-1.067723,-1.154741,0.316345,-0.274292,0.09474199999999999
1061,10.61,2.15393,-0.815396,-1.296227,0.306763,-0.305176,0.101135
1062,10.62,1.614853,0.06648100000000001,-1.797459,0.339783,-0.27322399999999997,0.064911
1063,10.63,0.35120299999999993,1.0617530000000002,-2.5422569999999998,0.434586,-0.141129,-0.028839
1064,10.64,-0.374699,1.747944,-3.029035,0.563492,-0.0026399999999999965,-0.127899
1065,10.65,-0.403987,2.3394169999999996,-2.8840790000000003,0.6082310000000001,0.034637,-0.136429
1066,10.66,0.336202,2.4238169999999997,-2.8420669999999997,0.5592189999999999,0.025055,-0.053328999999999994
1067,10.67,1.494966,1.68786,-3.006748,0.487854,-0.033539,0.050003
1068,10.68,2.567352,0.57382,-3.258922,0.444183,-0.12088,0.17996199999999998
1069,10.69,3.0137669999999996,-0.413551,-3.433306,0.41328400000000004,-0.165634,0.287552
1070,10.7,1.5374180000000002,-0.02347899999999997,-3.369874,0.340851,-0.097458,0.34081999999999996
1071,10.71,0.06806600000000007,1.195711,-2.647868,0.2258,0.09109500000000001,0.383423
1072,10.72,-0.685416,2.165384,-1.037101,0.07347100000000001,0.160339,0.41006499999999996
1073,10.73,-0.701098,2.915317,0.574376,-0.043716000000000005,0.194427,0.397278
1074,10.74,-1.338902,3.3797650000000004,1.999542,-0.049042,0.376587,0.365311
1075,10.75,-2.495453,3.2118900000000004,3.030534,-0.084198,0.559814,0.408997
1076,10.76,-3.3449449999999996,2.042725,4.858291,-0.194977,0.698303,0.545349
1077,10.77,-3.0665259999999996,0.3738870000000001,6.316589,-0.253571,0.782455,0.716858
1078,10.78,-1.958086,-0.971642,6.487951,-0.245056,0.756897,0.8425600000000001
1079,10.79,-0.03608500000000015,-1.451262,5.298297,-0.22055100000000002,0.602432,0.897949
1080,10.8,1.8569959999999999,-0.9002549999999999,3.591599,-0.186462,0.426666,0.8798370000000001
1081,10.81,3.3359419999999997,0.521937,2.3490889999999998,-0.121475,0.302017,0.740295
1082,10.82,3.8469519999999995,2.089589,1.610115,-0.0032350000000000018,0.189102,0.47824099999999997
1083,10.83,2.560841,3.089033,1.088462,0.143768,0.079376,0.21830700000000003
1084,10.84,2.065629,3.381849,0.458179,0.226868,-0.071884,0.045731
1085,10.85,1.880624,2.615195,0.48752399999999996,0.195969,-0.257248,-0.066116
1086,10.86,1.907505,1.39897,0.693868,0.148026,-0.408508,-0.13855
1087,10.87,1.806268,-0.07814200000000003,0.348603,0.115005,-0.5448609999999999,-0.204605
1088,10.88,1.383432,-1.1796389999999999,-0.004821000000000006,0.019135,-0.669495,-0.261063
1089,10.89,0.827975,-1.926335,0.196075,-0.154495,-0.797333,-0.296219
1090,10.9,0.545031,-2.152232,0.6560779999999999,-0.34944200000000003,-0.9496610000000001,-0.285553
1091,10.91,0.219689,-1.9010770000000001,1.1043399999999999,-0.518829,-1.105194,-0.217377
1092,10.92,0.061679,-1.424994,1.3143690000000001,-0.623215,-1.227692,-0.106598
1093,10.93,0.024453,-1.0479459999999998,1.362897,-0.634933,-1.310791,-0.0043330000000000035
1094,10.94,0.036683999999999994,-0.5572819999999999,1.116002,-0.571014,-1.367249,0.057449
1095,10.95,-0.34653,-0.23947800000000002,0.816743,-0.46235699999999996,-1.393875,0.048935
1096,10.96,-0.985276,-0.199519,0.569857,-0.339859,-1.336349,-0.011795
1097,10.97,-1.626592,-0.33820100000000003,0.24096399999999998,-0.243988,-1.252197,-0.086349
1098,10.98,-2.2903729999999998,-0.8877030000000001,0.117619,-0.189651,-1.128632,-0.146011
1099,10.99,-2.542991,-1.522557,-0.098227,-0.169418,-0.995468,-0.172638
1100,11.0,-2.437565,-2.112098,-0.265819,-0.17260699999999998,-0.856979,-0.174774
1101,11.01,-2.201378,-2.463263,-0.49187700000000006,-0.193924,-0.729156,-0.154526
1102,11.02,-1.982464,-2.827512,-0.714696,-0.217346,-0.6130369999999999,-0.110855
1103,11.03,-1.618559,-2.9597290000000003,-0.777896,-0.247177,-0.520355,-0.058655
1104,11.04,-1.465554,-2.771878,-0.8072050000000001,-0.283401,-0.45964099999999997,-0.013915999999999994
1105,11.05,-1.509108,-2.4666200000000003,-0.737741,-0.312164,-0.39465300000000003,0.029755
1106,11.06,-1.564287,-2.131009,-0.683649,-0.314285,-0.32009899999999997,0.060654
1107,11.07,-1.757218,-1.883319,-0.596641,-0.287659,-0.24125700000000003,0.083023
1108,11.08,-1.8423900000000002,-1.634465,-0.646622,-0.23652600000000001,-0.151779,0.092606
1109,11.09,-1.554253,-1.370407,-0.9049510000000001,-0.161957,-0.085739,0.08728
1110,11.1,-1.033072,-1.083539,-1.318858,-0.06395,-0.051651,0.063843
1111,11.11,-0.774343,-0.841233,-1.608459,0.040436,-0.033539,0.032958999999999995
1112,11.12,-0.543926,-0.613784,-1.7786060000000001,0.136322,-0.02182,-0.016052000000000004
1113,11.13,-0.45257700000000006,-0.268802,-1.907918,0.21514899999999998,-0.068695,-0.068253
1114,11.14,-0.338843,0.117077,-1.943709,0.273727,-0.158173,-0.11192300000000001
1115,11.15,-0.26251399999999997,0.330791,-1.8824189999999998,0.31101999999999996,-0.216766,-0.13961800000000002
1116,11.16,-0.445637,0.367623,-1.662864,0.322739,-0.20930500000000002,-0.155594
1117,11.17,-1.100254,0.398027,-1.3072190000000001,0.284393,-0.113434,-0.165192
1118,11.18,-1.953654,0.788115,-0.9919450000000001,0.18425,0.044235000000000003,-0.220581
1119,11.19,-2.486992,1.630528,-0.768777,0.100098,0.189102,-0.303665
1120,11.2,-2.262716,2.961312,-1.269496,0.087311,0.314804,-0.400604
1121,11.21,-1.507573,4.309901,-2.003721,0.19278,0.335052,-0.49221800000000004
1122,11.22,0.1804,5.838775,-2.483527,0.397308,0.216797,-0.559326
1123,11.23,1.7737479999999999,6.8114289999999995,-1.966279,0.59758,0.026122999999999997,-0.5827640000000001
1124,11.24,2.9635279999999997,7.278155,-1.0063799999999998,0.626343,-0.004776,-0.606201
1125,11.25,2.826348,7.013781,-0.43750200000000006,0.55603,0.050612999999999984,-0.747879
1126,11.26,1.292527,5.921473000000001,0.141067,0.405823,0.160339,-0.917267
1127,11.27,-0.012753000000000014,4.527285,1.144727,0.17040999999999998,0.22000100000000003,-1.0291139999999999
1128,11.28,-0.538266,2.594323,2.873628,-0.07566799999999999,0.163544,-1.065338
1129,11.29,-0.762822,0.22011099999999995,4.554188,-0.297241,0.09642,-0.9385680000000001
1130,11.3,-0.590817,-1.772411,5.1586050000000006,-0.46769700000000003,-0.05802899999999999,-0.6488189999999999
1131,11.31,0.261394,-3.060254,4.59693,-0.557175,-0.219955,-0.304733
1132,11.32,1.578339,-3.054841,3.2982489999999998,-0.537994,-0.388275,-0.007523000000000002
1133,11.33,1.9819240000000002,-2.082147,2.417675,-0.466629,-0.570435,0.200195
1134,11.34,1.8585349999999998,-0.8414360000000001,1.7707540000000002,-0.397385,-0.614105,0.314178
1135,11.35,1.1792719999999999,-0.495,1.2198309999999999,-0.388855,-0.551254,0.31205700000000003
1136,11.36,-0.27221700000000004,-1.162965,1.0880239999999999,-0.463425,-0.331802,0.205521
1137,11.37,-1.3385280000000002,-1.54526,1.3892719999999998,-0.484741,-0.12088,0.145874
1138,11.38,-2.082403,-1.693652,1.8007540000000002,-0.47088599999999997,0.07193,0.119247
1139,11.39,-2.268786,-1.5326600000000001,2.201214,-0.44105500000000003,0.209351,0.129898
1140,11.4,-1.331405,-1.04003,2.260264,-0.397385,0.28392,0.163986
1141,11.41,0.033069000000000015,-0.238896,1.832798,-0.32495100000000005,0.335052,0.193802
1142,11.42,1.137699,0.287441,1.204221,-0.22374000000000002,0.37233,0.189545
1143,11.43,1.8729959999999999,0.632949,0.319,-0.087387,0.367004,0.173569
1144,11.44,2.154954,0.531694,-0.7006669999999999,0.03511,0.335052,0.162918
1145,11.45,2.238074,-0.13462900000000005,-1.385759,0.10116599999999999,0.286041,0.162918
1146,11.46,1.9906439999999999,-0.925218,-1.504516,0.115005,0.204025,0.16078199999999998
1147,11.47,1.41239,-1.418431,-1.530335,0.089447,0.152893,0.168243
1148,11.48,0.911941,-1.800044,-1.412816,0.047897,0.106018,0.162918
1149,11.49,0.5944689999999999,-2.073054,-1.4305700000000001,-0.010695999999999999,0.11346400000000001,0.15971400000000002
1150,11.5,0.509995,-2.152478,-1.465048,-0.066086,0.128387,0.14161700000000002
1151,11.51,0.47198500000000004,-2.128276,-1.495292,-0.12254300000000001,0.158218,0.130951
1152,11.52,0.657758,-2.129236,-1.524175,-0.185394,0.180588,0.121368
1153,11.53,0.994344,-1.921774,-1.276666,-0.248245,0.18803399999999998,0.113907
1154,11.54,1.712319,-1.659611,-0.8307379999999999,-0.29086300000000004,0.16993699999999998,0.10965
1155,11.55,2.6144700000000003,-1.458895,-0.6267149999999999,-0.310028,0.10281400000000002,0.092606
1156,11.56,3.533666,-1.274779,-0.444553,-0.302582,0.004822,0.055327999999999995
1157,11.57,4.024497,-0.907034,-0.30438000000000004,-0.255707,-0.132599,-0.007523000000000002
1158,11.58,3.7945230000000003,-0.39660500000000004,-0.31628,-0.165161,-0.215698,-0.076767
1159,11.59,2.9683599999999997,-0.12600999999999998,-0.567114,-0.034134,-0.260437,-0.11938499999999999
1160,11.6,2.166794,-0.1971,-0.800891,0.09689299999999999,-0.287064,-0.125778
1161,11.61,1.7723119999999999,-0.46020900000000003,-1.007081,0.21621700000000002,-0.303055,-0.10553
1162,11.62,1.692998,-0.7667649999999999,-1.331813,0.29930100000000004,-0.312637,-0.08316
1163,11.63,1.850566,-0.890468,-1.5365790000000001,0.32913200000000004,-0.30838000000000004,-0.077835
1164,11.64,1.7329880000000002,-0.582905,-1.750016,0.334457,-0.277481,-0.10446199999999999
1165,11.65,1.343857,-0.05579899999999999,-2.1035939999999997,0.36640900000000004,-0.206116,-0.159866
1166,11.66,0.9616979999999999,0.384481,-2.016829,0.41114799999999996,-0.182678,-0.21311999999999998
1167,11.67,0.657977,1.048051,-1.615685,0.405823,-0.22102399999999997,-0.205673
1168,11.68,0.8439110000000001,1.315028,-1.259607,0.356827,-0.310501,-0.100204
1169,11.69,1.489527,0.9652290000000001,-1.101684,0.273727,-0.487335,0.05426
1170,11.7,2.069363,0.338901,-1.5617159999999999,0.20875500000000002,-0.5906680000000001,0.237488
1171,11.71,2.22562,-0.287595,-2.321065,0.213013,-0.569366,0.404724
1172,11.72,1.368314,0.020475000000000017,-2.796204,0.230057,-0.5001220000000001,0.509125
1173,11.73,-0.6645909999999999,1.43174,-2.354314,0.20982399999999998,-0.284943,0.563461
1174,11.74,-1.9898939999999998,3.244662,-0.586462,0.16081199999999998,-0.083603,0.652939
1175,11.75,-2.48001,4.685632,1.13293,0.091568,0.032516,0.713654
1176,11.76,-2.453596,4.988725,2.262816,0.10861199999999999,0.16993699999999998,0.7019350000000001
1177,11.77,-3.059294,4.571662,3.367364,0.10861199999999999,0.312683,0.757339
1178,11.78,-3.2941800000000003,3.7475300000000002,4.6939400000000004,0.03511,0.400024,0.9831700000000001
1179,11.79,-2.011402,1.8193270000000001,4.997051,-0.030930000000000003,0.40535,1.2452239999999999
1180,11.8,0.14443099999999998,-0.11193799999999997,4.690586,-0.0746,0.359543,1.3432309999999998
1181,11.81,1.587299,-1.090284,3.8269349999999998,-0.128937,0.315872,1.293167
1182,11.82,2.660195,-0.809667,3.2881,-0.188583,0.206146,1.135498
1183,11.83,3.509861,0.50283,3.2023189999999997,-0.197113,0.058075,0.8446809999999999
1184,11.84,2.865887,1.620206,2.353934,-0.087387,0.049561,0.470779
1185,11.85,2.376393,2.2075709999999997,0.9196700000000001,0.064941,0.013336,0.177826
1186,11.86,2.117197,1.9676930000000001,0.07390200000000002,0.138443,-0.105972,-0.038422000000000005
1187,11.87,2.161679,0.7820739999999999,0.184274,0.110748,-0.300919,-0.161987
1188,11.88,2.582175,-1.020674,-0.091272,-0.07459999999999999,-0.665237,-0.196075
1189,11.89,2.085568,-1.804201,0.378466,-0.248245,-0.9443360000000001,-0.21311999999999998
1190,11.9,1.2615610000000002,-1.974766,1.199925,-0.41656499999999996,-1.207458,-0.204605
1191,11.91,-0.02214899999999997,-0.965198,1.9293650000000002,-0.601913,-1.524902,-0.11511199999999999
1192,11.92,-0.533082,-0.330361,1.971752,-0.640259,-1.6506040000000002,-0.0021969999999999976
1193,11.93,-0.832527,0.196729,1.579704,-0.622147,-1.7059939999999998,0.101135
1194,11.94,-0.9214450000000001,0.43648400000000004,1.0512860000000002,-0.5646359999999999,-1.695343,0.144806
1195,11.95,-0.9459629999999999,0.621871,0.43718500000000005,-0.47088599999999997,-1.6239780000000001,0.107529
1196,11.96,-1.287068,0.527199,-0.01052800000000001,-0.375015,-1.498276,0.010590000000000002
1197,11.97,-1.938105,0.01652799999999993,0.048393999999999986,-0.288727,-1.315048,-0.108734
1198,11.98,-2.5761220000000002,-0.7106140000000001,0.164493,-0.20137,-1.111588,-0.21205100000000002
1199,11.99,-3.108979,-1.672551,0.193399,-0.153442,-0.896393,-0.289825
1200,12.0,-3.2757009999999998,-2.566558,-0.071198,-0.138519,-0.714233,-0.302612
1201,12.01,-2.882622,-3.050694,-0.465363,-0.15876800000000002,-0.610916,-0.264252
1202,12.02,-2.290048,-3.118442,-0.7219869999999999,-0.19178800000000001,-0.560837,-0.192886
1203,12.03,-1.590176,-2.886709,-0.765465,-0.218414,-0.541672,-0.11192300000000001
1204,12.04,-1.207955,-2.457463,-0.573394,-0.22374000000000002,-0.521423,-0.042679
1205,12.05,-1.193411,-1.9111580000000001,-0.366652,-0.215225,-0.478821,0.014846999999999999
1206,12.06,-1.4774100000000001,-1.329757,-0.301144,-0.189651,-0.399979,0.055327999999999995
1207,12.07,-1.70272,-1.124644,-0.330567,-0.147049,-0.303055,0.084091
1208,12.08,-1.8548919999999998,-1.153089,-0.359125,-0.09378099999999999,-0.189056,0.108582
1209,12.09,-1.5899969999999999,-1.275984,-0.43039499999999997,-0.04158,-0.079346,0.124573
1210,12.1,-1.201406,-1.415482,-0.684003,0.010620000000000001,-0.001571999999999997,0.11071800000000001
1211,12.11,-0.8717450000000001,-1.3935899999999999,-0.9481069999999999,0.07559199999999999,0.051682000000000006,0.078766
1212,12.12,-0.80192,-1.175809,-1.140851,0.159744,0.084702,0.032958999999999995
1213,12.13,-0.851734,-0.8727459999999999,-1.24829,0.25563,0.10388199999999999,-0.0064540000000000005
1214,12.14,-1.031413,-0.44665200000000005,-1.41634,0.331253,0.106018,-0.056534
1215,12.15,-1.216076,-0.007522000000000002,-1.565231,0.384521,0.093231,-0.103394
1216,12.16,-1.2666520000000001,0.389498,-1.662293,0.421799,0.045288,-0.12043800000000002
1217,12.17,-1.145567,0.604175,-1.627122,0.446304,-0.0005189999999999986,-0.086349
1218,12.18,-1.248709,0.585203,-1.498789,0.435654,0.048492000000000014,-0.036285000000000005
1219,12.19,-1.688579,0.939795,-0.8541049999999999,0.34936500000000004,0.175262,-0.051208000000000004
1220,12.2,-2.6309270000000002,1.649346,-0.31167,0.28118899999999997,0.34570300000000004,-0.128967
1221,12.21,-3.0969130000000002,2.487874,-0.35196700000000003,0.248169,0.548096,-0.220581
1222,12.22,-2.542652,3.436462,-1.125175,0.28118899999999997,0.664215,-0.31858800000000004
1223,12.23,-1.282111,3.9007400000000003,-2.243277,0.40475500000000003,0.652496,-0.39421100000000003
1224,12.24,0.543401,4.5100739999999995,-3.366222,0.584793,0.485245,-0.409134
1225,12.25,2.610278,5.145892,-3.746779,0.71582,0.151825,-0.366516
1226,12.26,4.574658,5.68325,-2.215252,0.614624,-0.119827,-0.332428
1227,12.27,5.13969,5.699611,-0.21528900000000006,0.38559,-0.138992,-0.49221800000000004
1228,12.28,3.217678,4.562374,1.828998,0.182114,-0.0026400000000000035,-0.754272
1229,12.29,0.9958379999999999,2.649293,2.923499,0.038314999999999995,0.140106,-0.8885040000000001
1230,12.3,-0.8012670000000001,0.2408600000000001,3.391461,-0.08845499999999999,0.10495,-0.89595
1231,12.31,-1.3312700000000002,-1.7444849999999998,3.4712370000000004,-0.259964,-0.097458,-0.740433
1232,12.32,-0.8943049999999999,-2.770555,3.628733,-0.458099,-0.32222,-0.519913
1233,12.33,0.13366399999999995,-2.636184,4.098337,-0.6147,-0.47987399999999997,-0.283432
1234,12.34,1.063656,-1.290391,4.266465,-0.630676,-0.597061,-0.04693600000000002
1235,12.35,1.9376520000000002,0.4318699999999999,3.5912839999999995,-0.5145569999999999,-0.5789489999999999,0.144806
1236,12.36,1.9382849999999998,1.818919,2.735407,-0.339859,-0.502258,0.220444
1237,12.37,1.3515620000000002,2.241378,2.17793,-0.182205,-0.312637,0.183151
1238,12.38,0.2536080000000001,1.685409,1.549519,-0.053299,-0.08360300000000001,0.08514400000000001
1239,12.39,-1.1632849999999997,0.35401400000000005,1.001715,0.034042,0.16993699999999998,-0.019241
1240,12.4,-2.270785,-0.921428,0.6925859999999999,0.083054,0.431992,-0.08316
1241,12.41,-2.920782,-1.9725099999999998,0.708066,0.10435499999999999,0.631195,-0.08316
1242,12.42,-2.893918,-2.783267,0.781193,0.093704,0.7472989999999999,-0.011795
1243,12.43,-1.832714,-3.0013080000000003,0.791142,0.047897,0.751572,0.11285399999999997
1244,12.44,0.504259,-2.23591,0.618544,-0.061829000000000016,0.703629,0.23960900000000002
1245,12.45,1.647615,-1.560378,0.692998,-0.12468,0.661011,0.26197800000000004
1246,12.46,2.554329,-0.8214169999999998,0.7343029999999999,-0.142792,0.606689,0.223633
1247,12.47,2.8419849999999998,-0.250093,0.7292310000000001,-0.120407,0.571533,0.157593
1248,12.48,2.6530080000000003,-0.051139,0.4778,-0.084198,0.557693,0.09474199999999999
1249,12.49,2.307162,-0.264439,0.249757,-0.06289700000000001,0.519333,0.062775
1250,12.5,2.050509,-0.808383,0.02255500000000002,-0.05011,0.46394300000000005,0.05851699999999999
1251,12.51,1.979097,-1.180021,-0.08380499999999999,-0.05223099999999999,0.370193,0.065979
1252,12.52,1.9784580000000003,-1.3535840000000001,-0.17073,-0.05223099999999999,0.28071599999999997,0.079819
1253,12.53,1.9391639999999999,-1.347412,-0.318459,-0.05011,0.18270899999999998,0.084091
1254,12.54,1.6873779999999998,-1.345467,-0.489795,-0.053299,0.098557,0.079819
1255,12.55,1.406616,-1.339646,-0.605587,-0.071411,0.013336,0.078766
1256,12.56,1.284662,-1.411314,-0.747292,-0.09378099999999999,-0.059097000000000004,0.078766
1257,12.57,1.539777,-1.5808879999999998,-0.8475090000000001,-0.13000499999999998,-0.133667,0.078766
1258,12.58,1.913893,-1.681582,-0.98666,-0.17793299999999998,-0.219955,0.07344099999999999
1259,12.59,2.233152,-1.6586150000000002,-1.035048,-0.218414,-0.309433,0.0681
1260,12.6,2.390155,-1.305398,-0.9036219999999999,-0.251434,-0.359512,0.053191999999999996
1261,12.61,2.049583,-0.757483,-0.828643,-0.254639,-0.364838,0.021240000000000002
1262,12.62,1.4221709999999999,-0.250316,-0.88776,-0.203506,-0.315826,-0.020309
1263,12.63,0.873238,-0.085314,-0.9982190000000001,-0.11296099999999999,-0.23806799999999997,-0.046936
1264,12.64,0.896273,-0.446345,-0.691241,0.036179,-0.154968,-0.057587
1265,12.65,1.36144,-0.849359,-0.578612,0.100098,-0.131546,-0.052261
1266,12.66,1.684455,-0.9361440000000001,-0.779674,0.1427,-0.130478,-0.043747
1267,12.67,1.467092,-0.647296,-1.221649,0.189575,-0.101715,-0.060791
1268,12.68,0.668158,-0.277296,-1.781993,0.268402,-0.025009000000000003,-0.128967
1269,12.69,0.04544700000000002,-0.10350899999999999,-2.038859,0.367477,0.0112,-0.20993
1270,12.7,-0.233156,0.455687,-2.078392,0.390915,-0.065491,-0.208862
1271,12.71,0.364321,0.927277,-1.882237,0.31953400000000004,-0.203979,-0.10766600000000001
1272,12.72,1.188032,0.954432,-1.733569,0.204498,-0.37442,0.04679899999999998
1273,12.73,1.870161,0.8169529999999999,-1.792359,0.120331,-0.496918,0.234283
1274,12.74,0.918191,1.345165,-1.8509970000000002,0.100098,-0.450058,0.405792
1275,12.75,-0.03788400000000003,2.370886,-1.712118,0.13311800000000001,-0.33075,0.5773010000000001
1276,12.76,-1.303384,3.7297919999999998,-1.217485,0.130981,-0.192261,0.710464
1277,12.77,-2.511477,5.18891,-0.203178,0.047897,0.025054999999999997,0.747742
1278,12.78,-3.186098,5.9081980000000005,1.080041,-0.019211000000000002,0.225327,0.709396
1279,12.79,-3.6091660000000005,5.5024690000000005,2.196018,-0.10656700000000001,0.331848,0.7498779999999999
1280,12.8,-2.895244,3.8635370000000004,3.354085,-0.232269,0.402161,0.930969
1281,12.81,-0.6154810000000001,1.480404,4.996214,-0.306839,0.460754,1.073715
1282,12.82,1.143785,-0.518329,4.9187080000000005,-0.35051,0.6226649999999999,1.073715
1283,12.83,1.542411,-1.707541,4.38657,-0.41868599999999995,0.741974,0.9480129999999999
1284,12.84,1.7178950000000002,-1.7142490000000001,3.4529080000000003,-0.482605,0.7877810000000001,0.731766
1285,12.85,1.836185,-0.694167,2.367799,-0.518829,0.767548,0.43029799999999996
1286,12.86,1.278968,0.8221639999999999,1.270989,-0.479401,0.657822,0.10965
1287,12.87,0.657909,2.279631,0.6512060000000001,-0.347321,0.502289,-0.091675
1288,12.88,0.815661,2.8533049999999998,0.46527700000000005,-0.193924,0.307343,-0.153473
1289,12.89,1.843043,2.0148099999999998,0.902349,-0.075668,0.088974,-0.163055
1290,12.9,2.933202,0.5759920000000001,1.058949,0.003159000000000002,-0.105972,-0.175842
1291,12.91,3.198598,-0.831393,1.052175,0.02446,-0.272156,-0.215256
1292,12.92,2.42942,-1.976144,0.818051,0.005295000000000001,-0.42662,-0.281296
1293,12.93,1.324946,-2.653684,0.598324,-0.051177999999999994,-0.574692,-0.355865
1294,12.94,0.303469,-2.7063610000000002,0.628985,-0.15983599999999998,-0.734482,-0.430435
1295,12.95,-0.980805,-2.3044740000000004,0.657251,-0.302582,-0.823959,-0.44641099999999995
1296,12.96,-1.679532,-1.822128,0.762215,-0.448517,-0.8772280000000001,-0.366516
1297,12.97,-1.669957,-1.0870549999999999,0.853934,-0.546524,-0.9049219999999999,-0.25041199999999997
1298,12.98,-1.458028,-0.41352700000000003,0.951318,-0.5646359999999999,-0.910248,-0.147079
1299,12.99,-1.3382610000000001,0.06998200000000003,1.0280610000000001,-0.49964899999999995,-0.901733,-0.089554
1300,13.0,-1.486473,0.237213,0.968341,-0.377136,-0.864441,-0.06504800000000001
1301,13.01,-1.7726439999999999,0.10218200000000001,0.810578,-0.243988,-0.7877350000000001,-0.07144199999999999
1302,13.02,-2.2284479999999998,-0.2656830000000001,0.556822,-0.131073,-0.66098,-0.101273
1303,13.03,-2.493547,-0.7752939999999999,0.260077,-0.043716000000000005,-0.49479700000000004,-0.132156
1304,13.04,-2.419261,-1.148939,-0.12238300000000005,0.024460000000000003,-0.335007,-0.155594
1305,13.05,-1.9863119999999999,-1.470747,-0.568188,0.06813,-0.210373,-0.164124
1306,13.06,-1.343891,-1.7583959999999998,-0.893809,0.087311,-0.130478,-0.158798
1307,13.07,-0.7874180000000001,-1.917919,-1.026265,0.088379,-0.082535,-0.13855
1308,13.08,-0.5202859999999999,-2.0195830000000004,-1.067858,0.07772799999999999,-0.062301999999999996,-0.117249
1309,13.09,-0.497026,-2.078739,-0.987763,0.055359000000000005,-0.052703999999999994,-0.089554
1310,13.1,-0.8246760000000001,-2.041065,-0.894059,0.031921,-0.060164999999999996,-0.060791
1311,13.11,-1.220475,-1.979856,-0.8736290000000001,0.004227000000000001,-0.059097000000000004,-0.033096
1312,13.12,-1.499898,-1.8705990000000001,-0.913432,-0.016022,-0.053772,-0.003264999999999999
1313,13.13,-1.507012,-1.682654,-0.937149,-0.01709,-0.053772,0.030823000000000003
1314,13.14,-1.320894,-1.33099,-1.032159,0.012740999999999999,-0.06762699999999999,0.059586
1315,13.15,-0.933834,-0.9390229999999999,-1.177024,0.084122,-0.083603,0.081955
1316,13.16,-0.776533,-0.590707,-1.242673,0.189575,-0.085739,0.075562
1317,13.17,-0.833471,-0.319751,-1.187366,0.301437,-0.069748,0.042542
1318,13.18,-0.939153,-0.07563699999999997,-1.253378,0.389847,-0.06337000000000001,-0.016052
1319,13.19,-1.0292709999999998,0.087061,-1.4406,0.467606,-0.08467100000000001,-0.07357799999999999
1320,13.2,-1.048975,0.157038,-1.442955,0.543243,-0.127274,-0.081024
1321,13.21,-1.217482,0.107698,-1.23345,0.5933069999999999,-0.131546,-0.032027999999999994
1322,13.22,-1.577272,0.174018,-0.622859,0.537918,0.0016169999999999937,-0.007523
1323,13.23,-2.425185,0.680914,-0.05196800000000002,0.379196,0.18270899999999998,-0.06504800000000001
1324,13.24,-3.3381800000000004,1.75088,0.397338,0.200226,0.384048,-0.15773
1325,13.25,-3.38965,3.112341,-0.24527,0.134186,0.559814,-0.286621
1326,13.26,-2.0092779999999997,3.855021,-1.369225,0.289719,0.570465,-0.414459
1327,13.27,-0.131347,3.9762800000000005,-2.324407,0.543243,0.5395810000000001,-0.489029
1328,13.28,1.7546580000000003,3.7132680000000002,-3.5091419999999998,0.7903899999999999,0.25088499999999997,-0.489029
1329,13.29,3.508543,3.459332,-4.384549,0.9128879999999999,-0.209305,-0.370789
1330,13.3,5.493837999999999,3.8931769999999997,-3.7963419999999997,0.821274,-0.655655,-0.205673
1331,13.31,5.746924,4.1578550000000005,-1.554763,0.565613,-0.869766,-0.21418800000000002
1332,13.32,3.366097,4.110359,0.287377,0.322739,-0.8069149999999999,-0.419785
1333,13.33,0.7865410000000002,3.203404,2.502599,0.162949,-0.736603,-0.644562
1334,13.34,-1.441258,1.413841,4.865806,0.034042,-0.555511,-0.781967
1335,13.35,-3.0805029999999998,-0.554431,6.072275,-0.056503,-0.456451,-0.783035
1336,13.36,-2.739357,-1.61748,5.791393,-0.181137,-0.5107729999999999,-0.675446
1337,13.37,-0.875366,-1.372528,5.1502,-0.291916,-0.675888,-0.533768
1338,13.38,0.41603100000000004,-0.497233,4.53406,-0.335602,-0.741943,-0.347351
1339,13.39,1.264063,0.885482,3.8628730000000004,-0.268478,-0.767502,-0.102341
1340,13.4,1.9217259999999998,2.164499,3.132428,-0.08631899999999999,-0.7536470000000001,0.092606
1341,13.41,1.9422580000000003,2.653813,2.237294,0.087311,-0.6386109999999999,0.151199
1342,13.42,0.882288,2.196338,1.600427,0.178925,-0.43833900000000003,0.111786
1343,13.43,-0.559634,0.937934,1.170876,0.231125,-0.206116,0.052124000000000004
1344,13.44,-1.888637,-0.5916949999999999,0.633884,0.259888,0.028243999999999988,0.020172
1345,13.45,-2.7428470000000003,-2.023079,0.33142,0.24496500000000002,0.272202,0.038284
1346,13.46,-2.898062,-2.987788,0.249036,0.190643,0.412811,0.112854
1347,13.47,-2.083641,-3.5951989999999996,0.351587,0.11181600000000001,0.439438,0.20979299999999998
1348,13.48,-0.642953,-3.690189,0.436017,0.008483999999999998,0.42771899999999996,0.28009
1349,13.49,0.45335699999999995,-3.206286,0.47322600000000004,-0.107635,0.436249,0.279022
1350,13.5,1.092142,-2.423004,0.357459,-0.203506,0.44583100000000003,0.222565
1351,13.51,1.11061,-1.792804,0.179194,-0.243988,0.483124,0.153336
1352,13.52,0.96873,-1.25968,0.048208,-0.235458,0.521469,0.112854
1353,13.53,0.9768209999999999,-0.792995,0.042841999999999984,-0.206696,0.5342560000000001,0.09153700000000001
1354,13.54,1.223845,-0.502916,0.15176099999999998,-0.173676,0.5395810000000001,0.089417
1355,13.55,1.67288,-0.416083,0.08294,-0.150238,0.521469,0.07344099999999999
1356,13.56,2.021366,-0.361948,0.171524,-0.138519,0.46608,0.048935
1357,13.57,2.161634,-0.50544,0.096013,-0.125748,0.397903,0.028687
1358,13.58,2.248376,-0.5962649999999999,-0.106804,-0.110825,0.31694,0.020172
1359,13.59,2.244112,-0.832672,-0.494205,-0.082062,0.213608,0.020172
1360,13.6,2.3508880000000003,-1.009501,-0.955203,-0.069275,0.10495,0.036148
1361,13.61,2.390518,-1.149969,-1.141627,-0.069275,-0.019683999999999997,0.051056
1362,13.62,2.357541,-1.262099,-1.241862,-0.075668,-0.142197,0.06704700000000001
1363,13.63,2.232952,-1.492063,-1.25128,-0.104431,-0.230606,0.077698
1364,13.64,1.6727310000000002,-1.73345,-1.1690530000000001,-0.148117,-0.301987,0.080887
1365,13.65,1.268722,-1.73175,-1.237166,-0.161957,-0.309433,0.064911
1366,13.66,0.8908870000000001,-1.467133,-1.5205899999999999,-0.154495,-0.29026799999999997,0.041473
1367,13.67,0.6977479999999999,-1.0154020000000001,-1.7376759999999998,-0.099106,-0.255112,0.020172
1368,13.68,0.72197,-0.644874,-1.788941,-0.003234999999999995,-0.215698,0.016968
1369,13.69,1.083573,-0.449612,-1.699758,0.11714200000000001,-0.184799,0.034012
1370,13.7,1.845291,-0.470728,-1.505018,0.20875500000000002,-0.21463000000000002,0.07130399999999999
1371,13.71,2.5571040000000003,-0.604018,-1.19179,0.240707,-0.275345,0.11604300000000001
1372,13.72,2.669364,-0.399285,-1.137866,0.23751799999999998,-0.27322399999999997,0.124573
1373,13.73,1.771879,-0.01500499999999999,-1.437026,0.263077,-0.17307999999999998,0.042542
1374,13.74,0.30098099999999994,0.126683,-1.679984,0.31953400000000004,-0.06655900000000001,-0.11511199999999999
1375,13.75,-0.750916,0.6145609999999999,-1.554362,0.332321,-0.045258,-0.19500699999999999
1376,13.76,-0.84785,1.143823,-0.8575379999999999,0.228989,-0.105972,-0.133224
1377,13.77,-0.041471000000000036,1.6111030000000002,-0.8679459999999999,0.09902999999999999,-0.21249400000000002,0.018036
1378,13.78,1.067836,1.678077,-1.530189,0.063873,-0.294525,0.224701
1379,13.79,1.925818,1.560086,-2.461798,0.164017,-0.346725,0.413254
1380,13.8,0.898941,2.3116209999999997,-3.048459,0.31953400000000004,-0.323288,0.54747
1381,13.81,-0.4261309999999999,3.027287,-2.812466,0.403702,-0.16456600000000002,0.628433
1382,13.82,-1.380961,3.4775980000000004,-1.6003969999999998,0.368546,-0.014358999999999997,0.679565
1383,13.83,-1.827559,3.51292,-0.9036139999999999,0.30249000000000004,0.13903800000000002,0.661453
1384,13.84,-2.334496,3.5114300000000003,-0.477966,0.266281,0.363815,0.570908
1385,13.85,-3.229755,3.485954,0.8890020000000001,0.187454,0.515076,0.5900880000000001
1386,13.86,-3.204282,2.906052,2.773672,0.029785000000000006,0.604553,0.788223
1387,13.87,-1.211447,1.386607,4.023427,-0.12361099999999998,0.689774,0.987427
1388,13.88,0.17037399999999994,-0.281358,4.734926000000001,-0.269547,0.7813869999999999,1.0204469999999999
1389,13.89,0.9229950000000001,-1.39534,4.926824,-0.406967,0.846375,0.934174
1390,13.9,1.155046,-1.47079,4.6870449999999995,-0.469818,0.845306,0.790359
1391,13.91,1.163073,-0.576842,4.381364,-0.445312,0.871933,0.582626
1392,13.92,0.686697,0.569979,3.2344060000000003,-0.304703,0.914551,0.313126
1393,13.93,0.13726800000000006,1.457827,1.7056330000000002,-0.077805,0.882599,0.078766
1394,13.94,0.08623600000000001,1.849,0.64454,0.110748,0.7494350000000001,-0.055465999999999994
1395,13.95,0.362508,1.2941770000000001,0.382777,0.186386,0.554489,-0.117249
