,ts,ax,ay,az,wx,wy,wz
0,0.0,0.27413058853891875,0.25904104376442977,6.614916577004244,-0.017881360741301946,0.010582021835726587,0.010582021835726587
1,0.01,0.3008786063386413,-0.5039073522887471,1.6155748501717673,-0.062071500365531426,0.015535460170828476,0.015535460170828476
2,0.02,-0.6655800121625561,0.2857013489382111,-1.5538552900606533,-0.07305620373329651,0.02226303041723478,0.02226303041723478
3,0.03,-0.42487226458074817,0.9015861098745734,-3.64851213462669,-0.03700699106701359,0.031276466485262576,0.031276466485262576
4,0.04,0.3821839295928727,-0.03569524386783779,-4.541082484290202,0.007239844976045526,0.03794163910930581,0.03794163910930581
5,0.05,0.030606681219967513,-1.3115607194651726,-4.260117027154335,0.00672336403990053,0.03661064764519836,0.03661064764519836
6,0.06,-0.595680683156303,-0.9282534598045662,-2.990617154941242,-0.03199472863991912,0.033324598170861364,0.033324598170861364
7,0.07,-0.17325770971446025,0.6988326678581546,-1.5831691679245483,-0.053513522296222096,0.03226477674348716,0.03226477674348716
8,0.08,0.6616244351411544,1.1840742942475362,-0.6749856169759312,-0.032815400358297,0.035595564899973064,0.035595564899973064
9,0.09,0.6938667950278119,-0.12349778998258454,0.1374836510680384,-0.0007818203429540116,0.044418976566062085,0.044418976566062085
10,0.1,-0.014780254493944218,-1.411729524872618,0.9363734676159763,-0.0002641407426520262,0.04966873587009517,0.04966873587009517
11,0.11,-0.4050747431857592,-0.9480756414656739,1.7533143740954509,-0.027582129447646826,0.04892559683289988,0.04892559683289988
12,0.12,-0.14235366750457848,0.7740168141226392,2.3829850211399615,-0.04099551507790477,0.04796142226283882,0.04796142226283882
13,0.13,0.1814482618272836,1.6130930875575782,2.6384477179961836,-0.013434716946989795,0.051741625238560685,0.051741625238560685
14,0.14,0.16063101250315148,0.6462882235265116,2.93284896565672,0.024740500278863053,0.05247070143650311,0.05247070143650311
15,0.15,0.06784993527997858,-0.7592737098574216,2.903053593647,0.02191117737426853,0.04910357992400076,0.04910357992400076
16,0.16,0.23818995445424412,-0.8428073962670519,2.804039871735724,-0.02107566617513207,0.049709811306550535,0.049709811306550535
17,0.17,0.21021228210432708,0.4853811136937744,2.583010420162308,-0.050757722483161634,0.052316828087267335,0.052316828087267335
18,0.18,-0.25758316183642227,1.3751558596459623,1.869898230896659,-0.0297448027904688,0.055636478566495166,0.055636478566495166
19,0.19,-0.3457292136979816,0.38912659980991193,1.080741762008713,0.011501374537503745,0.05895014946835221,0.05895014946835221
20,0.2,-0.22063475604159025,-1.2891660983630582,0.4281041774229033,0.01708360542260651,0.05520945169016293,0.05520945169016293
21,0.21,-0.25207948720382345,-1.4153376847898582,0.2042976417162229,-0.02096265469393576,0.05075640955009638,0.05075640955009638
22,0.22,-0.09439731171053418,0.3099601533334393,0.40455412255101664,-0.05016728544415447,0.0472942441283446,0.0472942441283446
23,0.23,0.2832967022424507,1.65995932668491,-0.003957181057469228,-0.024688395859910152,0.044948766897893865,0.044948766897893865
24,0.24,0.4109408800580134,0.7772616395543097,-0.7594253788869516,0.02672373297467864,0.04997974688042157,0.04997974688042157
25,0.25,-0.14819288898227165,-1.2946891121979434,-1.4989834330742347,0.03433046004370055,0.05215100369418397,0.05215100369418397
26,0.26,-0.6017645803758602,-1.9281556324562166,-2.0084558792582214,-0.01366492970475017,0.050299448513228186,0.050299448513228186
27,0.27,-0.03452381326313134,-0.18874183828258273,-2.1198757645813777,-0.04728439912318657,0.047753232913568935,0.047753232913568935
28,0.28,0.5172343246312016,1.7771178770814309,-2.1827624699665806,-0.017453321228867648,0.04481345949061857,0.04481345949061857
29,0.29,0.18550519505303467,1.6614649983902827,-2.2591785139554013,0.0460000772856259,0.04437253949926739,0.04437253949926739
30,0.3,-0.30906056596853476,-0.2875500476789496,-2.445508300120752,0.07407688085183485,0.04393044597706292,0.04393044597706292
31,0.31,-0.39845675421810517,-1.6645641452059272,-2.535226083707745,0.04363875904539595,0.043639019742058006,0.043639019742058006
32,0.32,-0.11773422027577657,-0.9287591879172195,-2.195825387403625,-0.008811463803527791,0.04136504563427901,0.04136504563427901
33,0.33,0.04010546642905077,0.7219563688087208,-1.4773381924321107,-0.01938641852717029,0.032505302026344475,0.032505302026344475
34,0.34,0.04324310229240051,1.2093877629607732,-1.041430631685893,0.024016990455883985,0.029735443815575656,0.029735443815575656
35,0.35,0.16220526228457324,0.03147060607613816,-0.8588456894636077,0.07441556603972843,0.03257583914257355,0.03257583914257355
36,0.36,0.21579137069619825,-1.171477553011418,-1.0268519592152034,0.07931703452143228,0.033086560034770625,0.033086560034770625
37,0.37,0.231297759378767,-0.8297085921385782,-1.131490363376916,0.046373543261502066,0.030286788557446993,0.030286788557446993
38,0.38,0.11720241898735786,0.27880386276480884,-0.8373096290111448,0.017471528105195075,0.026493703766843013,0.026493703766843013
39,0.39,-0.19858759793918987,0.6316845890941077,-0.44576751753087307,0.016552035724409102,0.023364123056358203,0.023364123056358203
40,0.4,-0.35796738809729123,0.02873477484412515,0.31959703185028815,0.04547684477751729,0.01752810348398037,0.01752810348398037
41,0.41,-0.20373204570824568,-0.4509423298376391,1.0988514041210804,0.07596371558327916,0.010599045477616502,0.010599045477616502
42,0.42,0.41158274054906735,-0.07686625579266837,1.3355026526357587,0.08148057847158101,0.0067420091223042745,0.0067420091223042745
43,0.43,0.8530404012829569,0.41400280205924167,1.2563144006396862,0.06485343957927521,0.0062993341903596145,0.0062993341903596145
44,0.44,0.2096489953892819,0.16900934179748545,1.0981423767100098,0.044127236428792516,0.003221833945194348,0.003221833945194348
45,0.45,-0.6850397922446301,-0.5076362414827298,1.184705738630211,0.025973693271143742,-0.002991200735770943,-0.002991200735770943
46,0.46,-0.5033104916050298,-0.6596501034616561,1.4628795440248021,0.02315536041092113,-0.0095694005072178,-0.0095694005072178
47,0.47,0.39701629676326783,-0.08378162965500235,1.6347989407981818,0.04641303352326535,-0.017791080519543364,-0.017791080519543364
48,0.48,0.49822552457663283,0.42965247694513464,1.921840577071929,0.07952926130014082,-0.02309939827945193,-0.02309939827945193
49,0.49,-0.19734215086888018,0.3550503250712657,2.101631613842894,0.09006822613943458,-0.027033527000252352,-0.027033527000252352
50,0.5,-0.21399196618369462,0.05805700322883775,1.9071826775528888,0.0664026963736817,-0.03063079827374215,-0.03063079827374215
51,0.51,0.39296877610302106,0.06273594387559767,1.459420709570968,0.02857920772876109,-0.031776855047646935,-0.031776855047646935
52,0.52,0.09070717670869807,0.3142065753980179,1.132124577319589,0.0045924911647159715,-0.035931973620154316,-0.035931973620154316
53,0.53,-0.9558275477164941,0.3479118501724019,1.0730587025586757,0.012081241886485,-0.04428190165259099,-0.04428190165259099
54,0.54,-0.7904786620159256,0.033277834534830616,1.0654937328517957,0.03702492035249941,-0.05480744319780581,-0.05480744319780581
55,0.55,0.5670363193237717,-0.3728473897459622,0.9857226116232595,0.04340890255708765,-0.06449507327401277,-0.06449507327401277
56,0.56,1.1299692663880165,-0.35074546315261773,0.9817212456829338,0.01850666142663076,-0.07295009020097526,-0.07295009020097526
57,0.57,0.23252018488150772,0.3705042270976578,1.0574040479393056,-0.014434855142320475,-0.0761527142114014,-0.0761527142114014
58,0.58,-0.50957741539794,0.8562540400035612,0.5291620589570378,-0.02415816580457453,-0.0759684872442773,-0.0759684872442773
59,0.59,-0.1662583145607805,0.23565576797522866,-0.34614524449100054,-0.01561374365682548,-0.07865047704441651,-0.07865047704441651
60,0.6,0.015770498411597278,-0.5630693355600812,-0.7095884522156386,-0.010524546662137977,-0.0880083377666882,-0.0880083377666882
61,0.61,-0.25431645374600703,-0.3629751301618057,-0.5290498686333251,-0.014891913520937924,-0.1000802623354351,-0.1000802623354351
62,0.62,-0.16332022242599367,0.6106057699695182,0.19868572789830663,-0.025382714594227026,-0.10585274480134868,-0.10585274480134868
63,0.63,0.19913630503851487,1.162371285427862,0.24043856776560157,-0.024095663794845932,-0.1035687681231943,-0.1035687681231943
64,0.64,0.2662860940543067,0.5531062246946402,-0.420278089934231,-0.017993875307883867,-0.09612606722163736,-0.09612606722163736
65,0.65,-0.16965929897430174,-0.5638637789617165,-1.236101142927649,-0.02942372538267985,-0.09106959050198857,-0.09106959050198857
66,0.66,-0.41405780757175825,-1.0211437444071085,-2.033359190468772,-0.05354156795283303,-0.09179354835092028,-0.09179354835092028
67,0.67,-0.1767345283583604,-0.35862955804045576,-1.8775012747834325,-0.06215971413013888,-0.09545396441625492,-0.09545396441625492
68,0.68,-0.1286851877255628,0.64440453345904,-1.3310130912198803,-0.0402904568431795,-0.09962136214342966,-0.09962136214342966
69,0.69,-0.27336959471712585,0.9181343372949922,-0.9081288906750657,-0.00873605283852618,-0.09539729745830007,-0.09539729745830007
70,0.7,-0.08211611117598791,0.35333595242728766,-0.7221998853675927,0.0012285978322855455,-0.08682695586458071,-0.08682695586458071
71,0.71,0.34626246255376447,-0.3207412966577783,-1.2771063518140833,-0.021122112054676016,-0.08104618644937266,-0.08104618644937266
72,0.72,0.36716904244370463,-0.5246530208809251,-1.7156355899005722,-0.05401232576697695,-0.07176477506326083,-0.07176477506326083
73,0.73,-0.28517227331972533,-0.4620759113082463,-1.543981647831192,-0.06594726398906459,-0.0685282037814228,-0.0685282037814228
74,0.74,-0.7039452184191508,-0.4202612199262338,-1.1306996510113845,-0.04906398842479292,-0.07065615919903051,-0.07065615919903051
75,0.75,0.10692451111588419,-0.3938571801016738,-0.6564164942052761,-0.0225063454911133,-0.06949172874475304,-0.06949172874475304
76,0.76,0.966657975917278,-0.11694320187367316,-0.3600607324313083,-0.006985131498405921,-0.06368967090361792,-0.06368967090361792
77,0.77,0.41334023184020685,0.08816558747996073,-0.3732475722459967,-0.01418478081622408,-0.05180707762881396,-0.05180707762881396
78,0.78,-0.22700482268873357,-0.4062185597344439,-0.5579742305120289,-0.03882430377789787,-0.043335265105836684,-0.043335265105836684
79,0.79,0.20813861654817806,-1.1512839399377626,-0.7142985892315583,-0.06460153106466593,-0.040689727799068966,-0.040689727799068966
80,0.8,0.7202861336957469,-1.0946808701900024,-0.5957101491451169,-0.0702435740328382,-0.03677201597152107,-0.03677201597152107
81,0.81,0.2617895419300471,-0.04509485732929541,0.4017655813446715,-0.04582203291633488,-0.031178620309400107,-0.031178620309400107
82,0.82,-0.5096961561769919,0.9503810815795997,1.1699003401477672,-0.002221959767384315,-0.023251413290866454,-0.023251413290866454
83,0.83,-0.052864167084184455,0.7262718011950364,0.7139905121697105,0.02644324111704719,-0.005906337484915819,-0.005906337484915819
84,0.84,0.8234753877215302,-0.6471276321353358,-0.3752972673035575,0.00692562637641166,0.01197928516928706,0.01197928516928706
85,0.85,0.2130599343319558,-1.7132927074902242,-1.045518012857328,-0.0586280297472048,0.01665989812875504,0.01665989812875504
86,0.86,-0.9773998688278618,-1.1726723110658015,-0.4733065443121613,-0.10884671547901012,0.018781770002027784,0.018781770002027784
87,0.87,-0.7224546615513838,0.6038582123391587,0.5112295105179817,-0.09287079230174047,0.022373683610452298,0.022373683610452298
88,0.88,0.3814473431094356,1.4709294672729447,0.9214764680888003,-0.024773136286679837,0.03203277960327665,0.03203277960327665
89,0.89,0.27984751183545403,0.4478665546638625,1.0329334685693565,0.02730541968115713,0.048443792183339066,0.048443792183339066
90,0.9,-0.5540537464697592,-0.9192974484706313,0.6770733741890804,0.016139631904041017,0.05774771493199464,0.05774771493199464
91,0.91,-0.30022310162426896,-0.5921258066718683,0.38109961863646763,-0.0380321375795564,0.0612083393855342,0.0612083393855342
92,0.92,0.3951671631675627,1.1446131246539806,0.5342390276232489,-0.07958575932324426,0.06013094889354115,0.06013094889354115
93,0.93,0.08071910270938379,1.8059096774353849,0.9891754353704802,-0.06524287621065429,0.06320627056063557,0.06320627056063557
94,0.94,-0.5559944402968909,0.35212009623638846,1.4503055247089103,-0.023393379358665773,0.06804788374800991,0.06804788374800991
95,0.95,-0.26468547319488156,-0.9464456608290261,1.3582934946813867,-0.005565914322441843,0.0700702197750737,0.0700702197750737
96,0.96,0.48239681003309104,-0.03922185889460089,0.9463617082448514,-0.013567356641933693,0.07234742927344809,0.07234742927344809
97,0.97,0.3706659958394087,1.7556011642185836,0.8041877438634885,-0.017721470415652158,0.07339569258696298,0.07339569258696298
98,0.98,-0.22282643500335547,2.0328376396203804,0.974281911919769,-0.007880756406129213,0.07190743907997853,0.07190743907997853
99,0.99,-0.0867399621600857,0.41742414643022346,0.8595766284830157,-0.008712269397906324,0.06831224659658637,0.06831224659658637
100,1.0,0.3402748221233864,-0.9053336693210993,0.4907904537656074,-0.03478565303015736,0.06972634728847597,0.06972634728847597
101,1.01,-0.045854637825420014,-0.40914752376181335,0.4781623625745931,-0.0570491065546304,0.0720311649751175,0.0720311649751175
102,1.02,-0.6676376851916888,0.6377515817293337,0.5136688012698152,-0.04524709165690473,0.06988925986101885,0.06988925986101885
103,1.03,-0.2530001338508673,0.48078822444925634,0.26526848740644016,-0.006776504314233125,0.06808169468293285,0.06808169468293285
104,1.04,0.5622353206532265,-0.3492097801252048,-0.19351175928141345,0.0180436542981432,0.07046771292191331,0.07046771292191331
105,1.05,0.18601805429688864,-0.36705242729327336,-0.447669070197537,0.006246739075099296,0.0717601422676326,0.0717601422676326
106,1.06,-0.964222165740108,0.3951760245594031,-0.2797348876325634,-0.015705563638283092,0.06762198695381727,0.06762198695381727
107,1.07,-0.7496687409702819,0.47277448870697475,-0.4013550145170767,-0.018347672450805375,0.06528060669496626,0.06528060669496626
108,1.08,0.5306868306000146,-0.6090665988023106,-0.7041286591509482,-0.012917248682865043,0.06466102425673417,0.06466102425673417
109,1.09,0.5064776528283125,-1.288496984927598,-0.8807665963502984,-0.013579032319547636,0.06265727529810998,0.06265727529810998
110,1.1,-0.7228179162780334,-0.3453753521069914,-0.6216158021884718,-0.010316417540850279,0.05783308697667677,0.05783308697667677
111,1.11,-0.9325325115944594,1.1162024027769988,-0.07186143147300894,0.009279772480323313,0.05045819389299018,0.05045819389299018
112,1.12,0.34099264193393264,1.0781922126802037,0.15696450029548698,0.027722319681354076,0.043477816385446184,0.043477816385446184
113,1.13,1.2652108643230666,-0.6470975803639513,0.05128962273963722,0.018579544030265942,0.04035216444684359,0.04035216444684359
114,1.14,0.7345851470040341,-2.208899005498087,-0.3744456842517714,-0.024700324620326224,0.03882464173829054,0.03882464173829054
115,1.15,-0.4305680917909538,-1.9078022861620658,-0.6510887048323131,-0.06215337809409275,0.035281794958681036,0.035281794958681036
116,1.16,-0.8750779082512549,-0.06884152731326165,-0.5531873963533822,-0.04955255116795335,0.025965801754552254,0.025965801754552254
117,1.17,-0.07725696673843685,1.2502108409085986,-0.3328110417041952,0.006504264103787768,0.014042312194331354,0.014042312194331354
118,1.18,0.9448640013004478,0.7825439090329598,-0.028094709167804155,0.06127409536837186,0.007807933604650031,0.007807933604650031
119,1.19,0.829475124763822,-0.5765679545168041,0.04628142477615976,0.06756682962555728,0.0034100397512334146,0.0034100397512334146
120,1.2,-0.04592951034054482,-0.9624222093208468,-0.028635326716153764,0.02176154738196505,-0.0007381066984138418,-0.0007381066984138418
121,1.21,-0.3008923192427391,-0.13861847703363,-0.20603664984553005,-0.03340762198968912,-0.005287735896902186,-0.005287735896902186
122,1.22,0.1578553143536668,0.5806576560392915,-0.5771369647504359,-0.037522948349981634,-0.008441131339195971,-0.008441131339195971
123,1.23,0.2747173305215066,0.2836664694833833,-0.5280588371678792,0.0029983636796762467,-0.012981241804242784,-0.012981241804242784
124,1.24,-0.05663512410930996,-0.6312628521664919,-0.1986342584242533,0.04255738330919556,-0.02221437306394296,-0.02221437306394296
125,1.25,0.11948103685454978,-0.9280599617227344,0.03145948053297387,0.049923316089223096,-0.028869773090477974,-0.028869773090477974
126,1.26,0.7781810408560228,-0.0188042851879881,-0.005946963466724964,0.024353492893345183,-0.031053246923250424,-0.031053246923250424
127,1.27,0.616878650019318,1.0633368174312234,-0.2842026936064388,0.004621820591905622,-0.03136902357603389,-0.03136902357603389
128,1.28,-0.38065826083688425,0.7706189644765651,-0.4658357771799383,0.005355303156464625,-0.032761605706783624,-0.032761605706783624
129,1.29,-0.6694347037164002,-0.6916005832130663,-0.5605207745694861,0.011508527510226815,-0.03920073603733161,-0.03920073603733161
130,1.3,-0.021937949699544296,-1.4806986484109685,-0.4481910614103096,0.008135891625523955,-0.04632467198512772,-0.04632467198512772
131,1.31,0.3031727239811741,-0.4971978820190207,0.017797905477178744,0.007711876665775386,-0.052628548698638936,-0.052628548698638936
132,1.32,-0.01645823535554515,0.9401664341817622,0.5026980844777748,0.02975532695340701,-0.05882424337692785,-0.05882424337692785
133,1.33,-0.12234986482523658,1.086592884087047,0.5454739289965274,0.05193328401681992,-0.05809990885418383,-0.05809990885418383
134,1.34,0.1789339714962091,0.2699686629606886,0.17886406367282115,0.04250070091270086,-0.05987852101557551,-0.05987852101557551
135,1.35,0.25588084142737183,-0.09219166902328374,-0.1271508573248065,0.007635737649270263,-0.06537399172810178,-0.06537399172810178
136,1.36,-0.045687604040738045,0.027682881340950233,-0.1270991124996736,-0.023556853779299496,-0.07065078935270518,-0.07065078935270518
137,1.37,-0.41862326819022594,-0.1444016062275182,0.19040261211028592,-0.028668997133982414,-0.07480961686775547,-0.07480961686775547
138,1.38,-0.38047222850225065,-0.5342494005197092,0.3890855485468566,-0.015193134370771045,-0.07680574562607832,-0.07680574562607832
139,1.39,-0.03337164879388119,-0.1482797696036871,0.4310584265084383,-0.003318259960422728,-0.07772014251781015,-0.07772014251781015
140,1.4,0.3088314344153238,0.8382145311078468,0.23254431581998963,0.006181236193759107,-0.07759254755819542,-0.07759254755819542
141,1.41,0.30345848737446324,0.9739041307689698,0.061195197521943245,0.007716188448384746,-0.07552801106944625,-0.07552801106944625
142,1.42,-0.24646465203640955,-0.14940747765149198,0.016448423459771447,-0.013069894120587393,-0.07396765977535011,-0.07396765977535011
143,1.43,-0.930810179672479,-1.1384573954641273,-0.11287375382279377,-0.05228534006271497,-0.0710786477946665,-0.0710786477946665
144,1.44,-1.1484500460548652,-0.5317234972344834,-0.12546569283121492,-0.07200204988153547,-0.0676627411456043,-0.0676627411456043
145,1.45,-0.6061430188466101,1.1677133844209169,-0.21876859484105216,-0.04723755525852976,-0.06824352038611642,-0.06824352038611642
146,1.46,0.2988305070172907,1.9004817275539767,-0.19906374033687962,0.007384010976900359,-0.06936188992338299,-0.06936188992338299
147,1.47,0.5938918829588449,0.5903977272252239,0.16525548869777476,0.035774519970510975,-0.06822673617007323,-0.06822673617007323
148,1.48,-0.079841395149929,-1.1490010985488432,0.39669267481195897,-0.0018248477969277227,-0.06432160790001508,-0.06432160790001508
149,1.49,-0.6308670913059724,-1.0573652719413704,0.4199986912324945,-0.07120497285711082,-0.05818633376514335,-0.05818633376514335
150,1.5,-0.3875193378701835,0.9994811213347226,0.10551644155900011,-0.0879049882238883,-0.05112722264309038,-0.05112722264309038
151,1.51,-0.12936625746097757,2.453339905274593,-0.12902906589195354,-0.032724443526484424,-0.0481106320778258,-0.0481106320778258
152,1.52,-0.169933851844213,1.3224861945958197,0.08831758283807567,0.03016553030875685,-0.04682885760398525,-0.04682885760398525
153,1.53,-0.029899123263269836,-1.2038448570606208,0.3285288332172398,0.03536976772831983,-0.04525948192925406,-0.04525948192925406
154,1.54,0.4870020492305531,-2.170582058865854,0.4265020358147452,-0.024176549904272503,-0.041324737283364416,-0.041324737283364416
155,1.55,0.6842698635425144,-0.7975948510264649,0.25519093714207103,-0.09108175808396744,-0.032752921809317014,-0.032752921809317014
156,1.56,0.001867721162808117,0.8062784861491701,0.045800694381991414,-0.09302186778983693,-0.021976062500570787,-0.021976062500570787
157,1.57,-0.6082310875796131,0.5939860778477254,-0.031047158121938784,-0.035808739535045424,-0.015895700854657326,-0.015895700854657326
158,1.58,-0.1295031316668161,-0.7750091868540527,-0.19372642836201018,0.02070141636728945,-0.01189485562464005,-0.01189485562464005
159,1.59,0.535674313625855,-0.903690577204029,0.005121945722442234,0.03515991891501222,-0.006351017003900068,-0.006351017003900068
160,1.6,0.27258275189684644,0.48036918284693264,0.3962294836072831,0.015421284095306154,-0.002789450206793163,-0.002789450206793163
161,1.61,-0.06698074023686251,1.4132961931508223,0.3436104625184131,-0.00027878746075071965,0.005165726223372661,0.005165726223372661
162,1.62,0.3253564942968836,0.7102123298247736,-0.06425949835559572,-0.012018171611033518,0.01651397828198019,0.01651397828198019
163,1.63,0.5520087128182971,-0.8431351836306749,-0.6173831133843101,-0.023754923167934167,0.020221978655290143,0.020221978655290143
164,1.64,0.13099078802515315,-1.6254994380176622,-0.7238619365619616,-0.02512974819341247,0.02385649154569313,0.02385649154569313
165,1.65,-0.07368901696590163,-1.0349745519962115,-0.28031213001871624,-0.013353162190656659,0.02475317402922551,0.02475317402922551
166,1.66,0.19690482084701977,-0.1562439390098156,0.2634174525534825,0.005359633249488756,0.022335457779708568,0.022335457779708568
167,1.67,0.2849001170334256,-0.07670278362779998,0.618700923292653,0.01858114014710263,0.025138063770048524,0.025138063770048524
168,1.68,0.1941874905342585,-0.4146820716979427,0.35782205560949376,0.01714701468738766,0.033589110744844414,0.033589110744844414
169,1.69,0.14311495503272378,-0.43363889794351895,-0.19222205492516797,-0.0020052200531131773,0.04271527689268502,0.04271527689268502
170,1.7,-0.03833611321864622,-0.5231032052973181,-0.6070237703350914,-0.02469513585586026,0.04250324335654628,0.04250324335654628
171,1.71,-0.05842351928780659,-0.6766981767224904,-0.4578118057879841,-0.03059236507370443,0.0356269929382588,0.0356269929382588
172,1.72,0.28067361575261474,-0.17136262419495984,0.3247377024428676,-0.018836260035417912,0.030873702720652294,0.030873702720652294
173,1.73,0.4721829619651904,0.703286400563546,0.8787554271820575,0.010378416618439669,0.03283413038880578,0.03283413038880578
174,1.74,0.08010844294521603,0.7604316886588801,0.6129888156182668,0.03325539865329565,0.04100323052693389,0.04100323052693389
175,1.75,-0.4333469933448282,0.0255811468032624,-0.35787565654134323,0.01960693807180956,0.048721074374897415,0.048721074374897415
176,1.76,-0.0428750430568732,-0.5839142144245881,-1.1496146304884187,-0.02748348448777316,0.04423725514453287,0.04423725514453287
177,1.77,0.6556884288832365,-0.6746211554035721,-0.9555868974283397,-0.07055547650533475,0.02788083623084517,0.02788083623084517
178,1.78,0.5189931232996123,-0.09740522514904815,0.09770939490248598,-0.06921507631345362,0.01776450521795936,0.01776450521795936
179,1.79,-0.20199030887474312,0.7790416258390169,0.9871321744389091,-0.03005668340738003,0.018276667976608648,0.018276667976608648
180,1.8,-0.5324632523460648,1.2050301310910632,0.6347615446651634,0.01789863973170159,0.025864339051067654,0.025864339051067654
181,1.81,-0.32176844990242953,0.6680520636640255,-0.32614163411385944,0.040724233059152036,0.030387545413142775,0.030387545413142775
182,1.82,-0.1390002780303869,-0.09897177030837617,-1.0626692902828907,0.018026804777240276,0.02082857518903488,0.02082857518903488
183,1.83,-0.2039735176204732,-0.05438643523183806,-0.9599340037993913,-0.0280098873380157,0.007546619782013314,0.007546619782013314
184,1.84,-0.26449636701163043,0.7134395915769947,0.013828147325023965,-0.0439037307788455,-0.002738080740043885,-0.002738080740043885
185,1.85,-0.13578100934339568,1.29704954635217,0.7460277284760776,-0.011187154323124102,-0.006921925432456075,-0.006921925432456075
186,1.86,0.014209969845054737,1.0364115110757313,0.7264381222422139,0.03930224443025659,-0.002869234580783828,-0.002869234580783828
187,1.87,-0.1615800768479949,0.16344361033338167,0.21809315128061002,0.057815615394797515,0.0002490710566710956,0.0002490710566710956
188,1.88,-0.6245668430746886,-0.1944054804620266,-0.4341921222555377,0.0313832895615243,-0.004114075568825766,-0.004114075568825766
189,1.89,-0.7166296517908746,0.2456491791771984,-0.4619032312966242,-0.005970582772070021,-0.015596332393192216,-0.015596332393192216
190,1.9,-0.09758232305312992,0.4024423419097379,-0.03787081076236981,-0.026982737217797148,-0.02486642475320049,-0.02486642475320049
191,1.91,0.4309027168963195,-0.18084731240724417,0.25733813511970677,-0.0145272118139476,-0.02563110688590525,-0.02563110688590525
192,1.92,-0.011031622427799127,-0.840661898206918,0.39425045634030015,0.010259196547165252,-0.02199439472816913,-0.02199439472816913
193,1.93,-0.42934776776624767,-0.8496622509542905,-0.11227670171252513,0.01898023437972491,-0.017188376012776604,-0.017188376012776604
194,1.94,-0.14076584625459537,-0.2996059094445074,-0.8115225434467136,0.013692025053438408,-0.016971147474025217,-0.016971147474025217
195,1.95,0.11081491934794524,-0.017691120718302533,-1.0873121401862211,0.008693300777281915,-0.02047506438811664,-0.02047506438811664
196,1.96,-0.3105116491983606,-0.4043954645097173,-0.4491347417726004,-0.0023870370109588448,-0.029025223155533457,-0.029025223155533457
197,1.97,-0.5204105940390064,-0.7810943507456992,0.6557318153660577,-0.01531442009226739,-0.037970383176668274,-0.037970383176668274
198,1.98,0.27447960195406007,-0.3916355779870183,1.293889670482276,-0.007461808685719634,-0.03687303172658518,-0.03687303172658518
199,1.99,1.2703946472604748,0.45542713331604545,0.7114305299974467,0.02269978021696252,-0.02627169395691805,-0.02627169395691805
200,2.0,0.8913314443661792,0.5913349480365049,-0.2666631077289632,0.049836791479452185,-0.016080119398224138,-0.016080119398224138
201,2.01,-0.6196409600753626,-0.2152176537822944,-0.4465297386853768,0.03758589977381577,-0.016238021963892145,-0.016238021963892145
202,2.02,-1.1717973564797535,-0.6659383551310248,0.39514401695520696,-0.011914459438886024,-0.024064193857158172,-0.024064193857158172
203,2.03,0.3732289768333948,-0.1908260945278156,1.0049932268508242,-0.045542403914894725,-0.026188966726047643,-0.026188966726047643
204,2.04,1.961416503043524,0.14863394840450037,0.5373572426447708,-0.02607572114244379,-0.013896583440523191,-0.013896583440523191
205,2.05,0.7743469354981117,-0.7264262596123373,-0.4180140823116423,0.014925165303519925,0.003216544154163429,0.003216544154163429
206,2.06,-1.612609950199377,-1.8442855507567009,-0.8376467021826982,0.02404337311281126,0.0058626040134629465,0.0058626040134629465
207,2.07,-1.5482840716332156,-1.2032374342012144,-0.34860082000104436,0.0001226492810527946,-0.0007188104655580473,-0.0007188104655580473
208,2.08,0.9434389449672764,1.194648649737291,0.3490452021269915,-0.011184992194847438,-0.0014797948049344273,-0.0014797948049344273
209,2.09,2.1908669347944,2.6080601347560126,0.7707875467036802,0.021254193947065163,0.006550811290381463,0.006550811290381463
210,2.1,0.44303057207661145,1.1197381122842966,0.7685040084646513,0.05588375415247647,0.017879313400103642,0.017879313400103642
211,2.11,-1.503378528030196,-0.9967319043274343,0.08607982022993543,0.040190404262691916,0.02805085930665795,0.02805085930665795
212,2.12,-1.3149333617439085,-0.5916312592705354,-0.5518708351352357,-0.011873325588725768,0.03112996735372888,0.03112996735372888
213,2.13,0.33164191890072414,1.2070592729499063,-0.9840219666859912,-0.03880462198852667,0.024521958276419783,0.024521958276419783
214,2.14,1.2690067684848665,1.5841686913346618,-0.3714177953913476,-0.007463632524900518,0.013795012370104451,0.013795012370104451
215,2.15,0.5224828362361305,-0.0253025150213968,1.0532406123549016,0.031267883154597734,0.007021810552855678,0.007021810552855678
216,2.16,-0.24836340166448934,-2.1458232729582396,1.895437284974846,0.01085799492409225,0.00904169569860111,0.00904169569860111
217,2.17,0.6163856297652823,-2.2574610641640644,1.4704282595276297,-0.04481221154102345,0.02360478667383696,0.02360478667383696
218,2.18,1.1340500604631285,0.1431491424464133,-0.20689099822008505,-0.05170919045114136,0.046234308943959176,0.046234308943959176
219,2.19,-0.8846748543624183,2.5312376195103323,-1.4589649644709346,0.00203988728258242,0.06215350740191961,0.06215350740191961
220,2.2,-2.977513152308431,2.4878254063291703,-1.5207993858163478,0.05769947928439278,0.057280107333761376,0.057280107333761376
221,2.21,-1.728705704920459,0.16055785334143702,-1.396662370560401,0.07554321687400482,0.044168545588529125,0.044168545588529125
222,2.22,1.3924063298755367,-1.8793233084897472,-0.5005778750843347,0.031762789776637726,0.03751909762301103,0.03751909762301103
223,2.23,2.245818790340702,-2.0238913014505493,0.3429700423688333,-0.05620193583635205,0.031727696586286123,0.031727696586286123
224,2.24,0.14702806015377867,-0.6444000828110434,0.8516478547720019,-0.0946934960370356,0.04134498871054288,0.04134498871054288
225,2.25,-1.517642369049443,1.03975144588604,0.49861575005534853,-0.05505678404617248,0.055914744430830214,0.055914744430830214
226,2.26,-0.8380177564104306,1.5405319573874472,-1.079357279531455,0.017829647985094583,0.062123095176615725,0.062123095176615725
227,2.27,0.283660037828357,0.7038452325409927,-2.0712145359987337,0.06683567578932653,0.06286724768047271,0.06286724768047271
228,2.28,-0.07081573077215203,-0.4512113321436953,-1.2817769399651548,0.06138533194367257,0.04756853501104098,0.04756853501104098
229,2.29,-0.648533980453665,-0.795551692408597,0.3117646872467641,0.0126460542520239,0.02779664320940731,0.02779664320940731
230,2.3,0.3296858795169994,-0.1553681486984847,1.4089272503604517,-0.04950343840910505,0.024548800565355786,0.024548800565355786
231,2.31,1.321051795209903,0.060894554457197964,1.214634483701659,-0.06322116804727455,0.034123254915595994,0.034123254915595994
232,2.32,0.4945161606621833,-0.6957678760509429,-0.04754600966367306,-0.035820473741973134,0.0451355627660671,0.0451355627660671
233,2.33,-0.7732713368086197,-0.8356017883362163,-0.9546835873039674,-0.004547443286641386,0.04502582509299581,0.04502582509299581
234,2.34,-0.657698385065437,0.4204492126545134,-1.364213107946159,0.0353659788291742,0.032761723930927904,0.032761723930927904
235,2.35,-0.037875617837364095,1.6170394024273689,-0.7179819906696646,0.06748277681888573,0.02306151056808946,0.02306151056808946
236,2.36,0.13408522275569895,0.8254612189862225,0.3384457986510234,0.07015201682088985,0.014473411608998015,0.014473411608998015
237,2.37,0.5840380856616517,-0.8237471147298259,0.6925275921049406,0.029677773529846067,0.00928586737008673,0.00928586737008673
238,2.38,1.235748955015386,-0.4246138455178971,0.6920899463692067,-0.031478671445584167,0.013159412142980387,0.013159412142980387
239,2.39,0.41502712975678663,1.621924750873632,0.8141344938938126,-0.040556311923248586,0.02045960814621064,0.02045960814621064
240,2.4,-1.2411466367831943,2.100136264459498,0.8502471874777762,0.01731621404815385,0.027972362776664768,0.027972362776664768
241,2.41,-0.9489861428237676,-0.37606279919972785,-0.13173997950895938,0.054697109776213934,0.037561406134830534,0.037561406134830534
242,2.42,0.46980962545528304,-3.5069838975413,-1.340527334953463,0.012071220356914276,0.041685397634014784,0.041685397634014784
243,2.43,0.0023396126284463414,-3.8692055087564547,-1.2163927312002412,-0.08072755220734612,0.031038522445328925,0.031038522445328925
244,2.44,-1.2694960974829257,-1.0646413272107391,-0.38411171405662414,-0.12314007625485544,0.02077557884080968,0.02077557884080968
245,2.45,-0.3050049855506897,1.8020515179579704,0.41033209427735307,-0.08518162609776722,0.021823567621432963,0.021823567621432963
246,2.46,1.2201478863093955,1.5998026338387545,1.2869392826779746,-0.0019485909624545605,0.019173819880640083,0.019173819880640083
247,2.47,0.30752207142722904,-0.5693617552835022,2.042218684946088,0.05152982797520316,0.010598749764170341,0.010598749764170341
248,2.48,-0.9299555916915327,-0.7349464729832036,2.5232078073667896,0.0316435041398808,0.00869432805598852,0.00869432805598852
249,2.49,0.836968523019886,1.497611637418149,1.5293325041034473,-0.016390807377331944,0.009621414061388587,0.009621414061388587
250,2.5,2.8259194719540117,2.2275001690186045,-0.21196047546804997,-0.031287558398911224,0.012294013881459441,0.012294013881459441
251,2.51,0.9469649540040276,0.10053909190680266,-0.7356084698846324,-0.018608167403823397,0.01890930670670344,0.01890930670670344
252,2.52,-2.161689435187089,-1.8351976425639784,-0.2800803316175846,-0.015351443450702353,0.020308439911451315,0.020308439911451315
253,2.53,-1.9999598169390285,-0.6581336549676027,0.05033553506444938,-0.01019817441989355,0.018542602296045617,0.018542602296045617
254,2.54,0.5916488431847244,2.364469511227272,-0.21494561188627437,0.027953671263470217,0.012380206078213895,0.012380206078213895
255,2.55,1.8773919331372166,3.4281848661110437,-0.43637173661917544,0.07778732194274872,0.0031402946952296057,0.0031402946952296057
256,2.56,0.9933218837215568,0.8315340605956372,-0.04305081840528513,0.08527587375305389,-0.001569269279906418,-0.001569269279906418
257,2.57,-0.1882023858923506,-2.7378836230834134,0.12253067099071274,0.03589626928533818,0.003235645933908039,0.003235645933908039
258,2.58,-1.0257848658951347,-3.155103473841983,0.08083782477125484,-0.04215431175799489,0.01431842317233908,0.01431842317233908
259,2.59,-1.234059830638046,0.030089202146353744,-0.3493257065050178,-0.06848412909555973,0.017423703916527283,0.017423703916527283
260,2.6,-0.36336746872230763,2.3442920832916125,-0.8534983356988455,-0.019546349647383318,0.005168746649466344,0.005168746649466344
261,2.61,0.8901468589026912,0.8401482896943298,-0.7366484214254511,0.05866869967783486,-0.009418474502627509,-0.009418474502627509
262,2.62,1.2844183718512334,-2.175522561439543,0.031006463101139192,0.0824712404811534,-0.016464711718465634,-0.016464711718465634
263,2.63,0.27310546974477146,-2.4348803112545747,1.2279156650547214,0.042352500778781714,-0.01268844281658086,-0.01268844281658086
264,2.64,-0.8355377427571941,0.32605262430635334,0.8184302609798468,-0.004969909608628427,-0.00017589513994763824,-0.00017589513994763824
265,2.65,-0.9527288288613016,2.4647419523801237,-1.2429917528425234,-0.019098910889124916,0.016858194442873013,0.016858194442873013
266,2.66,-0.8936591533240111,1.6755162999218933,-2.8709786831175155,0.007500096496320174,0.015837244223803282,0.015837244223803282
267,2.67,-1.2073463548711403,-0.6519039631313546,-2.2211018135289,0.026682365373694842,-0.016283035958030097,-0.016283035958030097
268,2.68,-0.3482291130110199,-1.916171353568729,0.2827254054771613,0.010625623177526841,-0.04976558157318069,-0.04976558157318069
269,2.69,1.811744922328811,-1.7256581456085032,2.7950239765226073,-0.034087636016985716,-0.06033203531958047,-0.06033203531958047
270,2.7,1.9231175937157186,-1.0809535467423195,3.4178425843771567,-0.06596682511264515,-0.0474837418704369,-0.0474837418704369
271,2.71,-0.8369540742795505,-0.9285324315699997,1.4850223275003973,-0.05193039630229579,-0.02210528293803721,-0.02210528293803721
272,2.72,-2.2448872978980674,-0.5979261867505655,-1.603861849886297,-0.013424928737338243,-0.007702138452967274,-0.007702138452967274
273,2.73,-0.3345467180441115,0.657168842475369,-3.9499583982147097,0.027949592393482426,-0.015721485853911463,-0.015721485853911463
274,2.74,1.1619551033241862,1.677639191772085,-2.8155871145032614,0.046116716767337286,-0.040310357874412985,-0.040310357874412985
275,2.75,-0.1640967886241363,1.4517030301225622,0.9243174721012908,0.025149970737089085,-0.06928385585075839,-0.06928385585075839
276,2.76,-1.0422489967216657,0.7514901353334686,3.2838857409883535,-0.01304904353618517,-0.07200623654740593,-0.07200623654740593
277,2.77,0.700499695661456,0.3505717829391,1.8566592648525075,-0.0257820991481763,-0.03740175325520514,-0.03740175325520514
278,2.78,1.3304800712610816,-0.19354920982927787,-2.169372325540884,-0.013318523690098772,-0.0019116436230115566,-0.0019116436230115566
279,2.79,-1.1326325484223254,-0.6132279228464304,-4.170994488644221,-0.014042153091534008,-0.00480775592216851,-0.00480775592216851
280,2.8,-2.569840588463259,0.15155860902550455,-2.3148633800284264,-0.010514917940688446,-0.042389870168024764,-0.042389870168024764
281,2.81,-0.1908330588060998,2.2666268082079086,1.0941301454391272,0.024406689040883518,-0.0667406636478357,-0.0667406636478357
282,2.82,2.791814497949744,3.441844530568653,3.336919117499523,0.06042779436630355,-0.05761482757237463,-0.05761482757237463
283,2.83,1.786578294015142,1.073677122427564,2.1625927279976622,0.06870344871194714,-0.023681626248205308,-0.023681626248205308
284,2.84,-1.6435260972279917,-2.927833158122096,-1.047366040637748,0.026295485611454963,0.012276183829470513,0.012276183829470513
285,2.85,-2.2513681450623775,-3.9738199801792287,-3.2455191742609895,-0.06037256176082576,0.011525836930175377,0.011525836930175377
286,2.86,0.22443933018059514,-0.7466397868009349,-2.2063640879862305,-0.1048118262508982,-0.019562696640100144,-0.019562696640100144
287,2.87,2.4536898302799166,3.067277046934973,1.2245510622239633,-0.04977493018103439,-0.041933298174358515,-0.041933298174358515
288,2.88,1.9220736988066163,2.8879805745129863,3.569639234171229,0.072903487201485,-0.027987950542012037,-0.027987950542012037
289,2.89,-0.5901111673552559,-2.1690265112711016,2.611635631816471,0.12708988680919325,0.009697221326376208,0.009697221326376208
290,2.9,-2.1674676952680874,-6.056893782635308,-0.6741858139532448,0.04866353227617225,0.03899884771919314,0.03899884771919314
291,2.91,-1.0387520615928931,-3.431114995953764,-3.037283533974721,-0.0698444555015339,0.03325250423639545,0.03325250423639545
292,2.92,1.5705048209268946,3.318327445152592,-2.268068121114224,-0.10059262036749764,0.002555016327164709,0.002555016327164709
293,2.93,2.34641722978641,7.076650586913679,1.2054001353275563,-0.010266274819465291,-0.02352490682910023,-0.02352490682910023
294,2.94,0.609780856745182,2.9065245684505006,4.206743953645773,0.10786526068943847,-0.02202901544884838,-0.02202901544884838
295,2.95,-0.7275118063176997,-5.36240246774934,3.6222570270578007,0.1165720444463025,0.012907183144258892,0.012907183144258892
296,2.96,-0.01443799993395034,-7.357492393546057,0.3734105492745401,-0.01662285367513905,0.046119777752276415,0.046119777752276415
297,2.97,0.7635568864007293,-1.2870298954486645,-2.5969162559173014,-0.13288860906836675,0.04824810092872256,0.04824810092872256
298,2.98,-0.008971693206493214,5.082857384172101,-2.39988943162046,-0.10733983611452648,0.026957701443897048,0.026957701443897048
299,2.99,-0.8911955915662226,4.864432209078368,0.7882818930307263,0.005214402092128159,0.004958458254257552,0.004958458254257552
300,3.0,-0.3419949141748737,-0.8824191289130388,3.07400602966542,0.07768261052968463,0.0061467970371773826,0.0061467970371773826
301,3.01,0.6751176842762486,-4.445734395179367,2.497846011915304,0.04595377846487755,0.03145348303492899,0.03145348303492899
302,3.02,0.27536373925293944,-1.4609232650422836,-0.042555672862518046,-0.04809651227574696,0.0572010307276463,0.0572010307276463
303,3.03,-1.1995997948494694,2.9945541483144003,-2.6514356854160037,-0.09894958019154614,0.055636613624496366,0.055636613624496366
304,3.04,-1.2413633118182381,2.8995897533097175,-2.6203270411919384,-0.05196800323358119,0.03490770476585887,0.03490770476585887
305,3.05,0.3399553813153585,-0.35306688984434065,-0.5834904167798349,0.00944917706510639,0.012940850923375822,0.012940850923375822
306,3.06,1.1999760848553938,-2.5787702856817085,1.9203543723791634,-0.0007431455916484983,0.00019429181804603247,0.00019429181804603247
307,3.07,0.15641733781889017,-0.901662890315305,3.0219672452745288,-0.05161374253162489,0.00907750021267608,0.00907750021267608
308,3.08,-0.89077811702273,2.1163974338596825,1.1183509221061783,-0.055362721103758936,0.03368891402133758,0.03368891402133758
309,3.09,-0.5873704800867556,2.4883086220530024,-1.8997242662018912,-0.007896667405130852,0.04485019249925258,0.04485019249925258
310,3.1,0.023486469874608784,0.7102384875269894,-3.3741936673145085,0.021764789976212617,0.03141857865459331,0.03141857865459331
311,3.11,-0.015040719067560937,-0.6540486773921139,-1.8242769565778998,0.0020635505294797976,0.006388823137999376,0.006388823137999376
312,3.12,-0.2919069029208352,-0.7397972215798979,0.9533826665635181,-0.04607409994286625,-0.01370132610937226,-0.01370132610937226
313,3.13,-0.049479860560042346,-0.3741926452759214,2.0127517311089553,-0.07996893688657672,-0.0078878084665352,-0.0078878084665352
314,3.14,0.010969215364632634,-0.02094149679257859,0.6443808161728708,-0.0674371513861417,0.01425375643279439,0.01425375643279439
315,3.15,-0.8574709943182715,0.0879802954540546,-1.8361911734739247,-0.01524046660529954,0.024046620369176867,0.024046620369176867
316,3.16,-1.051175697062998,-0.11592783646047074,-3.0501259104830125,0.02570715107851982,0.009153952420733743,0.009153952420733743
317,3.17,0.4814049258537042,-0.4981606248197512,-1.5748203925922315,0.025133372952223957,-0.01986150613067991,-0.01986150613067991
318,3.18,1.6111157142866621,-0.6280548449342374,1.3838745454736099,-0.014645929207685829,-0.0425894141244764,-0.0425894141244764
319,3.19,0.6898422776226018,0.07593139942222654,3.3413591451038442,-0.05998526077879845,-0.03213776036339885,-0.03213776036339885
320,3.2,-0.8279754569677303,1.1038604063826976,1.8604877503277994,-0.05374784377107955,0.008016120146268173,0.008016120146268173
321,3.21,-1.5108792789240408,1.004675164762749,-1.9484569572939718,0.007924202274817854,0.04157469694586848,0.04157469694586848
322,3.22,-1.2763219364714349,-0.4442029683340113,-4.619409861594223,0.0490180916561878,0.037592042148166485,0.037592042148166485
323,3.23,-0.20930126728478116,-1.7761704297226184,-3.7330239125036737,0.015217014096142728,0.001349333960828893,0.001349333960828893
324,3.24,1.1015622839763055,-1.4421177276588224,-0.02732016770492729,-0.052936236378414235,-0.032287412353562764,-0.032287412353562764
325,3.25,1.1436890274427765,0.3045175432995144,3.2155326380133595,-0.07772943396328262,-0.041614616536284385,-0.041614616536284385
326,3.26,0.05175263367410987,1.1875175895694903,3.5602605569682444,-0.03169746745869945,-0.0160987844737369,-0.0160987844737369
327,3.27,-0.5476541544831275,-0.5117175733322168,1.215157292106126,0.030764091913190694,0.017962417020715417,0.017962417020715417
328,3.28,0.08904650333473069,-2.3785430603476856,-1.813356484088423,0.028798235614826882,0.017849143345717033,0.017849143345717033
329,3.29,1.0249473757584995,-1.0711224322724724,-2.2763358356097614,-0.02331981951976304,-0.006331470179431205,-0.006331470179431205
330,3.3,0.8767956742235039,2.288042219460273,0.4107765769079015,-0.03480349574819346,-0.03526784890303747,-0.03526784890303747
331,3.31,0.1494408086977036,3.592732079540423,2.9977062683332956,0.02308392978188866,-0.044562032652027815,-0.044562032652027815
332,3.32,0.29316457456745615,0.36873503143740427,3.10115033118276,0.059738680730686826,-0.020810055153707815,-0.020810055153707815
333,3.33,0.7463934533590852,-4.05921895004428,0.39794008300167816,-0.0002932730633997127,0.0058366956799034,0.0058366956799034
334,3.34,0.2871388551540527,-3.665700955982602,-2.190967198810797,-0.0907694704504002,0.012052953598310302,0.012052953598310302
335,3.35,-0.5946550096159504,1.1162480396818082,-2.284082902696495,-0.09318674792157527,-0.005303241778919008,-0.005303241778919008
336,3.36,-0.3974229196688721,4.4081931449587675,-0.28869629755970916,-0.005389621231159894,-0.02591738439520009,-0.02591738439520009
337,3.37,0.5047051012962837,2.6212224281013556,1.9442613863572418,0.08324647165335468,-0.027916534056878464,-0.027916534056878464
338,3.38,0.2569881655427933,-1.7451525275567579,2.2359695413961798,0.08562329651747777,-0.01670196657119567,-0.01670196657119567
339,3.39,-0.4642409519196397,-2.621754683472257,0.39837384784571805,0.0068034054785307075,-0.00023419092912903974,-0.00023419092912903974
340,3.4,-0.23540198615513716,0.5967034865012569,-1.6683411858128991,-0.0732863452784353,0.004372175606900462,0.004372175606900462
341,3.41,0.48271533273587625,2.421707498644729,-2.2463096037041757,-0.07031173009842917,-0.009862009849074364,-0.009862009849074364
342,3.42,0.5811138100972553,0.4390049700925649,-0.2559268414570566,-0.02496423029088631,-0.0284674833177054,-0.0284674833177054
343,3.43,-0.19597094576881496,-2.204885245763577,2.471350105744972,-0.004096880939986104,-0.0388010006355801,-0.0388010006355801
344,3.44,-0.5167362729987641,-1.9446643865080837,3.2424863225564082,-0.006734817746928368,-0.02356927564372775,-0.02356927564372775
345,3.45,0.17464695893070314,0.8110177296476792,0.6576519288487122,-0.004879080046001558,0.006092224013825349,0.006092224013825349
346,3.46,0.07036660191229116,2.7261553919779797,-2.89068052517685,0.024727544511306973,0.02424507622161261,0.02424507622161261
347,3.47,-1.2239499347077294,2.0632925255342207,-3.802926035395193,0.04428589680700913,0.009482725381085636,0.009482725381085636
348,3.48,-1.63528506797765,0.07995978591137576,-1.7659459017230672,0.02657234328953093,-0.029520703871044645,-0.029520703871044645
349,3.49,0.028719485588901028,-1.3234889037896302,1.9203541842195397,-0.024152059300046123,-0.05529557350588138,-0.05529557350588138
350,3.5,1.806583970568286,-1.4868470786160541,4.231850274895519,-0.07636566229412133,-0.05641087444400503,-0.05641087444400503
351,3.51,1.3065837020345519,-0.6914893747622043,2.9131398394099364,-0.08018458331733104,-0.02611470411612215,-0.02611470411612215
352,3.52,-0.5536876824512152,0.21088144671714915,-0.5837137391448084,-0.03202011692415287,0.009664835327655923,0.009664835327655923
353,3.53,-1.4864311614290846,0.46746055569409123,-3.4053806577329513,0.023952102669156303,0.007966589458622879,0.007966589458622879
354,3.54,-0.7080122810479338,0.19582913837601654,-3.545842633129626,0.04020157747245195,-0.013294237138889602,-0.013294237138889602
355,3.55,0.1961824169203043,-0.31962574125809423,-0.7232672313377035,0.011145294334375907,-0.03837019791539165,-0.03837019791539165
356,3.56,0.056851634941480794,-0.516543882784518,2.0232864440801253,-0.041719445248526436,-0.048947886799866495,-0.048947886799866495
357,3.57,-0.2381168737972221,-0.05618181029601155,2.1638373463367904,-0.07817061925609865,-0.026928225060160682,-0.026928225060160682
358,3.58,-0.18403605253920396,0.3606425785126951,0.002749483279062215,-0.05885443762267348,-0.0004554834251572215,-0.0004554834251572215
359,3.59,-0.1531297890492922,0.20426487959655593,-2.550994701914741,-0.01320676223270564,0.003093069189948866,0.003093069189948866
360,3.6,-0.1445956301888464,-0.13993677387261363,-2.579323758295793,0.02097307378845359,-0.012075210876207346,-0.012075210876207346
361,3.61,0.08936660958374745,-0.38417519403134115,-0.28004226659239007,0.020666721119098515,-0.03187729902619702,-0.03187729902619702
362,3.62,0.17953719562606915,-0.5965072327394867,1.8090469036482322,-0.011249753604074774,-0.0397870461323214,-0.0397870461323214
363,3.63,-0.08783805545185037,-0.5332480233757049,2.048690693199059,-0.04523836810774398,-0.023488169487815232,-0.023488169487815232
364,3.64,-0.16202622411551737,0.03913430964321901,0.09488880033076652,-0.047932061321708574,0.0015183074124711369,0.0015183074124711369
365,3.65,-0.046339758273467146,0.7653903799830146,-1.8436061389930503,-0.013004706615236093,0.005776361585643446,0.005776361585643446
366,3.66,-0.0580220314107846,1.016569065896085,-1.5077566735047059,0.02966287076076505,-0.009803493139260471,-0.009803493139260471
367,3.67,0.29013009535755296,0.5538371733965712,0.4147944525949605,0.04519249723434891,-0.026766859257569997,-0.026766859257569997
368,3.68,0.7749542315815988,-0.0487224749407138,1.8412929569900607,0.02799965063869112,-0.025199261046250136,-0.025199261046250136
369,3.69,0.38709331006268916,-0.5522054428116272,1.223389481537317,-0.013774011402130713,-0.00313302000042808,-0.00313302000042808
370,3.7,-0.4796119493854524,-1.0684916254057233,-0.6892529752127374,-0.057919421876439565,0.010754053080357652,0.010754053080357652
371,3.71,-0.46917223976431627,-1.0086078358724664,-2.1271892372140586,-0.06021374661496921,0.006736400067648843,0.006736400067648843
372,3.72,0.13262560849134508,-0.167209054030045,-1.5688738785262353,-0.018058039522682742,-0.0060227546010646355,-0.0060227546010646355
373,3.73,0.43766716082077894,0.3665856992478506,0.7899392017349409,0.03316272189715674,-0.02472693193477696,-0.02472693193477696
374,3.74,0.5420110369151784,0.10617752791640693,2.8078906894433917,0.039588022655251534,-0.032984424944825404,-0.032984424944825404
375,3.75,0.6686525010617873,0.02473758873231112,2.9326964416023387,0.005617029988293786,-0.018700649522238936,-0.018700649522238936
376,3.76,0.5656909640624092,0.7562890821317292,0.901941674701277,-0.027818863914702303,0.0019016739084966067,0.0019016739084966067
377,3.77,-0.050720182774240674,1.126198697592055,-1.5541744103071147,-0.03699576750172663,0.015514671367664002,0.015514671367664002
378,3.78,-0.6438698276022503,-0.12810299813079074,-2.058892866437449,-0.02288689169072917,0.008798776184745997,0.008798776184745997
379,3.79,-0.5459503042164755,-1.8254985876058263,-0.7637296480514919,-0.012996956995513788,-0.01356893906322934,-0.01356893906322934
380,3.8,0.3437900599972507,-1.4599595497837983,1.098571440101181,-0.020482980859281914,-0.02040580039765764,-0.02040580039765764
381,3.81,0.8203106763924263,1.2086826079619601,1.832862345011002,-0.01434993600532978,-0.01007265469666779,-0.01007265469666779
382,3.82,0.178777064146748,2.6671067708022793,0.7152857009271383,0.023368652610275185,0.010188962359598869,0.010188962359598869
383,3.83,-0.47523377894270624,0.73177037239615,-0.8681013546433913,0.04064357839149873,0.02337106196074312,0.02337106196074312
384,3.84,-0.3631984717906005,-2.056499560615326,-1.7187597561502161,0.0013267846289460733,0.01607633365379138,0.01607633365379138
385,3.85,0.026678709860319005,-2.2038853830236,-0.9381182811351255,-0.05352192783797202,0.0049373021824925456,0.0049373021824925456
386,3.86,-0.055378411597823654,0.5009977210429646,0.7539143396792598,-0.05766040279697322,-0.00174979843896977,-0.00174979843896977
387,3.87,-0.3064356427774883,2.650861372233429,1.4425411323520816,-0.004281038602321471,0.0035883105254887297,0.0035883105254887297
388,3.88,-0.03767529818593856,1.9283993943409636,0.8725098147978878,0.06265037750536358,0.018905555758430545,0.018905555758430545
389,3.89,0.4360535856566843,-0.514142531701013,-0.5253781991972344,0.07994033641705886,0.026116967194609368,0.026116967194609368
390,3.9,0.3211427422614109,-1.6332743678634485,-1.376244105063477,0.033888148990624783,0.026598386843104702,0.026598386843104702
391,3.91,-0.2958698348347512,-0.6957356949773739,-0.7499105659618404,-0.040960292167303465,0.01867664764788742,0.01867664764788742
392,3.92,-0.5861014425406592,0.4425678422734849,0.23158968501086896,-0.06876923676608103,0.011265632245075615,0.011265632245075615
393,3.93,-0.2501266324645457,0.5797366968804136,0.8589273888135797,-0.034360052834788136,0.016134644722668876,0.016134644722668876
394,3.94,0.07020872286094265,-0.11592474710942453,0.6449407682960977,0.017234152947177797,0.02457197390337151,0.02457197390337151
395,3.95,0.15727302053425074,-0.4281521973112705,-0.24143714357829632,0.049909641097364274,0.03045137745404438,0.03045137745404438
396,3.96,0.23803515148076942,0.13946211275349038,-0.6508276895687495,0.040786221894069004,0.030387524479257914,0.030387524479257914
397,3.97,0.04667627569420152,0.7061878877065197,-0.3745727822708036,0.008943363691049235,0.02588611157975693,0.02588611157975693
398,3.98,-0.2968583871021466,0.44365102948890534,0.13755375415244286,-0.020265621815365408,0.023025554234612437,0.023025554234612437
399,3.99,-0.21740726365470514,-0.35702742760450795,0.23800065455016306,-0.03103015942245532,0.024173872418344573,0.024173872418344573
400,4.0,0.017338512441999576,-0.790088578108016,-0.22105578146864582,-0.02097077287031488,0.028375962305220163,0.028375962305220163
401,4.01,-0.22227927509796203,-0.6090715958476183,-0.3893117989672121,-0.004582425123513147,0.0264451341265464,0.0264451341265464
402,4.02,-0.21001336463916512,-0.16063881705808494,-0.38266462212538666,0.013752264238770314,0.02204465874794879,0.02204465874794879
403,4.03,0.3469106929234934,0.20286168906237423,-0.06127322894183648,0.023192111187259036,0.02211564023904404,0.02211564023904404
404,4.04,0.393326491676052,0.2884495215163924,0.1534579881658649,0.010546937133350396,0.021757417509158963,0.021757417509158963
405,4.05,-0.3175034081063769,-0.055905704433510645,0.16701747479487236,-0.012515350385180958,0.020917863322280482,0.020917863322280482
406,4.06,-0.6243619602822326,-0.579108087557312,0.019667903723116748,-0.029145402830144117,0.021225604634434552,0.021225604634434552
407,4.07,0.00932152221390184,-0.656169447885413,-0.2884677104850703,-0.02773704639839864,0.023131234618387682,0.023131234618387682
408,4.08,0.344952056396795,-0.06618803446641491,-0.13004716874623945,-0.008850280290611561,0.019965758642966503,0.019965758642966503
409,4.09,0.07457676668910065,0.574700228359074,0.003420360530944494,0.013807804545318485,0.012601665823573908,0.012601665823573908
410,4.1,-0.14472833467961177,0.6278468246769862,0.20250098132171948,0.02037180699614137,0.011931627926056171,0.011931627926056171
411,4.11,-0.23787787438415245,0.0628774502422362,0.027519503885501652,0.006589154027482107,0.013530205247920887,0.013530205247920887
412,4.12,-0.16259790745848196,-0.5445372127249029,-0.3496343613029628,-0.02257620736405851,0.010527877697309571,0.010527877697309571
413,4.13,0.06050469914665893,-0.6169919678521544,-0.34645795133296314,-0.04303964333067158,0.002944802228681527,0.002944802228681527
414,4.14,0.32223840878442916,-0.07596890731036493,-0.03595255286997506,-0.0349950159791264,-0.00738407280470964,-0.00738407280470964
415,4.15,0.20047221994759462,0.6167873771046236,0.6777327116110017,-0.005494239188098196,-0.014422949286804059,-0.014422949286804059
416,4.16,-0.12561334791349552,0.895170152155353,0.9434993365527041,0.026969328722229204,-0.015441752177044013,-0.015441752177044013
417,4.17,-0.005638096600953879,0.6258555146135092,0.5147259847029871,0.033810702262584626,-0.013790908979669659,-0.013790908979669659
418,4.18,0.4196973439223449,-0.11115224707753096,-0.3986177903282472,0.003082700040092555,-0.013029242535952302,-0.013029242535952302
419,4.19,0.2982712614021741,-0.8011050862403666,-0.8511661581711572,-0.04843791387707154,-0.020004280426100626,-0.020004280426100626
420,4.2,-0.12611901906082051,-0.6353905694071683,-0.4026890259625183,-0.06873763325179012,-0.029560511434318808,-0.029560511434318808
421,4.21,-0.15070538687846563,0.2840811136833852,0.2590507895641385,-0.03958916733461144,-0.03214793800108428,-0.03214793800108428
422,4.22,-0.6648535936319302,0.5933363207911074,0.6207277504376338,0.01269432266040572,-0.0279210917422614,-0.0279210917422614
423,4.23,-0.9475464367387731,-0.28525558536994855,0.12306852830282622,0.039703550280742295,-0.026590048145620576,-0.026590048145620576
424,4.24,0.32222411287179525,-1.1009882564585611,-0.5865768903102698,0.016867008373160082,-0.03523668904712414,-0.03523668904712414
425,4.25,1.8599253170394068,-0.4796538594953167,-0.7121470398816617,-0.030619079067187725,-0.04526769443879662,-0.04526769443879662
426,4.26,1.1742813504224883,0.9716332285298952,0.31451646405625494,-0.040719845604512785,-0.04818508277735236,-0.04818508277735236
427,4.27,-0.9506028994290473,1.2120600445197969,1.1995291640358632,0.0013825634810722095,-0.04020134568354994,-0.04020134568354994
428,4.28,-1.4047277338604507,-0.11598774177457405,0.7673918136674025,0.05181408308595236,-0.028191967771424367,-0.028191967771424367
429,4.29,-0.1550007696975867,-0.995870099420693,-0.5468349771863606,0.061249648343824015,-0.0201791804138074,-0.0201791804138074
430,4.3,0.5476143084788577,0.003806127999964465,-1.429858980088473,0.036250915986035095,-0.02235994989399981,-0.02235994989399981
431,4.31,0.13065095775511645,1.4770644751667539,-0.7177482038801744,0.02102812837908669,-0.03177370774935636,-0.03177370774935636
432,4.32,0.03397933481565529,1.3530682188055443,0.3990521403798424,0.028544812380053887,-0.036135510671869465,-0.036135510671869465
433,4.33,0.35741539827239405,-0.45635856403666,1.0263271156112772,0.03339705435362411,-0.02650145121451125,-0.02650145121451125
434,4.34,0.09770338661740491,-2.0935575511142286,0.8205026175841661,0.009440703443374172,-0.010126046361084473,-0.010126046361084473
435,4.35,-0.4265866037524252,-1.7662336095114846,-0.05863556084940119,-0.01579874843662671,9.690823280165789e-05,9.690823280165789e-05
436,4.36,-0.3463470154196709,0.11661425702076184,-0.5622022932178529,-0.004369721754937512,0.003127440038508412,0.003127440038508412
437,4.37,0.23330471654276502,1.4312654524862456,-0.45109113263875233,0.0417362037032009,-6.260606513878346e-05,-6.260606513878346e-05
438,4.38,0.34205167635643685,0.9983973788224471,0.3292300710038848,0.07689130733062277,0.002015570534066237,0.002015570534066237
439,4.39,0.15248564487209634,-0.4693609927566734,0.741654233478775,0.06484932336886615,0.01139297016437947,0.01139297016437947
440,4.4,0.1533448657663532,-1.2254244152207365,0.42686951896086633,0.007260039230057982,0.021967889256975744,0.021967889256975744
441,4.41,0.1859769736805548,-0.7222466445838643,-0.14913539057842595,-0.04559034905515527,0.031703527291036565,0.031703527291036565
442,4.42,0.08204961436500238,0.40107975852941286,-0.5393743787301946,-0.03962478396738815,0.035751923413340825,0.035751923413340825
443,4.43,0.07537138336894304,0.9728346341260207,-0.23255035682777075,0.014571225968090375,0.03663213710900107,0.03663213710900107
444,4.44,0.3228761930157321,0.5132079876034135,0.07203826926789181,0.06934807814630445,0.04237429148824553,0.04237429148824553
445,4.45,0.10175507582921187,-0.2571707564301091,0.34879286610782967,0.07596916091461213,0.053591446818258524,0.053591446818258524
446,4.46,-0.5458486135169849,-0.4334857259159187,0.28475321033049705,0.034753866883863754,0.062285277796752025,0.062285277796752025
447,4.47,-0.4907183165051458,0.14619615493565466,-0.16700808316613397,-0.014806451371980488,0.06585743199048617,0.06585743199048617
448,4.48,0.4574576929415922,0.6534141485462988,-0.6496459037397148,-0.025939881160105326,0.06401225052106352,0.06401225052106352
449,4.49,0.7635387113836073,0.5052773406547616,-0.637513696106158,0.010335122416613959,0.06125134185299984,0.06125134185299984
450,4.5,-0.19717134752397114,-0.0710777318266353,-0.06572345562746978,0.0496012924583087,0.05983833428841414,0.05983833428841414
451,4.51,-0.8033896016607744,-0.1478322854092335,0.42951450574439026,0.05750582975345324,0.061001902067218325,0.061001902067218325
452,4.52,-0.48022581326917646,0.4479232149141475,1.2137208881928774,0.03772689556128658,0.06148395493486414,0.06148395493486414
453,4.53,0.3131097329479888,0.7742681522410713,1.325758764770252,0.013092485439896035,0.0594361753451574,0.0594361753451574
454,4.54,1.2931833302455253,0.27636914999462453,0.17701219667547352,-0.0031690938348197923,0.06627992333701375,0.06627992333701375
455,4.55,0.9382199981644057,-0.7802705583654096,-1.5463974978533266,-0.007762568212852664,0.08018820996035045,0.08018820996035045
456,4.56,-1.5364215551580507,-1.2841906700661374,-2.056181496673012,-0.012795793470265451,0.07853094291034836,0.07853094291034836
457,4.57,-3.082861942689213,-0.465992047536948,-1.1632471409961957,-0.01332459723068103,0.059964028289972285,0.059964028289972285
458,4.58,-0.8832935150985358,1.038975286614865,-0.04888977720466969,0.005709410361982728,0.04598596062959636,0.04598596062959636
459,4.59,2.189876572940029,1.5326013360087003,0.8966274803942604,0.028292104293370264,0.03889495314698599,0.03889495314698599
460,4.6,1.4404819354415337,0.1493820120656395,1.4559604044453818,0.018933489332789717,0.03261901703559307,0.03261901703559307
461,4.61,-1.3179323390224242,-1.620506822944932,1.0704323157496924,-0.03010313479757808,0.03409378873202185,0.03409378873202185
462,4.62,-1.384569963938332,-1.6495276169239295,0.2715295129273355,-0.07623842569461058,0.03913226852761774,0.03913226852761774
463,4.63,0.7566979231273187,0.16230935343978753,-1.2253052689295378,-0.07310738891451281,0.03471253942865396,0.03471253942865396
464,4.64,0.8586772542604664,1.4182868818957646,-1.6263537479883847,-0.021689944600677382,0.027354312340836028,0.027354312340836028
465,4.65,-1.3035007640656078,0.705687177131759,-0.4387770563730246,0.032433259722118815,0.012782606219271887,0.012782606219271887
466,4.66,-1.7066740236963696,-0.7324810070607216,0.45225614153164273,0.033854823521527036,-0.00426602975459244,-0.00426602975459244
467,4.67,0.5654665921048636,-1.0009462141740975,0.8060506949956894,-0.01852181915106918,-0.009813765371986263,-0.009813765371986263
468,4.68,1.8750306954489673,0.08190180476656028,0.4424864258225493,-0.07381253910336491,-0.011861152344927364,-0.011861152344927364
469,4.69,0.2577842158670767,0.8509520350497977,0.22350396829768304,-0.07944387907160297,-0.013529503802427277,-0.013529503802427277
470,4.7,-1.1979206517003338,0.07051503567893744,0.015277372469801653,-0.04283186378311607,-0.01864196124910096,-0.01864196124910096
471,4.71,-0.24941188251635862,-1.173678821322832,-0.5548943528741833,-0.009351552917385372,-0.026081842897666786,-0.026081842897666786
472,4.72,0.991418481458106,-1.114007026573301,-0.734569840922636,-0.007094688300726419,-0.030261150722017894,-0.030261150722017894
473,4.73,0.3627813327338272,0.22656927323525416,-0.5471544057611508,-0.02678880215358612,-0.036264436761208614,-0.036264436761208614
474,4.74,-0.6894547645070946,1.2695928439306596,-0.2039716426824526,-0.03713557303660067,-0.04428397865475607,-0.04428397865475607
475,4.75,-0.23597591670862766,0.9712006897477254,-0.1490954425543503,-0.03408392226878098,-0.04917921062403752,-0.04917921062403752
476,4.76,0.7121597143716717,-0.2658497179350313,0.07029810769693504,-0.03476503991386133,-0.05521562265337585,-0.05521562265337585
477,4.77,0.8440270269640744,-1.336918670380316,0.5178028723544574,-0.049281993268695236,-0.06367403497072507,-0.06367403497072507
478,4.78,0.6421726639435295,-1.324160034940857,0.8347301005068022,-0.05797756629828962,-0.06720347267271835,-0.06720347267271835
479,4.79,0.5379296888578371,-0.2870550042125699,0.7217706762492182,-0.04365642715669235,-0.06460277059309393,-0.06460277059309393
480,4.8,0.05971021078230121,0.9724828127320035,-0.046979764202656316,-0.011021011021798092,-0.056353732946934625,-0.056353732946934625
481,4.81,-0.5852032826310039,1.6812311226412902,-0.5348613271069931,0.02883106962925868,-0.05158532643608759,-0.05158532643608759
482,4.82,-0.33234324847364816,1.5179949810543771,-0.703953742622871,0.04315592361213765,-0.05793200142500225,-0.05793200142500225
483,4.83,0.7098667742541622,0.5704659413053539,-0.3828570627486474,0.021434071365174626,-0.06638420999394365,-0.06638420999394365
484,4.84,1.0189769718449737,-0.6516751014741848,0.4278036519632791,-0.02256666654621961,-0.06962101227123202,-0.06962101227123202
485,4.85,0.2511119771016984,-1.1717662672777254,0.8010545885181213,-0.060995774859063566,-0.06732300301883566,-0.06732300301883566
486,4.86,-0.35212785856069334,-0.719831307201751,0.7592637553886143,-0.05936738301202427,-0.058828600326612863,-0.058828600326612863
487,4.87,-0.08675490773207745,-0.113748704550755,0.2445725191415435,-0.020494276169292662,-0.05494680158027124,-0.05494680158027124
488,4.88,0.4126087985695033,-0.0022728642603161986,-0.13880381507701367,0.026929855257076377,-0.05466311663449723,-0.05466311663449723
489,4.89,0.3282639611950191,-0.2713119340551121,0.06705297559860415,0.042332214520513424,-0.05231456931141815,-0.05231456931141815
490,4.9,-0.2975250605858323,-0.5455704448431596,0.5411118102083478,0.01856623815790696,-0.050396812484753035,-0.050396812484753035
491,4.91,-0.5370859546030249,-0.4628079415282087,0.8558532887591994,-0.022876575140964986,-0.04963546924962218,-0.04963546924962218
492,4.92,0.16121210755460363,-0.0924353005097871,0.522975531619023,-0.05051765024569474,-0.04466655543403367,-0.04466655543403367
493,4.93,0.7278538139294175,0.2810916201129223,-0.05436243235807964,-0.033564619232566574,-0.03725755532686257,-0.03725755532686257
494,4.94,0.0713041156763172,0.3583460671116876,-0.19053856943444453,0.009972619778530829,-0.03413182341180477,-0.03413182341180477
495,4.95,-0.8513471914995374,0.19242008712699846,0.0781656468958429,0.03646442699196,-0.03469284311120893,-0.03469284311120893
496,4.96,-0.6149637729451858,0.20022537295991572,0.4708236175636873,0.02589887998216722,-0.034834263577804725,-0.034834263577804725
497,4.97,0.29407254587974785,0.4949098617476727,0.3405567411414614,-0.002190752235285989,-0.031716329576152405,-0.031716329576152405
498,4.98,0.3069797455075828,0.8158506127867907,-0.0733996431775727,-0.02159412680290785,-0.022919578169732426,-0.022919578169732426
499,4.99,-0.4886093806143019,0.5995076849053584,-0.4466014208613093,-0.02341965889167009,-0.020282368232202908,-0.020282368232202908
500,5.0,-0.628977203647679,-0.18205610142344686,-0.5819297819892238,-0.012968932168294974,-0.019273835201489575,-0.019273835201489575
501,5.01,-0.183805548699312,-0.6441017748538113,-0.21049228967990435,-0.00804356858849668,-0.019482048741571462,-0.019482048741571462
502,5.02,-0.18033801472074512,-0.042710767380141346,0.09436897603121314,-0.012368596232651123,-0.018136086113250474,-0.018136086113250474
503,5.03,-0.5178850833005166,0.9284458586142459,0.006566086859966402,-0.011429586066620373,-0.010353605486504106,-0.010353605486504106
504,5.04,-0.5392631299862618,0.9014304206370479,-0.49282503078953327,-0.01030936684899762,-0.006583830778870654,-0.006583830778870654
505,5.05,-0.2907823378994898,0.005838679854562379,-0.9412336148547105,-0.022258332535073973,-0.005951331837528453,-0.005951331837528453
506,5.06,-0.06534657230281385,-0.473921716010519,-0.7712017800070947,-0.04128088158355927,-0.005072260970268744,-0.005072260970268744
507,5.07,-0.04023822579238673,-0.17516223547612858,-0.30585870258412695,-0.0478598120793484,-0.004114256505579947,-0.004114256505579947
508,5.08,-0.27728460797095406,0.08679361450185002,-0.06379885762457183,-0.03223496260883703,0.0017753596747499825,0.0017753596747499825
509,5.09,-0.40725093842662496,-0.11103883962196806,-0.354505656186732,-0.007678113039422898,0.008917710788807546,0.008917710788807546
510,5.1,-0.3051350892223114,-0.26988498935106764,-0.8584319213244032,0.005841651701516855,0.0158626590303304,0.0158626590303304
511,5.11,-0.34974844279824047,-0.05072482319328611,-0.9480951725907061,-0.0014428508936232248,0.01738587351026484,0.01738587351026484
512,5.12,-0.3869812339866402,0.3069737466975293,-0.43991826086733254,-0.017882189540872492,0.010912514667743834,0.010912514667743834
513,5.13,0.06785180737360318,0.5874660745954581,0.19494769271509454,-0.023478911609176544,0.008916968491322659,0.008916968491322659
514,5.14,0.441957339764579,0.5917012705003608,0.5316739005096498,-0.012533173106392495,0.012065242356485466,0.012065242356485466
515,5.15,0.1451494432915891,-0.08935629098721809,0.3251528775720809,-0.002637778476594076,0.020246428637741874,0.020246428637741874
516,5.16,-0.05662281031343405,-0.9960846644467755,-0.32713387172259634,-0.009446082484405248,0.027013632697897645,0.027013632697897645
517,5.17,0.21223540420397588,-1.2071965696841473,-0.6823742800779744,-0.02594421599294724,0.02734526059368528,0.02734526059368528
518,5.18,0.1948792239882484,-0.5942479721437917,-0.45238769173673454,-0.030132461428913813,0.026918843474281987,0.026918843474281987
519,5.19,-0.1758055225226859,0.18257101429896516,0.16277748565221645,-0.007992369479219396,0.025665557372889718,0.025665557372889718
520,5.2,-0.03227344212623745,0.42248352797960426,0.48319381318285326,0.023917257751336327,0.028505060377782294,0.028505060377782294
521,5.21,0.5282040918898432,-0.029382879513084215,0.29721666313565714,0.030836499731900145,0.030429687955740192,0.030429687955740192
522,5.22,0.5641270886449666,-0.7523808034941195,0.140525467424137,0.005301598271484367,0.029702041525648388,0.029702041525648388
523,5.23,0.11001057052832933,-0.9524903492918153,0.3037280322953483,-0.0296611262138833,0.029062064578782017,0.029062064578782017
524,5.24,0.14215538712170084,-0.5105625722084606,0.56317495860921,-0.0373204197476642,0.0260169999790065,0.0260169999790065
525,5.25,0.6637300171858481,-0.14953661772738205,0.6512333617737858,-0.01328661284002056,0.025636707737146613,0.025636707737146613
526,5.26,0.706455427851238,-0.25795824776456194,0.5061033109320089,0.022152912962505274,0.029762899039004306,0.029762899039004306
527,5.27,0.13620629460872222,-0.18861576231815413,0.41319971934697663,0.04307852303507004,0.032552810908080355,0.032552810908080355
528,5.28,-0.04448340093173281,0.42455074561022427,0.2635687453358242,0.033187374672699214,0.030234885408334376,0.030234885408334376
529,5.29,0.41089075235646183,0.851130785290063,0.14736308872045661,0.01261590204558637,0.02567466371026872,0.02567466371026872
530,5.3,0.5731220523696713,0.2830242968345608,0.23546790259356248,-0.0064736602685293325,0.023576414358223025,0.023576414358223025
531,5.31,0.24806769384430333,-0.7110311043619358,0.4438235958716808,-0.020207775300991142,0.020416266744654712,0.020416266744654712
532,5.32,-0.00018691408952076216,-0.8376813290052355,0.5866932987407387,-0.020774533065852644,0.01815612843143009,0.01815612843143009
533,5.33,0.23513809933841917,-0.10404499833914005,0.26685456215439346,0.0006514442151550719,0.01974758035317485,0.01974758035317485
534,5.34,0.4635904575527787,0.47171521135078787,0.04348215274644246,0.034030794858903306,0.02163880116651669,0.02163880116651669
535,5.35,0.07379660243281413,0.3968406475926708,0.09822301382441243,0.046651748913685,0.018270846078046632,0.018270846078046632
536,5.36,-0.2998597480989981,0.23038686713301365,0.2774121175888541,0.029499817378586736,0.010631629160809387,0.010631629160809387
537,5.37,-0.02213246321670121,0.4910549081981778,0.3695868535084362,0.004277296462607995,0.00853818827124505,0.00853818827124505
538,5.38,0.2884355221741157,0.702517406640789,0.10352124094086898,-0.006004146734852847,0.00835667518564088,0.00835667518564088
539,5.39,-0.06988278510440266,0.2776444500645141,-0.12331482571481657,0.0054519120925771635,0.006988769904293036,0.006988769904293036
540,5.4,-0.4525144760632695,-0.28205550288637515,-0.24306217813295397,0.023036206430019524,0.00422978808941071,0.00422978808941071
541,5.41,-0.2500654310244796,-0.19091379248062934,-0.18895664849443367,0.02886103445560485,-0.00023659623584487656,-0.00023659623584487656
542,5.42,-0.02342496087812207,0.3689241620023859,-0.09505510302278514,0.021947937792572484,-0.002559625426153825,-0.002559625426153825
543,5.43,-0.25252116921187845,0.7984421088998683,0.013196379213538056,0.019604706263411608,-0.004010511762845536,-0.004010511762845536
544,5.44,-0.5458950188329383,0.7355965669961526,0.11985520229569113,0.025851003169320198,-0.0056623310244034615,-0.0056623310244034615
545,5.45,-0.33374044117595647,0.29336641297084554,-0.023400789292645552,0.026785474758272518,-0.008947151660933114,-0.008947151660933114
546,5.46,0.10734960406438326,-0.03478343994699121,-0.2504994462840673,0.020735197630516868,-0.011398016399574357,-0.011398016399574357
547,5.47,0.0367786135039887,0.11140870334855466,-0.434527812110975,0.014411031047654087,-0.010655699482933087,-0.010655699482933087
548,5.48,-0.6231739015114396,0.4925919610517977,-0.3887210986940055,0.017687932112132498,-0.013442917594193565,-0.013442917594193565
549,5.49,-0.8678998405561227,0.43279605958376854,-0.27864910159314216,0.02692106100644391,-0.017238285373852545,-0.017238285373852545
550,5.5,-0.22431846502630573,-0.17299682682649162,-0.39601939556954424,0.028035181266358903,-0.018133523748548114,-0.018133523748548114
551,5.51,0.21346661034377845,-0.6304163541004714,-0.3652547256236899,0.009972084982238541,-0.0204653513760552,-0.0204653513760552
552,5.52,-0.21112025024021547,-0.3575577929393364,-0.10225459544727378,-0.010265809133622315,-0.024058126056082773,-0.024058126056082773
553,5.53,-0.49282404362524823,0.30013700320703846,0.0913738203365102,-0.007449533129004473,-0.02858504104363605,-0.02858504104363605
554,5.54,0.027997141490687327,0.4667612448011181,-0.10753456383579002,0.01587073993452816,-0.026468136440677748,-0.026468136440677748
555,5.55,0.39389253320979856,-0.14903063277346618,-0.4604953119890668,0.028823694169018706,-0.022367181340696048,-0.022367181340696048
556,5.56,-0.11193140463061703,-0.9078394067139894,-0.5469216999073742,0.012279636586037332,-0.022753843118463242,-0.022753843118463242
557,5.57,-0.6959630543582447,-0.8563115739330655,-0.27207016762054737,-0.017193902177562143,-0.026025205714393932,-0.026025205714393932
558,5.58,-0.38950986487122,-0.07606869831157165,-0.03495757988567655,-0.0256839448878113,-0.027689330707730157,-0.027689330707730157
559,5.59,0.36859809289073564,0.46601759619120586,-0.10915733490313734,-0.002698574640837441,-0.029710517415623243,-0.029710517415623243
560,5.6,0.5740563505454626,0.13570819075976426,-0.2004930465274376,0.02727746829975801,-0.031694378504258394,-0.031694378504258394
561,5.61,0.06238264009476718,-0.4138516359748037,-0.10349344618799078,0.02842602125774073,-0.031201078485882494,-0.031201078485882494
562,5.62,-0.31478514051122447,-0.276810300469304,0.0417077276724494,-0.0011226985657536367,-0.030993210578042295,-0.030993210578042295
563,5.63,-0.046319006425301096,0.20349230885659483,0.07379993304998166,-0.027683752308494985,-0.02968023799620821,-0.02968023799620821
564,5.64,0.3977896415960872,0.08330685681931055,-0.12345417902908201,-0.024636750188908842,-0.03122179121818653,-0.03122179121818653
565,5.65,0.43797334639422236,-0.5016768035977752,-0.18195347073015522,-0.005171965468636977,-0.032860391422307025,-0.032860391422307025
566,5.66,0.08074665926487748,-0.6399481293950564,0.05981518803778619,0.00782392244604685,-0.03328679822916286,-0.03328679822916286
567,5.67,-0.010405612923888988,-0.23087988578364665,0.18207362681228845,0.008841547260478052,-0.030832701480261668,-0.030832701480261668
568,5.68,0.28154008801720626,0.10805829046697876,0.11120795906161621,-0.0030826776832412147,-0.0237046598607646,-0.0237046598607646
569,5.69,0.14965128377061465,0.02860940139815507,-0.14529943906798143,-0.017399874021368132,-0.016308923744708718,-0.016308923744708718
570,5.7,-0.536496796932691,-0.23494342303931803,-0.07151285512672742,-0.028336136063700064,-0.016886772858502153,-0.016886772858502153
571,5.71,-0.5060393301940336,-0.2840984773930541,0.12488171060497352,-0.02829763962672044,-0.02161257621472699,-0.02161257621472699
572,5.72,0.358637864080097,0.006121160966960512,0.3166541980735524,-0.01266766248372912,-0.02064864998915016,-0.02064864998915016
573,5.73,0.7013287084595745,0.3879259671801373,0.4640460000258529,0.008212171636948493,-0.016522738403065642,-0.016522738403065642
574,5.74,0.2332187669602463,0.29944554887510916,0.4881963394948873,0.012377432728687444,-0.01445754101753701,-0.01445754101753701
575,5.75,0.1432049796446087,-0.25815221309088116,0.33878078259485467,-0.008942968728753876,-0.013259099082786843,-0.013259099082786843
576,5.76,0.3921199052170511,-0.6919427062201313,0.19426095672299692,-0.03806816047174853,-0.01004826367396633,-0.01004826367396633
577,5.77,-0.004253061486286097,-0.47412215348693665,0.17380007398408223,-0.048213627424136124,-0.008463217658328411,-0.008463217658328411
578,5.78,-0.451406907357204,0.24123598688269224,0.1592012148471434,-0.02679991687440469,-0.006079472693739731,-0.006079472693739731
579,5.79,-0.04604396074912663,0.8246691037932665,0.03971112154432552,0.015049867637501829,-0.005746419628381232,-0.005746419628381232
580,5.8,0.4561576018322279,0.7193746726805517,-0.012117575578234285,0.04047696938008751,-0.007227667553077905,-0.007227667553077905
581,5.81,0.29431568432290933,0.14823195397763017,0.1782776247761378,0.023930278101667483,-0.008243618003040585,-0.008243618003040585
582,5.82,0.1116346862999929,-0.22870062003948388,0.3513926990707321,-0.017954151739636638,-0.008078329247042895,-0.008078329247042895
583,5.83,0.26646446841440763,-0.2590396110664164,0.2677623222277401,-0.05429899573818611,-0.0072463143840268765,-0.0072463143840268765
584,5.84,0.13832320943835213,-0.16504168785343998,0.11208199958076882,-0.05279429283652237,-0.0031756700631255354,-0.0031756700631255354
585,5.85,-0.3586127766381759,-0.09900040239785293,0.06309329602250928,-0.02176520436554056,0.0003588033750433453,0.0003588033750433453
586,5.86,-0.3742242293705289,-0.021669870540988734,0.03989978078596682,0.01481820585687152,-0.002911194697954104,-0.002911194697954104
587,5.87,0.4006836383229218,0.13949329684344378,-0.05118431381201902,0.024638453036212787,-0.00510298473651867,-0.00510298473651867
588,5.88,0.6777003269555253,0.2674256622011732,-0.03505660542087923,0.0016073519542741663,-0.00374434178232108,-0.00374434178232108
589,5.89,-0.19257408299742063,0.21735959027745566,0.11280483199617303,-0.027779968937667737,-0.0008458883057673562,-0.0008458883057673562
590,5.9,-0.7672493876811413,0.06235436665004805,0.009081247118320993,-0.04429889195402535,0.0009316460239484484,0.0009316460239484484
591,5.91,-0.3498098354419932,-0.005715652619624728,-0.33500302264396564,-0.03714385553984303,0.0008444384476101079,0.0008444384476101079
592,5.92,-0.026221754693306676,0.08686480373260737,-0.44426890655913287,-0.01022794677461534,-0.002278220867442865,-0.002278220867442865
593,5.93,-0.2814886373293995,0.2621675217011026,-0.05184369419026637,0.015506074597810691,-0.007576998699939206,-0.007576998699939206
594,5.94,-0.10495850553643402,0.4061431413920237,0.20048217724176703,0.019385740418389176,-0.007518469301895506,-0.007518469301895506
595,5.95,0.488804497314794,0.41860708910167554,0.050076759514853436,0.004740607848489956,-0.0014475034242844905,-0.0014475034242844905
596,5.96,0.2605816617185309,0.317190441341744,-0.2758797369050632,-0.016384141107659383,0.0009861317620070175,0.0009861317620070175
597,5.97,-0.6441766666210922,0.1032129780348619,-0.4392818961104469,-0.02841903994688576,0.0015090945138842894,0.0015090945138842894
598,5.98,-0.8528683644185504,-0.16276379681395753,-0.35319782747534795,-0.021215275342741476,0.000829021782808341,0.000829021782808341
599,5.99,-0.18851502085729419,-0.2171758116396425,-0.26787981359406926,-0.0022674202167014147,-0.002568963877288273,-0.002568963877288273
600,6.0,0.45897093584980203,0.22106120877209862,-0.13510457604851417,0.014134456085284953,-0.0043683641800295655,-0.0043683641800295655
601,6.01,0.25129431931641866,0.7146201334964193,0.09950696785579694,0.014530106600541147,-0.003236092786591748,-0.003236092786591748
602,6.02,-0.34539233091998056,0.43862931480152156,0.048265157462099265,0.0029711917115864154,-3.2429482166181606e-05,-3.2429482166181606e-05
603,6.03,-0.3123432969712983,-0.3674081215177197,-0.22738171072478117,-0.015173852479959782,0.0029738225540991998,0.0029738225540991998
604,6.04,0.08570296742249481,-0.9571187761750056,-0.5475649326189255,-0.03176685857422865,0.0018188683402133425,0.0018188683402133425
605,6.05,0.0023429487985581476,-0.9383663215686173,-0.3041681938859063,-0.031810336120904885,-0.003433036165631505,-0.003433036165631505
606,6.06,-0.3299177678424186,-0.3163011394438254,0.564464392038246,-0.014953161469199337,-0.012391832545258896,-0.012391832545258896
607,6.07,0.07686021980785501,0.5532233933521321,0.9821118842541553,0.015600949659969925,-0.014360872912202763,-0.014360872912202763
608,6.08,0.8226275675592498,1.1613323861028415,0.7327725590004935,0.04006391379625082,-0.0061137913982236645,-0.0061137913982236645
609,6.09,0.6608283232390461,0.7110684388219157,0.06312810843035355,0.03306058490060046,-0.0011315992670381195,-0.0011315992670381195
610,6.1,-0.02600207511403385,-0.664559798951553,-0.6208740973161802,-0.01074072680983229,0.001658462166141102,0.001658462166141102
611,6.11,-0.23204938916373943,-1.6903314444163027,-0.7340710911514812,-0.06534345299162038,0.001969518862596254,0.001969518862596254
612,6.12,-0.18860950201897483,-1.439972478520642,-0.5156034762950628,-0.07833266285419647,0.003317473398393733,0.003317473398393733
613,6.13,-0.3743716296064247,-0.423263226543077,0.12076682499683011,-0.04431250735585178,0.0040640972144616655,0.0040640972144616655
614,6.14,-0.5000375584252471,0.3472536655314894,0.6057934003576788,0.012378646036595643,0.003313522290275013,0.003313522290275013
615,6.15,8.396394080079084e-05,0.8134471789756563,0.3562728807472464,0.05925120778310515,0.00741795917896607,0.00741795917896607
616,6.16,0.5496596106656261,1.1726297942633412,-0.012395845480283163,0.05980545262682789,0.012081375533097221,0.012081375533097221
617,6.17,0.2759125197011749,1.1217738316301544,-0.3591129071371393,0.02830323316001902,0.011089628742087305,0.011089628742087305
618,6.18,-0.12061409256855746,0.12292198616710726,-0.4582959021724309,-0.013446243336645498,0.009449341443650009,0.009449341443650009
619,6.19,0.12496556835192772,-1.3065915849423702,-0.3697110646248358,-0.059317766839734686,0.00987419208065679,0.00987419208065679
620,6.2,0.270883771193842,-1.795171321720304,-0.2513240978832115,-0.07514653302080425,0.009723301593300131,0.009723301593300131
621,6.21,-0.17129978767065845,-0.8336149192476623,0.2028150538688258,-0.053953018398993226,0.009859767291108887,0.009859767291108887
622,6.22,-0.27641400266978067,0.5876014266153016,0.5836830161292929,-0.008000265353054835,0.0069058391252626175,0.0069058391252626175
623,6.23,0.5481913420059065,1.16177377531546,0.4530362445800501,0.03617718785236873,0.007048885102335819,0.007048885102335819
624,6.24,0.986909751898551,0.5454814892556712,0.11158982102863438,0.04112828323137857,0.007861505390712207,0.007861505390712207
625,6.25,0.08203512451266301,-0.35262551222565425,-0.07559814552123556,0.004742700167869242,0.006426114645632773,0.006426114645632773
626,6.26,-0.8668300383619126,-0.7049341482634421,0.04800717240740107,-0.055006982330360464,0.0038858781097812203,0.0038858781097812203
627,6.27,-0.5257593650644113,-0.43318653694724135,0.177349482369916,-0.08865918236716826,-0.000245698104917778,-0.000245698104917778
628,6.28,0.3693745878854311,0.24091247654822207,0.24694339351485972,-0.06933139975317204,-0.001742999306360561,-0.001742999306360561
629,6.29,0.4532329567778784,0.594145199223792,0.30521001398782244,-0.01891296374394997,-0.0008703626534361282,-0.0008703626534361282
630,6.3,0.02280121947382041,0.320581768757343,0.18074593868751548,0.02326396429820825,0.0010609570062018374,0.0010609570062018374
631,6.31,-0.04160200291493735,-0.25054764217385644,-0.011139896681860578,0.022458278319740253,-0.0006199720448798808,-0.0006199720448798808
632,6.32,0.06343911452440558,-0.3578320476363176,-0.19967096226875752,-0.012660844478885672,-0.0006471553903520023,-0.0006471553903520023
633,6.33,-0.23695202395161008,0.30123225430045825,-0.14353041079902318,-0.049980693818401374,-0.0002596454525638772,-0.0002596454525638772
634,6.34,-0.6260419158958641,0.9175975113294703,-0.05939704219696254,-0.04938512733124765,0.00044438065731370116,0.00044438065731370116
635,6.35,-0.5991539898932933,0.7552967761591758,-0.02568115671364392,-0.00939245940667029,0.0006706817520627166,0.0006706817520627166
636,6.36,-0.21489169918123277,-0.015681113338935404,0.05059548324863282,0.027116365499976782,-0.002567507469931085,-0.002567507469931085
637,6.37,0.21078447305738035,-0.5220879851736081,0.02243613965410531,0.024819442805189204,-0.004580226545545571,-0.004580226545545571
638,6.38,0.3462797030827087,-0.21100308838459425,0.007464408285143595,-0.004380486798761629,-0.002564961170207957,-0.002564961170207957
639,6.39,0.11216747837465124,0.3397226664854295,-0.08863600264246685,-0.026916395395765375,-0.0021581683347808465,-0.0021581683347808465
640,6.4,-0.2949542737731502,0.2828797319753861,-0.12970178807783778,-0.025394073114867882,-0.00170689290299297,-0.00170689290299297
641,6.41,-0.4477321535434978,-0.25495716041872224,-0.05943714485426174,-0.006820332883149493,-0.0004829867478272292,-0.0004829867478272292
642,6.42,-0.1668302322976413,-0.5910125424695928,-0.07801685424972579,0.011823503430370565,-0.0005512347781899508,-0.0005512347781899508
643,6.43,0.19092243669475706,-0.4001470670003038,-0.04350490401097384,0.01596447337077663,-0.0027617908856255114,-0.0027617908856255114
644,6.44,0.241883668855032,0.23652699721698572,0.017663184241165773,0.00548234772246177,-0.0032310165402110553,-0.0032310165402110553
645,6.45,0.19042443450584212,0.7414676687320654,0.00021336796257514362,-0.0035401876035143125,-0.001697644037227459,-0.001697644037227459
646,6.46,0.20296186672605707,0.6192193751988855,-0.088785767851821,-0.004578305664034578,-0.0004888413769884858,-0.0004888413769884858
647,6.47,0.059578127375402454,-0.014045811577673262,-0.3575583628235917,-0.007368967648827258,0.0010169241942276429,0.0010169241942276429
648,6.48,-0.23721581658590501,-0.7391009336687195,-0.4410260676211599,-0.015346221552712463,0.0010572193369356377,0.0010572193369356377
649,6.49,-0.3065667615412449,-1.136533222006893,-0.2721681153407866,-0.022037001757073158,-0.0037143091023786037,-0.0037143091023786037
650,6.5,-0.010065128459167766,-0.932562060147116,0.03176904333343261,-0.01905304547548055,-0.011392503564133922,-0.011392503564133922
651,6.51,0.3344733601639428,-0.19633171160729002,0.3730055522272557,-0.0045705717298288396,-0.01431624872138428,-0.01431624872138428
652,6.52,0.513435165132406,0.6177891422774191,0.7412413436362717,0.012531188017731287,-0.015890592563088494,-0.015890592563088494
653,6.53,0.426268494392532,1.0314591394258183,0.8566549971664656,0.019228107129554483,-0.01688568634353961,-0.01688568634353961
654,6.54,0.1777512311196146,0.948326304306556,0.5531372178115339,0.01075200353989863,-0.011468529680278686,-0.011468529680278686
655,6.55,0.02894634581372524,0.522894212105045,0.05560556998655397,-0.011297145514916562,-0.009136683675892644,-0.009136683675892644
656,6.56,0.06054577028581699,-0.26356332764315893,-0.6648949315946674,-0.035280224053645504,-0.010112935009803113,-0.010112935009803113
657,6.57,0.06886836928666008,-0.9729929356879392,-0.9576957737493303,-0.0438023694208166,-0.009883415461561443,-0.009883415461561443
658,6.58,-0.13226220917979356,-0.8477438785941108,-0.6442200169136963,-0.03416665057942835,-0.012225759134286435,-0.012225759134286435
659,6.59,-0.18306814602457783,0.06602884819736338,-0.2617097892387779,-0.012377221609439257,-0.013372176609600795,-0.013372176609600795
660,6.6,0.0017486227965010578,0.8914079822627372,-0.006226949394991577,0.016902569472372755,-0.008465574206919726,-0.008465574206919726
661,6.61,0.01892965253689856,0.7839917873822279,-0.1395613111891436,0.02726560986788511,-0.003095439153896813,-0.003095439153896813
662,6.62,-0.2846267154566185,0.002797685908825731,-0.27933480980852526,0.0039308557894621975,-0.0012873175543200721,-0.0012873175543200721
663,6.63,-0.47937752615157464,-0.37801345058866015,-0.21334144549501632,-0.033564243941340194,-0.004210504620355508,-0.004210504620355508
664,6.64,-0.21413550129398973,-0.0010429763973924498,-0.04351668776902054,-0.046069892807868426,-0.005415560538967988,-0.005415560538967988
665,6.65,0.08792067904584028,0.5051601096825263,0.3117371621510358,-0.01989703149849093,-0.0036388380383584225,-0.0036388380383584225
666,6.66,0.0598858328765184,0.26753834047933706,0.5373666559579815,0.01811122825873388,-0.0033936133850476337,-0.0033936133850476337
667,6.67,0.07612681839373082,-0.40829950647205965,0.4500870061213921,0.02457774245533185,-0.0021183548837195127,-0.0021183548837195127
668,6.68,0.37557975384507786,-0.47722823804382053,0.2287570181372879,-0.0033516423421106963,0.0007939603795635513,0.0007939603795635513
669,6.69,0.3606431778532083,0.02231450940602661,-0.06947583371407179,-0.037070467436503836,0.0017413685703010864,0.0017413685703010864
670,6.7,-0.15396523881463905,0.13158378618763658,0.01992219047178767,-0.04606483190716477,0.0012334233321059011,0.0012334233321059011
671,6.71,-0.43928875621005614,-0.4544478653516931,0.2745696426700342,-0.027934942913223897,0.0010706983755401727,0.0010706983755401727
672,6.72,-0.14626248191569416,-0.7560712480010374,0.272614651168417,-0.010440508951599968,0.0008457110686148455,0.0008457110686148455
673,6.73,0.0741222023263903,-0.06991728779554043,0.13068141034712263,0.0011623075500590294,0.002667308905015657,0.002667308905015657
674,6.74,-0.13751253924171747,0.8258091767818827,0.11610750768147189,0.008371764443068743,0.001422464387473172,0.001422464387473172
675,6.75,-0.025822380223334836,0.8313777473819803,0.10880180351703996,0.0019309029110937282,-0.0045991370816566715,-0.0045991370816566715
676,6.76,0.4462360019573349,-0.06432576589809458,0.27990250647107906,-0.021572953357218542,-0.004500281157214821,-0.004500281157214821
677,6.77,0.3870631752231803,-0.9609347777085363,0.380389201507366,-0.046468154583276036,-0.0030046680599750673,-0.0030046680599750673
678,6.78,-0.2378297050288768,-1.0216188905259935,0.2811131999695985,-0.0536975914998902,0.0006661961787682662,0.0006661961787682662
679,6.79,-0.402515630361133,-0.3181262980925832,-0.12469475511082653,-0.03389098472423382,0.005220783875902763,0.005220783875902763
680,6.8,-0.0439240770668161,0.33501626216065694,-0.6413985490007456,0.0009701199260895543,0.007130865837155933,0.007130865837155933
681,6.81,-0.040285558391240525,0.44610145963078524,-0.5648855794021201,0.02345454765486264,0.005206167944174374,0.005206167944174374
682,6.82,-0.21348550428439472,0.17382238585967297,-0.05734531182030572,0.01662314432367299,0.0013778515022080124,0.0013778515022080124
683,6.83,0.08084586592563868,0.01402797455330744,0.365019718219195,-0.01171178247216603,0.0017995393310405996,0.0017995393310405996
684,6.84,0.33902476425665795,-0.00598653990470642,0.32923253342825476,-0.039321021961728084,0.006153452374646993,0.006153452374646993
685,6.85,-0.04886815131962588,-0.07279721662995493,-0.10549020277245208,-0.03930941719001259,0.011731826275363013,0.011731826275363013
686,6.86,-0.4654867846965928,-0.09139941206689928,-0.5151590166360934,-0.015037312587951076,0.014228836989868175,0.014228836989868175
687,6.87,-0.2128696963232214,-0.03973563581519695,-0.6514408298295361,0.0118391877856882,0.013931676765919521,0.013931676765919521
688,6.88,0.17875425492324165,-0.11090905980819156,-0.3104632815469217,0.01982367165091385,0.011146670326279851,0.011146670326279851
689,6.89,0.11893993653674512,-0.22445119896105017,0.1590831653076577,0.0010073139119068028,0.009976709274455804,0.009976709274455804
690,6.9,0.009307458980710878,-0.11990610731271444,0.3702682147322178,-0.02519762442721093,0.010973801587163582,0.010973801587163582
691,6.91,0.05268021853074971,0.12006036886105899,0.14691345645858894,-0.034331143499667344,0.01482334941590141,0.01482334941590141
692,6.92,-0.050573490437203425,0.20446820661173445,-0.23672686442618246,-0.017343748064777814,0.016175697767095168,0.016175697767095168
693,6.93,-0.09776996772221362,0.20566793749953388,-0.31364883705791213,0.008753442589070182,0.01574039905391216,0.01574039905391216
694,6.94,0.2007855377970449,0.2819838492878938,-0.22906656900681047,0.020639547386950428,0.013624488208036769,0.013624488208036769
695,6.95,0.42222037313595656,0.24887152714293687,0.025283721612799542,0.012328092400502371,0.011509858964389184,0.011509858964389184
696,6.96,0.15040890182932468,-0.020181885111734105,0.24820192517797834,-0.011781067014515298,0.01410953925984614,0.01410953925984614
697,6.97,-0.1782596506627527,-0.2570623407227973,0.12768162977484493,-0.034019653505799975,0.016636417938391924,0.016636417938391924
698,6.98,-0.07952897097848113,-0.3069296486584563,-0.16171637441934905,-0.03311299341858245,0.017933195867974643,0.017933195867974643
699,6.99,0.2078123984298058,-0.16803354086043207,-0.45295968397395114,-0.009146810679854088,0.01714782223736258,0.01714782223736258
700,7.0,0.18840713445709656,0.24672858058907465,-0.307432488573962,0.016799809000004266,0.01329692643157196,0.01329692643157196
701,7.01,-0.10350732030372324,0.6639126407547284,0.11334150530596471,0.029147970681880776,0.011370565903380245,0.011370565903380245
702,7.02,-0.20126892777914904,0.6908157908583972,0.3347602497120701,0.02399668487854111,0.01345274107852612,0.01345274107852612
703,7.03,-0.06830690832616772,0.4463365097439221,0.26922316776522215,0.0010392228433680067,0.017391199864723154,0.017391199864723154
704,7.04,0.026383043683067875,0.12260020506423677,-0.058171258953992805,-0.022718664573456712,0.01700127119410709,0.01700127119410709
705,7.05,-0.03141983495340132,-0.18385557889754517,-0.102808753460463,-0.030014728615436637,0.013318571708008823,0.013318571708008823
706,7.06,0.012941138200404807,-0.27821033032599585,0.14598697398229707,-0.016875727056390684,0.00906286539455064,0.00906286539455064
707,7.07,0.2271859266625171,-0.17343226413909013,0.5067673326706866,0.0005213067748262145,0.0063639394583719705,0.0063639394583719705
708,7.08,0.2530043367845671,-0.051122285404959444,0.6413710174925518,0.006734483699148428,0.00962910016075924,0.00962910016075924
709,7.09,0.022629054144877397,-0.018714689207989202,0.19156196199112513,-0.0006619102267759625,0.015459106690414844,0.015459106690414844
710,7.1,-0.2193442819161131,-0.03535713551035685,-0.39699571108110354,-0.0152170680858495,0.02050012594552488,0.02050012594552488
711,7.11,-0.42491065332615147,-0.17079812703050468,-0.7087067354223153,-0.022744008918603262,0.019225174988309543,0.019225174988309543
712,7.12,-0.3993044774990061,-0.35183098849741357,-0.4145313734221044,-0.015822653232922475,0.01432442819446861,0.01432442819446861
713,7.13,-0.012959495951594097,-0.13682690322029642,0.17887330534054263,-0.00022753846456503857,0.008334989009098435,0.008334989009098435
714,7.14,0.28132870565233414,0.49040400359333547,0.5466077147642089,0.018492097142020214,0.005535704770353043,0.005535704770353043
715,7.15,0.18317593059188939,0.7380317677345615,0.5903610259866143,0.02589044121306681,0.008656995793188745,0.008656995793188745
716,7.16,-0.02476672801796484,0.1473205943840465,0.2622640984717368,0.011609841611918213,0.013438484991891618,0.013438484991891618
717,7.17,-2.389442285130605e-06,-0.5953170129721659,-0.1869564001392251,-0.01714077749874965,0.015883213468756333,0.015883213468756333
718,7.18,0.025779464833453662,-0.47139162117952926,-0.3420739302228459,-0.03355644238477031,0.017062224061131063,0.017062224061131063
719,7.19,-0.11595019299698965,0.2052048677895788,-0.21643985028451612,-0.01917949432567007,0.015519293693476075,0.015519293693476075
720,7.2,-0.13474725256029513,0.22100616926965055,0.03734055529455402,0.013773197318817891,0.012836590028627132,0.012836590028627132
721,7.21,0.02412152655290742,-0.49857569169551075,0.19092606088300243,0.029954458253472607,0.01473812378539105,0.01473812378539105
722,7.22,0.1377305743264038,-0.7467629749097198,0.0738346917961194,0.010690589996409277,0.018438148913705363,0.018438148913705363
723,7.23,-0.010826903202659242,-0.09256112424395657,0.045748972996384175,-0.023281880733506045,0.019588397050634976,0.019588397050634976
724,7.24,-0.12937248978884897,0.3779857549430874,0.0014742626360645522,-0.035523651669001316,0.01681261435265691,0.01681261435265691
725,7.25,0.09269800967913933,-0.1020630902095547,-0.0018868778253940607,-0.01875388372844913,0.012254632727233629,0.012254632727233629
726,7.26,0.3234409196178268,-0.7032077013548941,0.03865212476235165,-0.0019264074042243415,0.009635393056102285,0.009635393056102285
727,7.27,0.057005130847197535,-0.34741944214331666,0.10212728978141197,0.0018960447571070031,0.010825425414838734,0.010825425414838734
728,7.28,-0.27090742236499266,0.5776475405859902,0.11190596492376,-0.0001227423651734515,0.012218740295002724,0.012218740295002724
729,7.29,-0.054314398353828904,0.7723652699780995,-0.10472517591192095,-0.0038505344655717626,0.01280369689807665,0.01280369689807665
730,7.3,0.3263982400157225,-0.17383486044803848,-0.3322614034712029,-0.015119770860563559,0.011251347874722309,0.011251347874722309
731,7.31,0.23265474912521886,-0.9672844370186988,-0.27718113144295864,-0.03599413455995748,0.006344326967697026,0.006344326967697026
732,7.32,-0.1148402421821875,-0.6287005498056761,0.04360914243734035,-0.04421219813292878,0.002171027477572585,0.002171027477572585
733,7.33,-0.0930811517250459,0.31395513244496887,0.21546648998327128,-0.024898981326777262,0.0022094316680337685,0.0022094316680337685
734,7.34,0.06987404558827838,0.8052592670896339,0.010301583112337101,0.008855261868106343,0.00556567648515625,0.00556567648515625
735,7.35,-0.05356458537973003,0.40504140629587765,-0.27657612085400707,0.025585534049482408,0.006479153370896782,0.006479153370896782
736,7.36,-0.28049690892203366,-0.15476465773460582,-0.2798132739426887,0.006707964497348142,0.004669882112785947,0.004669882112785947
737,7.37,-0.1295845724445447,-0.08722605351140117,-0.07047923185046832,-0.029002085965628595,0.0018899389710882414,0.0018899389710882414
738,7.38,0.24305322575162266,0.3513583382867176,0.10486826958789727,-0.04682482973351233,0.002121138412397945,0.002121138412397945
739,7.39,0.16485409790605285,0.46872659380648374,0.03773432287124873,-0.031353701725665366,0.0049539318404222925,0.0049539318404222925
740,7.4,-0.20349807508664397,0.07864424765391703,-0.3304767859287206,-0.0018244221306389953,0.007866220074468955,0.007866220074468955
741,7.41,-0.33759631581124927,-0.2386525213103324,-0.5557477964315859,0.009763063889838846,0.008714229203973694,0.008714229203973694
742,7.42,-0.23814793767081757,-0.18047335550679866,-0.4397311743042005,-0.004945143431747496,0.004547284671048731,0.004547284671048731
743,7.43,-0.0786364243030662,-0.008079968934294107,0.04084427622685233,-0.03310761748287438,0.00018864990730892782,0.00018864990730892782
744,7.44,0.24085430466350966,0.0006775431687510436,0.44940278343037443,-0.04961956281310082,-0.001957679369395027,-0.001957679369395027
745,7.45,0.4600973152578139,-0.07408609725172102,0.36696296146699825,-0.03964663229527199,-0.0002519716129285844,-0.0002519716129285844
746,7.46,0.06842544272314255,-0.024383733632509334,0.109105726303246,-0.01394246928026163,0.0057068054792527405,0.0057068054792527405
747,7.47,-0.4993697931510799,0.09713544870956284,-0.013615093108586579,0.0051077603776726295,0.004093707709557536,0.004093707709557536
748,7.48,-0.2669418595555205,0.2264518929662704,-0.07158777738134796,0.004550258727517549,-0.0014376158043264164,-0.0014376158043264164
749,7.49,0.4798149290133741,0.3003216129649884,0.06081575409153099,-0.010080482460978443,-0.002939388772482676,-0.002939388772482676
750,7.5,0.38925197499143954,0.24303200188490656,0.36033799833083885,-0.024942736180405545,-0.004804172944966912,-0.004804172944966912
751,7.51,-0.3463455020027278,-0.00040260742943773464,0.5415701774313602,-0.026236777049206024,-0.003647622637172665,-0.003647622637172665
752,7.52,-0.23108864247330496,-0.27574319324583413,0.3107023589179969,-0.013722394902809416,0.0020784997986966394,0.0020784997986966394
753,7.53,0.4944605292342605,-0.2787202262029495,-0.24662981830360964,0.0018456971984298633,0.004177127832910832,0.004177127832910832
754,7.54,0.28063678521953417,0.027947716467232292,-0.4389778617077024,0.014238815736948669,0.003393536539610418,0.003393536539610418
755,7.55,-0.6522886611143606,0.24647991831198418,-0.0658653556705113,0.016059086672105025,0.0014976812351898655,0.0014976812351898655
756,7.56,-0.562529849411199,0.10603812650901484,0.22711848855380812,0.006606131941348301,-0.0010267808268862946,-0.0010267808268862946
757,7.57,0.44807534836228197,-0.21740562081802728,0.2752494437279501,-0.005289973517527882,0.0008033609420152356,0.0008033609420152356
758,7.58,0.5116993421635616,-0.41402318073232625,0.23089676303220003,-0.009444454608427095,0.0022412793110557702,0.0022412793110557702
759,7.59,-0.26526441987237803,-0.286054332040928,0.10615646691726377,-0.0035477574942264483,0.004491096483124414,0.004491096483124414
760,7.6,-0.3460880869480447,0.17282343027246438,0.008286411583841066,0.013635025479031978,0.005795325778646395,0.005795325778646395
761,7.61,0.22894631881319621,0.5507942786000046,-0.16246775490235954,0.032580140309651916,0.006618554125672603,0.006618554125672603
762,7.62,0.28532075343304597,0.38605339998105104,-0.12755321344189466,0.037448072143979966,0.008583229123365633,0.008583229123365633
763,7.63,-0.248580275728143,-0.256856512962111,0.09374591845232035,0.020577362230399517,0.007610027282033831,0.007610027282033831
764,7.64,-0.4046541553786296,-0.6251253394900399,0.07760434175774887,-0.007699415921712449,0.006031623324085379,0.006031623324085379
765,7.65,0.0842993198865325,-0.24380211982586403,-0.05407991741433887,-0.018880002551461324,0.006520661116829078,0.006520661116829078
766,7.66,0.49932020830728785,0.3819930290448214,-0.15759731690396145,0.004410788156018693,0.006538832836639306,0.006538832836639306
767,7.67,0.293253564261016,0.3896259083468143,-0.15680936679976953,0.04225623030785602,0.007994733259418562,0.007994733259418562
768,7.68,-0.16419308631692653,-0.21495708280495981,-0.012772249400350058,0.050343352191646026,0.008608753562397667,0.008608753562397667
769,7.69,-0.18054644816276458,-0.5217294834567722,0.007921964311964402,0.0209459853042296,0.008004779896580928,0.008004779896580928
770,7.7,0.11756725482608904,-0.10091563770373388,-0.0713769021801626,-0.01135706326051178,0.00897208739706072,0.00897208739706072
771,7.71,0.18578914984973463,0.37478939835940595,-0.0909199069762413,-0.016601683562350644,0.008696146790033004,0.008696146790033004
772,7.72,0.10361327397498252,0.12746910088532834,-0.034019628185125196,0.0069943684910069685,0.008482169231923431,0.008482169231923431
773,7.73,0.03898441520436369,-0.5573002307627212,0.06647517243842206,0.03045031444388072,0.008463143897813259,0.008463143897813259
774,7.74,-0.03044272273621748,-0.6224279099137658,0.11337673793414607,0.0279343896676038,0.010034486562358709,0.010034486562358709
775,7.75,0.010601067342563046,0.25202564830046104,0.0049692156658622255,0.009011983661133415,0.012029354672081148,0.012029354672081148
776,7.76,0.13208121486755045,0.9745080833868831,-0.2584485619813527,-0.0015903446154768046,0.012379222140766798,0.012379222140766798
777,7.77,-0.11785503932701379,0.5113432666352603,-0.34329228489486174,0.0005773159194409436,0.013092606167175329,0.013092606167175329
778,7.78,-0.52608271009455,-0.571800185196556,-0.20035075515435594,0.0007750919482070197,0.011184857290912445,0.011184857290912445
779,7.79,-0.18027263011511552,-0.8388102395699735,-0.052301601969973494,-0.00962523899080495,0.009577859503917057,0.009577859503917057
780,7.8,0.5386880551150921,-0.04106049162568903,0.03550188836719699,-0.015225142187228584,0.008871068650783026,0.008871068650783026
781,7.81,0.3495463669789671,0.7024046326689045,0.07410283113558949,-0.003496714473302413,0.010419121490984036,0.010419121490984036
782,7.82,-0.49611273428319236,0.5177430383275671,0.13270457397153845,0.012483948753379643,0.01270527319896832,0.01270527319896832
783,7.83,-0.6254318355761536,-0.1837059600893401,0.010772612565601254,0.007324001403697488,0.012967692870018142,0.012967692870018142
784,7.84,0.09264495553974639,-0.37844824916261527,-0.24778492709680003,-0.017992842591079028,0.011716701127996571,0.011716701127996571
785,7.85,0.40060091083256777,0.13855240542752834,-0.16847701575284624,-0.0380504739149197,0.008860259515941916,0.008860259515941916
786,7.86,-0.0402241202876448,0.6305800791294343,0.15184966595025587,-0.030069720724126506,0.008186214390821667,0.008186214390821667
787,7.87,-0.3371288344545062,0.38238715895818454,0.42481711155635243,-0.002340184736525187,0.007222321873626916,0.007222321873626916
788,7.88,-0.0347932822628892,-0.2887224277846041,0.3250479039437464,0.009232589411379484,0.007057977946930362,0.007057977946930362
789,7.89,0.2935903390491521,-0.4407246277015153,-0.03681545583283882,-0.0059135688226881426,0.008214912386693316,0.008214912386693316
790,7.9,0.12462789120006293,0.05316093159921509,-0.1799156764354619,-0.029295983711463094,0.008028587392415076,0.008028587392415076
791,7.91,-0.18696658984011086,0.3487468690073299,-0.0364970442800766,-0.034105931637958165,0.005768914219473799,0.005768914219473799
792,7.92,-0.15067234036401284,0.08230983879748757,0.14020501856580164,-0.018546890260209656,0.004739942579735665,0.004739942579735665
793,7.93,0.09648799934420264,-0.20402023878244216,0.10345518129532805,0.00033530876514252864,0.007449523782925717,0.007449523782925717
794,7.94,0.08887984013497542,-0.10344007998002908,-0.05880202427558938,0.0072036764531318185,0.010839295892300259,0.010839295892300259
795,7.95,-0.13930725822236179,0.1196320092329923,-0.157381107026996,0.0009442934951583958,0.008842373683882847,0.008842373683882847
796,7.96,-0.11126702463818293,0.014114328784723434,-0.1401335424658149,-0.010352853945168869,0.00608399374178069,0.00608399374178069
797,7.97,0.14747263516520953,-0.2541779706484817,0.02745179778125191,-0.01795914406113101,0.005923416688193742,0.005923416688193742
798,7.98,0.14354977880544406,-0.22892684778524233,0.21602520423780752,-0.01614256782179203,0.0058796746874520455,0.0058796746874520455
799,7.99,-0.14939353017550916,-0.014802849827441428,0.33511163998756,-0.003748061256150737,0.006987725168217536,0.006987725168217536
800,8.0,-0.12238288106646496,-0.04368336398992674,0.1605907914938862,0.011263054689603407,0.0078099289633380455,0.0078099289633380455
801,8.01,0.20505151352565948,-0.2370157433682808,-0.1638873446110503,0.01100298744271062,0.009090192447031348,0.009090192447031348
802,8.02,0.12392528246124893,-0.23312555757303846,-0.29348473359460225,-0.0034492853888527827,0.010568433380944521,0.010568433380944521
803,8.03,-0.21756699542503735,-0.08430320993337709,-0.05438734934726276,-0.01305243672452452,0.007989557152593306,0.007989557152593306
804,8.04,-0.01909634401243218,-0.07994414850811384,0.18101815499452237,-0.00982108783854343,0.003455477312420034,0.003455477312420034
805,8.05,0.4845217765066839,-0.26865946752092884,0.11623039867525398,0.002287819449901709,0.004083219462114164,0.004083219462114164
806,8.06,0.2747490910228034,-0.26182564807333536,-0.03995119320266746,0.014047704156519769,0.007112938964794456,0.007112938964794456
807,8.07,-0.4130131415968707,0.06711340325739308,-0.0974598849686834,0.01804268760298161,0.007826017558895844,0.007826017558895844
808,8.08,-0.3634898262265019,0.3133774259007831,-0.05387180613163904,0.01523085003038931,0.005421985545819381,0.005421985545819381
809,8.09,0.3529267132667082,0.17553636759052194,-0.011718436221692718,0.009337630220248229,0.00234706189298807,0.00234706189298807
810,8.1,0.520991552907128,-0.18056861247624048,0.06225476311522657,0.0016354744473225204,0.0011143452631755288,0.0011143452631755288
811,8.11,-0.11674558720417694,-0.2982621182693161,0.22192428879092702,-0.0038791545501769852,0.0018237426772653566,0.0018237426772653566
812,8.12,-0.45264902058600215,-0.13269593112991757,0.21416403154194244,0.0007751089675873947,0.0021237135619783546,0.0021237135619783546
813,8.13,0.037627146688054586,-0.0015075644658327225,-0.05512378110974463,0.013813378521337884,0.0008681999445877563,0.0008681999445877563
814,8.14,0.3436686602267145,0.035306490377915334,-0.23058426132438725,0.018779143591611248,-0.0012551072405471216,-0.0012551072405471216
815,8.15,-0.047872131261463065,0.12489950684873506,-0.18005661841235115,0.013318027176362969,-0.002672620590127096,-0.002672620590127096
816,8.16,-0.2824560482680263,0.26097333574035614,0.07748339185109857,0.004966218585682578,-0.004903638276923769,-0.004903638276923769
817,8.17,0.1245379364993913,0.2244749983877395,0.14540844076866472,0.002650961263480113,-0.007601307206741877,-0.007601307206741877
818,8.18,0.3484615073689166,0.060866219161033394,-0.0039184217611647615,0.006120208324374551,-0.006837986776672532,-0.006837986776672532
819,8.19,-0.13157171075565827,0.06358342686853205,-0.04001878790272738,0.01292170543352944,-0.006476483884334114,-0.006476483884334114
820,8.2,-0.39648153656142093,0.3300626146262656,-0.08142736081095475,0.019543174005159817,-0.008264518841753311,-0.008264518841753311
821,8.21,0.1117722981869393,0.5876572481074838,-0.16266434649113531,0.024885571255188838,-0.011746172054270402,-0.011746172054270402
822,8.22,0.4049697785270191,0.38968634751532333,-0.19557390719547518,0.02399511751292921,-0.014826039386495527,-0.014826039386495527
823,8.23,-0.1556064983625208,0.01187921345786816,-0.11558085006102979,0.012813597943052866,-0.014697971350246643,-0.014697971350246643
824,8.24,-0.5955075525184998,-0.014996441358740287,-0.05083201415812834,-5.984991071002633e-05,-0.014217501327139288,-0.014217501327139288
825,8.25,-0.11444831374553152,0.33711789220772426,-0.10762076501412947,0.0018016260583250364,-0.018176139222848137,-0.018176139222848137
826,8.26,0.4350504347186503,0.46496937109189107,-0.12314219831019349,0.017529412609136544,-0.01990958297553069,-0.01990958297553069
827,8.27,0.10095713846159543,0.002374569762473744,0.09670223674732291,0.029337996912216082,-0.021283106921988988,-0.021283106921988988
828,8.28,-0.37251781827658925,-0.4881728997220527,0.22549447322693664,0.017884217734578496,-0.02053752371116893,-0.02053752371116893
829,8.29,-0.13437932036841677,-0.29994312215680147,0.06918023975576401,-0.0058389445400035345,-0.020109256934675333,-0.020109256934675333
830,8.3,0.2016849030929606,0.3248109785987601,-0.18258154639357407,-0.01260028657447235,-0.019930904600041998,-0.019930904600041998
831,8.31,-0.11925616990800246,0.4656313536431852,-0.1783388761465329,0.005142856874524633,-0.020910794558122642,-0.020910794558122642
832,8.32,-0.4552104063194722,-0.10423922918316347,0.014200851153426688,0.02739687892895082,-0.021504736939497327,-0.021504736939497327
833,8.33,-0.030257501340349574,-0.5259163695613176,0.0436761754516658,0.02804970321816571,-0.019772440615856757,-0.019772440615856757
834,8.34,0.4073120657663466,-0.1596468159136193,-0.0035260251913831545,0.01121242095249145,-0.017695646375577148,-0.017695646375577148
835,8.35,0.05462571744160965,0.39819011656502,0.0866807850835912,0.0014062022728602215,-0.015500236218282415,-0.015500236218282415
836,8.36,-0.4023600283970866,0.32354744110303796,0.18994606148668003,0.011028583499086513,-0.015573975703041318,-0.015573975703041318
837,8.37,-0.036434598254966116,-0.3206791427862397,0.07339614220296,0.024515744292606955,-0.013118508384434768,-0.013118508384434768
838,8.38,0.4547752628975321,-0.674356041403053,-0.09866886985253259,0.02338179220276908,-0.011534997067595565,-0.011534997067595565
839,8.39,0.08452386731371588,-0.2736050324962752,-0.06337376544244953,0.011605541966993151,-0.010738834813310276,-0.010738834813310276
840,8.4,-0.39203607364924803,0.28615811421158105,0.09726985308008014,0.008071899788572406,-0.009350101639212505,-0.009350101639212505
841,8.41,0.018593823935648998,0.14461167654124865,0.12027485870343718,0.01564912776523372,-0.008775741068256914,-0.008775741068256914
842,8.42,0.6010135861726214,-0.5858181174665716,0.010056143107945191,0.017924445180751262,-0.006605597397490853,-0.006605597397490853
843,8.43,0.22436608009545178,-0.9122678712591793,0.12086009992643322,0.006351001558589475,-0.005809955737059621,-0.005809955737059621
844,8.44,-0.378128100720659,-0.4402608268424544,0.29359146740495734,-0.006848213793691837,-0.00723678766246177,-0.00723678766246177
845,8.45,0.04917268150501197,0.11511897800336518,0.15647400676879808,-5.670651641415633e-05,-0.006468343378511935,-0.006468343378511935
846,8.46,0.6502968287357389,0.020090605514190313,-0.0890439415388325,0.01589907850148609,-0.0051978597754839435,-0.0051978597754839435
847,8.47,0.17648912230317707,-0.4614993324551724,-0.10950296248664441,0.016345242438045592,-0.002771065742958258,-0.002771065742958258
848,8.48,-0.48848725374285523,-0.4998428785063318,0.045954558694456735,0.0006041239651800086,-0.0024863289179584427,-0.0024863289179584427
849,8.49,-0.09592222861793481,-0.1075521995770938,0.0339973660778823,-0.01605413422334483,-0.004257693858868939,-0.004257693858868939
850,8.5,0.5802558264091534,0.13033334799717552,-0.09497859057609584,-0.017943370204025803,-0.006867357451800386,-0.006867357451800386
851,8.51,0.2643441848664233,0.002218899743928651,-0.022967874802570027,-0.003964941247378165,-0.0066287493749304215,-0.0066287493749304215
852,8.52,-0.4110765174354709,-0.08390181560432455,0.11349895420185727,0.010366816353624363,-0.004223784239704522,-0.004223784239704522
853,8.53,-0.3211152187540542,0.16031488963901266,0.09468813536291296,0.012061920323952471,-0.005152140660900595,-0.005152140660900595
854,8.54,0.24112845089725532,0.40366498175196314,-0.1187085922608129,0.006178995990527072,-0.005074000973288785,-0.005074000973288785
855,8.55,0.17962355565752255,0.38603009040017733,-0.14756519321586017,-0.0009821582426449485,-0.005989944842021807,-0.005989944842021807
856,8.56,-0.3742546396387876,0.2704782017096077,0.00027502993383023144,-0.00541568170523189,-0.008630949207096845,-0.008630949207096845
857,8.57,-0.3386156413124389,0.23876010863291441,0.06962937503522798,-0.001633202982697905,-0.010515087981082315,-0.010515087981082315
858,8.58,0.19824299793189343,0.22906090132980914,-0.00011375593866844863,0.007862569881890855,-0.00865641553709117,-0.00865641553709117
859,8.59,0.1783358439894828,0.19212398728934366,-0.10841401820263194,0.0086136402652401,-0.005928978460548326,-0.005928978460548326
860,8.6,-0.3605703698083119,0.16258905098167803,-0.07738535364627314,-0.0006280598120643777,-0.007375284368861141,-0.007375284368861141
861,8.61,-0.43207588292041044,0.11857613719034893,-0.07563812679530038,-0.010861391309178379,-0.009928921596783387,-0.009928921596783387
862,8.62,-0.0030031220235644668,0.07836206800293018,-0.09417062354555844,-0.014411065897060385,-0.011099440940601456,-0.011099440940601456
863,8.63,0.07427487061544857,0.030168780087497266,-0.04249365717659939,-0.010178823801150635,-0.010779805161044723,-0.010779805161044723
864,8.64,-0.21965880004459729,-0.06298572443838624,0.004797381483021328,-0.005167269431883727,-0.01179415101566878,-0.01179415101566878
865,8.65,-0.212750821580034,-0.04370287078790269,0.025076402945169836,-0.0030916114833646467,-0.012768109018770393,-0.012768109018770393
866,8.66,0.0793086276377994,0.1999507395400879,-0.026847474523950927,-0.004502065725797585,-0.012073209565509087,-0.012073209565509087
867,8.67,0.140413195239528,0.3111488372767214,-0.08373878336254831,-0.0065400366629102535,-0.011188007619808524,-0.011188007619808524
868,8.68,-0.06438486829826413,0.033953119564277115,-0.0814741404778703,-0.007955013851509991,-0.011589072796804123,-0.011589072796804123
869,8.69,-0.09897269098024247,-0.26445617133881594,-0.15902849431777866,-0.01047417436800224,-0.012956299515784916,-0.012956299515784916
870,8.7,0.020240549910618494,-0.08144437496407597,-0.14082961113748668,-0.009583345124908434,-0.01353838944612926,-0.01353838944612926
871,8.71,-0.03829193542398758,0.4129953714034831,0.018179207481690107,0.003155306724393361,-0.012963950113315238,-0.012963950113315238
872,8.72,-0.13446120441062123,0.5669704753256596,0.08555742369253402,0.019067117526883882,-0.0123394327141546,-0.0123394327141546
873,8.73,0.015266781579536357,0.22869717519588068,0.05624364357444557,0.02339617357149741,-0.010154371994222838,-0.010154371994222838
874,8.74,0.23194996285097574,-0.07428630090389209,-0.05807322023357611,0.013196415360241506,-0.012566216584992226,-0.012566216584992226
875,8.75,0.21488295042904593,0.030433330346753995,-0.01838084993298683,-0.0007686516538530641,-0.013770997664491795,-0.013770997664491795
876,8.76,0.07559471839376887,0.11649484214502855,0.134669183651422,-0.0029772404059309914,-0.013680690209024321,-0.013680690209024321
877,8.77,0.09842327993771974,-0.09997090155655547,0.187582663447773,0.00917968480389387,-0.013874559267994371,-0.013874559267994371
878,8.78,0.20423760620240394,-0.38647783615554876,0.07414194315883539,0.019071284224404184,-0.011882320170989618,-0.011882320170989618
879,8.79,0.16288623854677847,-0.36036803413111507,-0.021624281074564197,0.0143207201198374,-0.011108106224133562,-0.011108106224133562
880,8.8,0.045351675225782116,-0.11724358601920562,-0.019769898145677242,0.003423144377813677,-0.011685926793799723,-0.011685926793799723
881,8.81,0.13389409854132428,-0.13841088659481632,0.020598441645663636,-0.004914812635689761,-0.012275989768675052,-0.012275989768675052
882,8.82,0.24074871606957127,-0.41392267574853037,0.13454346440056858,-0.00810923932300104,-0.012937457049519041,-0.012937457049519041
883,8.83,0.06253603821508348,-0.5037891041794381,0.20400764690005357,-0.002773589450009655,-0.01242819761460483,-0.01242819761460483
884,8.84,-0.10326742254481137,-0.2656815940482832,0.12281692226066154,0.004712287422414998,-0.009689091459600657,-0.009689091459600657
885,8.85,0.03683897357387107,0.019267021439946602,-0.05645484830071243,0.01010958720212646,-0.009745964364129226,-0.009745964364129226
886,8.86,0.15571668599062854,0.15370454340269507,-0.16940210668984146,0.012758466079357248,-0.010233158422814984,-0.010233158422814984
887,8.87,-0.029960167471722192,0.15747453539036865,-0.019441767334903673,0.010956654165089327,-0.00785563149828572,-0.00785563149828572
888,8.88,-0.2184261977626369,0.15055394698206734,0.13242922226810952,0.005557164788904301,-0.00629275996545076,-0.00629275996545076
889,8.89,-0.02875693049693853,0.11328057037103584,0.06413909992227537,0.00242504142768106,-0.004524384019194987,-0.004524384019194987
890,8.9,0.17887133149933043,0.04228390283918246,-0.05997718116319872,0.006170246578078282,-0.0030720284703245012,-0.0030720284703245012
891,8.91,0.007696674771526295,0.02095632318769343,-0.08535426977950761,0.012024880571797895,-0.003477879916288033,-0.003477879916288033
892,8.92,-0.18859936084076778,0.009740885699186339,0.021301774804099848,0.012219694220113677,-0.004408151644075549,-0.004408151644075549
893,8.93,-0.11425673104906997,0.007746414933332578,0.09561515043246695,0.0075120816294966765,-0.0037773843990930828,-0.0037773843990930828
894,8.94,0.0041813279066963555,-0.04188761886529162,-0.007422803738320218,0.0018392291432253163,-0.0008329881162697322,-0.0008329881162697322
895,8.95,-0.08708800636522121,-0.11420621820941645,-0.0650259584475161,-0.004858028244983248,-0.0010434003260660382,-0.0010434003260660382
896,8.96,-0.1333965308543307,-0.15840243373777715,-0.1079985505280852,-0.005936603677135062,-0.0020778410349462104,-0.0020778410349462104
897,8.97,-0.008491989699886258,-0.09061330527511627,-0.09760401828294675,-0.0017869923742837336,-0.0006819511879711381,-0.0006819511879711381
898,8.98,-0.0008608336965676561,-0.011508939325937967,-0.0014842096016793802,0.002447956869773725,0.00043634275341312983,0.00043634275341312983
899,8.99,-0.0883201363868612,-0.03839732272388615,-0.003261994480773897,0.0012424250497596306,0.000755551269897486,0.000755551269897486
900,9.0,-0.06280178019248403,-0.14262301008797837,-0.03367172920071565,-0.0077409700376794,-0.00015542021323642792,-0.00015542021323642792
901,9.01,0.06062508398119301,-0.14125255607838147,-0.049089776615182226,-0.014436520203168459,-0.0008145851886026101,-0.0008145851886026101
902,9.02,-0.015794901369342758,0.022107621370390712,0.036256213932535614,-0.010591277115202037,-0.000988666045961135,-0.000988666045961135
903,9.03,-0.17223116722196677,0.1261599354390751,0.09538589581086182,-0.001366462844418285,-0.0020511985382474355,-0.0020511985382474355
904,9.04,-0.10003770551412108,0.10424561002681004,0.0742117282988082,0.005873626467485106,-0.00523033118370363,-0.00523033118370363
905,9.05,0.11623971695532179,0.05201135676170864,-0.010984071402486903,0.00507549727930059,-0.007349447883194756,-0.007349447883194756
906,9.06,0.07348119493289013,0.06525592273650199,-0.002248773121736552,-0.002466653892518989,-0.006650620662888964,-0.006650620662888964
907,9.07,-0.16309933073945612,0.07914994247146002,0.07240099612905834,-0.011128680801927507,-0.006667418022996722,-0.006667418022996722
