,ts,ax,ay,az,wx,wy,wz
0,0.0,0.025522,-0.051276,-0.020297,0.009796,-0.015944999999999997,-0.00036600000000000017
1,0.01,-0.008663999999999991,-0.062891,-0.062999,0.005539,-0.015944999999999997,-0.002502
2,0.02,0.013966,-0.058408,-0.08052999999999999,0.0023350000000000003,-0.015944999999999997,-0.003571
3,0.03,-0.006019,-0.040253,-0.052926,-0.004059,-0.015944999999999997,-0.002502
4,0.04,-0.014286000000000002,-0.003283000000000001,-0.026613,-0.009384,-0.017013999999999998,-0.000366
5,0.05,0.048589999999999994,0.002805,0.040257999999999995,-0.010452,-0.011687999999999999,0.000687
6,0.06,-0.013641,0.049456,0.09036,-0.00618,-0.008484,-0.00036600000000000017
7,0.07,0.014349999999999996,0.051820000000000005,0.081722,-0.002991,-0.005295,-0.000366
8,0.08,-0.019061,0.045373000000000004,0.072411,0.003403,-0.00209,-0.00036600000000000017
9,0.09,-0.013058000000000002,0.032682,0.052534000000000004,0.004471,-0.003159,0.001755
10,0.1,-0.003324000000000001,0.062188,0.024052,0.005539,-0.005295,0.0006870000000000001
11,0.11,-0.01425,-0.005052000000000001,-0.013612,0.006592,-0.007416,0.004959000000000001
12,0.12,-0.024059999999999998,0.003991999999999999,-0.03431,0.004471,-0.010620000000000001,0.002823
13,0.13,-0.018549,-0.031495,-0.04428,0.005539,-0.011687999999999999,0.002823
14,0.14,-0.021244,-0.056354999999999995,-0.071491,0.005539,-0.011687999999999999,0.0038909999999999995
15,0.15,-0.016413999999999998,-0.0532,-0.050007,0.005539,-0.011687999999999999,0.001755
16,0.16,0.018733,-0.040493,-0.026826,0.003403,-0.011687999999999999,0.004959000000000001
17,0.17,0.014024000000000002,-0.004775000000000002,-0.049473,0.0023350000000000003,-0.012740999999999999,0.0028230000000000004
18,0.18,0.005187999999999997,0.008903,0.010197,-0.002991,-0.013809,0.001755
19,0.19,0.027701,-0.0026340000000000014,0.028957999999999998,-0.004059,-0.014877000000000001,0.001755
20,0.2,0.051183,0.022055,0.078448,-0.002991,-0.011687999999999999,0.0006870000000000001
21,0.21,0.004591,0.012328,0.043761,-0.0008540000000000003,-0.008484,-0.001434
22,0.22,0.0032060000000000005,0.019782,0.023128,0.00019800000000000004,-0.009552,-0.003571
23,0.23,0.028794999999999998,0.025758,0.058834000000000004,0.0023350000000000003,-0.008484,-0.002502
24,0.24,-0.00759899999999999,-0.03229,0.040651,0.006592,-0.0063479999999999995,-0.004639
25,0.25,-0.0022329999999999997,-0.021162,0.03918,0.003403,-0.007416,-0.005692
26,0.26,-0.024803,-0.035114,0.033509,0.005539,-0.004227000000000001,-0.0067599999999999995
27,0.27,-0.026920999999999997,-0.030560000000000004,-0.017817,0.0023350000000000003,-0.004227000000000001,-0.002502
28,0.28,-0.028627999999999997,-0.060002999999999994,-0.017866,-0.0051270000000000005,-0.003159,-0.003571
29,0.29,-0.034989,-0.049483,-0.014294,-0.009384,0.001099,-0.001434
30,0.3,-0.009385,-0.033252,0.030634999999999992,-0.009384,0.002167,-0.000366
31,0.31,-0.00435,-0.038561,0.017159999999999998,-0.01152,0.005371,-0.002502
32,0.32,0.020154,-0.016556,0.035512,-0.008316,0.003235,-0.001434
33,0.33,0.031989,0.009294999999999998,0.043511,-0.009384,0.003235,-0.002502
34,0.34,0.018828,0.005692,0.03941,-0.008316,0.003235,-0.002502
35,0.35,0.022214,0.02766,0.065866,-0.00618,0.005371,-0.002502
36,0.36,0.041063999999999996,0.0005450000000000003,0.014068,-0.004059,0.004303,-0.001434
37,0.37,0.022403,-0.007283000000000001,0.039324,-0.004059,0.004303,-0.002502
38,0.38,0.028526,-0.023852,0.038546,-0.001923,0.003235,-0.001434
39,0.39,0.009072,-0.04715,0.010398,0.0012659999999999993,0.003235,0.001755
40,0.4,0.046426,-0.018559,0.047469,0.001266,0.003235,-0.000366
41,0.41,-0.00039600000000000046,-0.013963,0.033289,0.0023350000000000003,0.002167,-0.000366
42,0.42,0.00394,-0.006125,0.027514999999999998,0.001266,0.005371,-0.001434
43,0.43,0.017171000000000002,0.020719,0.039322,0.001266,0.002167,-0.003571
44,0.44,0.037775,0.016219,0.068518,0.0023350000000000003,0.004303,-0.001434
45,0.45,0.023408,0.031599,0.067478,0.005539,0.004303,-0.005692
46,0.46,0.044818000000000004,0.044657,0.032089,0.007659999999999999,0.002167,-0.0067599999999999995
47,0.47,0.030014,0.037389,-0.011344999999999996,0.009796,0.006423999999999999,-0.005692
48,0.48,-0.014832999999999997,0.008874,-0.020638999999999998,0.014053,0.00856,-0.005692
49,0.49,-0.007923999999999999,0.013963999999999999,-0.0005299999999999992,0.01619,0.00856,-0.005692
50,0.5,-0.049733,-0.012424,-0.026856,0.021515,0.009628,-0.003571
51,0.51,-0.09525,-0.004738,-0.06502999999999999,0.021515,0.00856,-0.002502
52,0.52,-0.09199,-0.004866,-0.053943999999999985,0.021515,0.009628,-0.00036600000000000017
53,0.53,-0.076754,0.0074849999999999995,-0.035483,0.019379,0.010695999999999999,0.0006870000000000001
54,0.54,-0.08386,0.033093,0.006940000000000001,0.018311,0.013885,0.002823
55,0.55,-0.088648,0.05649,0.019274,0.019379,0.016022,0.0038909999999999995
56,0.56,-0.083463,0.055983000000000005,0.013102000000000004,0.021515,0.019211000000000002,0.0038909999999999995
57,0.57,-0.064114,0.058823,0.012778,0.023636,0.022415,0.006027
58,0.58,-0.02561,0.047125,0.019777,0.02684,0.028793,0.0070799999999999995
59,0.59,0.0006059999999999997,0.024718,0.006468999999999999,0.027908,0.031998,0.002823
60,0.6,-0.008156,0.007878999999999997,-0.033460000000000004,0.031097000000000003,0.039458999999999994,0.002823
61,0.61,0.028405,-0.014400999999999999,-0.028249,0.034286000000000004,0.043716000000000005,-0.001434
62,0.62,0.026646,-0.052508000000000006,-0.024539,0.039626999999999996,0.045837,-0.001434
63,0.63,0.009529000000000001,-0.032587,-0.067865,0.038558999999999996,0.043716000000000005,-0.000366
64,0.64,0.026333999999999996,-0.027297,-0.06504299999999999,0.036423000000000004,0.04158,0.0006870000000000001
65,0.65,0.027741000000000002,-0.006408999999999998,-0.056139999999999995,0.033234,0.04158,-0.001434
66,0.66,-0.0025319999999999995,-0.010101,-0.037534,0.028961,0.037323,-0.003571
67,0.67,0.015874,-0.025735,-0.057463,0.027908,0.031998,-0.002502
68,0.68,0.011491,0.002127,-0.035112000000000004,0.023636,0.025604000000000002,-0.003571
69,0.69,-0.01241,-0.019897,-0.016906,0.023636,0.022415,-0.004639
70,0.7,0.030604,-0.020876,-0.022678999999999998,0.020447,0.020279,-0.005692
71,0.71,0.008136999999999998,0.01593,-0.036055000000000004,0.022583000000000002,0.014953999999999999,-0.005692
72,0.72,0.014781999999999997,-0.0014200000000000011,-0.008103,0.022583000000000002,0.014953999999999999,-0.005692
73,0.73,0.020511,-0.010341,-0.024285,0.020447,0.00856,-0.005692
74,0.74,0.02326,-0.032747000000000005,-0.036499000000000004,0.021515,0.011748999999999999,-0.003571
75,0.75,-0.006065999999999999,-0.031244,-0.037630000000000004,0.017242,0.011748999999999999,-0.004639
76,0.76,0.00264,-0.045179000000000004,-0.030742000000000002,0.017242,0.012816999999999999,-0.001434
77,0.77,0.004214000000000001,-0.043452,-0.017691,0.012985,0.013885,-0.002502
78,0.78,0.020293000000000002,0.00022699999999999974,0.008650000000000005,0.010864,0.011748999999999999,-0.001434
79,0.79,-0.00515,-0.02364,-0.010538,0.011917,0.016022,-0.001434
80,0.8,-0.008831,-0.01813,0.003314000000000001,0.012985,0.009628,-0.004639
81,0.81,-0.001098,0.024003,0.0034630000000000012,0.012985,0.009628,-0.004639
82,0.82,-0.017888,0.045825,0.018262,0.011917,0.007492,-0.002502
83,0.83,-0.032858,0.039642000000000004,-0.015916999999999997,0.007659999999999999,0.004303,-0.001434
84,0.84,-0.037946,0.031225,0.028194999999999998,0.009796,0.006423999999999999,-0.002502
85,0.85,-0.036113,0.005850999999999999,0.03013,0.014053,0.00856,0.0006870000000000001
86,0.86,0.034304000000000015,-0.005177000000000001,0.010527,0.01619,0.010695999999999999,0.001755
87,0.87,0.006505999999999998,0.015532999999999996,-0.013800000000000002,0.021515,0.018143,0.001755
88,0.88,0.005422,-0.005191000000000001,-0.020643,0.019379,0.020279,0.000687
89,0.89,-0.021561000000000004,-0.013456000000000001,-0.046168,0.019379,0.023468,0.0006870000000000001
90,0.9,-0.016700999999999997,0.018406,-0.055590999999999995,0.018311,0.024536000000000002,0.0006870000000000001
91,0.91,-0.004791000000000003,0.004215,-0.011983,0.020447,0.024536000000000002,0.0038909999999999995
92,0.92,-0.010586000000000002,0.004997,-0.00042199999999999876,0.027908,0.028793,0.001755
93,0.93,0.030628,0.016455,-0.039575,0.032166,0.027739999999999997,-0.00036600000000000017
94,0.94,0.007959,-0.019648,-0.039002999999999996,0.036423000000000004,0.028793,-0.001434
95,0.95,0.047370999999999996,-0.008357000000000002,-0.03625,0.035355000000000004,0.026672,-0.002502
96,0.96,0.058976,-0.032141,-0.087396,0.032166,0.022415,-0.002502
97,0.97,0.053326,-0.024024,-0.08983,0.02684,0.019211000000000002,-0.002502
98,0.98,0.035818,-0.007906999999999999,-0.122727,0.021515,0.011748999999999999,-0.003571
99,0.99,0.021127,-0.01027,-0.10611500000000001,0.018311,0.009628,-0.000366
100,1.0,0.04675,-0.020703,-0.10550599999999999,0.012985,0.003235,0.001755
101,1.01,0.010865000000000001,-0.018049000000000003,-0.116746,0.009796,0.001099,0.002823
102,1.02,0.046609,0.013322,-0.058239,0.005539,-0.0010220000000000001,0.002823
103,1.03,0.028942,0.043014,-0.034723000000000004,0.0023350000000000003,-0.003159,0.001755
104,1.04,0.015161999999999997,0.014593,0.021937,0.004471,-0.00209,0.0006870000000000001
105,1.05,-0.008211,0.027568000000000002,0.036737,0.009796,-0.00209,0.0006870000000000001
106,1.06,-0.014115,0.008065000000000001,0.06815700000000001,0.014053,-0.00209,-0.00036600000000000017
107,1.07,0.017775000000000006,0.023145,0.047862,0.017242,-0.005295,-0.001434
108,1.08,-0.004907,0.018528,0.049005,0.019379,-0.0063479999999999995,-0.001434
109,1.09,-0.028765,-0.001621,0.004917,0.020447,-0.0010220000000000001,-0.001434
110,1.1,-0.004456999999999999,0.0016479999999999984,0.021949000000000003,0.021515,-0.00209,-0.001434
111,1.11,-0.029054000000000003,-0.008006000000000001,-0.003119,0.017242,-0.0010220000000000001,-0.000366
112,1.12,-0.018195,-0.024603,-0.025855,0.014053,-0.004227000000000001,0.001755
113,1.13,-0.015595,-0.035568,-0.057066,0.014053,3.1000000000000205e-05,0.0006870000000000001
114,1.14,-0.051123,-0.024995,-0.06794,0.011917,3.1e-05,0.001755
115,1.15,-0.032113,-0.023833,-0.051279,0.012985,0.001099,0.002823
116,1.16,-0.038882,-0.016909,-0.039602,0.010864,0.003235,0.0038909999999999995
117,1.17,-0.015259,-0.007730999999999998,-0.02673,0.008728,0.003235,0.0070799999999999995
118,1.18,-0.011923999999999999,-0.017547999999999998,-0.053973,0.006592,0.004303,0.0070799999999999995
119,1.19,0.003575,-0.01963,-0.003056999999999997,0.0023350000000000003,3.1000000000000205e-05,0.006027
120,1.2,0.014758000000000002,0.0011150000000000047,0.026923,0.00019799999999999983,-0.003159,0.006027
121,1.21,0.035133,0.033475,0.027191000000000003,0.0023350000000000003,-0.005295,0.002823
122,1.22,0.06725,0.052014,0.029501999999999997,0.004471,-0.0063479999999999995,0.0038909999999999995
123,1.23,0.075465,0.027056999999999998,0.00993,0.003403,-0.008484,0.002823
124,1.24,0.074117,-0.021483999999999996,-0.004219999999999998,0.004471,-0.008484,0.0006870000000000001
125,1.25,0.052695000000000006,-0.006914,-0.019629,0.003403,-0.011687999999999999,-0.00036600000000000017
126,1.26,0.03511,0.023315,0.007073,0.003403,-0.013809,-0.00036600000000000017
127,1.27,0.013812999999999999,0.010572,0.01842,0.004471,-0.017013999999999998,-0.000366
128,1.28,0.017853,-0.003962999999999998,-0.005626,0.004471,-0.021271,-0.002502
129,1.29,0.039326,0.035769,0.016044,0.003403,-0.027663999999999998,-0.003571
130,1.3,0.068527,0.035677999999999994,0.027936,0.005539,-0.03299,-0.004639
131,1.31,0.0015720000000000005,0.012568000000000001,0.017246,0.0023350000000000003,-0.03299,-0.0067599999999999995
132,1.32,0.007345,-0.017914,0.0033480000000000003,0.005539,-0.031921,-0.008896
133,1.33,0.0052369999999999995,-0.009304,-0.0042899999999999995,0.005539,-0.031921,-0.005692
134,1.34,-0.012834000000000002,-0.026147000000000004,-0.033601,0.004471,-0.028732,-0.008896
135,1.35,0.01872,-0.037495999999999995,-0.042593,0.004471,-0.030853,-0.008896
136,1.36,-0.011321,-0.0072520000000000015,-0.013961000000000001,0.00019800000000000004,-0.03299,-0.005692
137,1.37,-0.023816999999999998,0.011909999999999999,-0.004153,0.00019799999999999996,-0.03299,-0.0067599999999999995
138,1.38,-0.008295,0.0029100000000000003,0.020885,0.001266,-0.031921,-0.004639
139,1.39,-0.025539,0.013996999999999999,0.064417,0.005539,-0.034058,-0.0067599999999999995
140,1.4,-0.009009,0.028399,0.049301,0.006592,-0.03299,-0.004639
141,1.41,-0.01411,0.046093,0.020777,0.007659999999999999,-0.029785000000000002,-0.002502
142,1.42,-0.023286,0.03465,0.054000000000000006,0.007659999999999999,-0.025528,-0.002502
143,1.43,-0.010293999999999998,0.036343,0.039271,0.010864,-0.020203,-0.003571
144,1.44,-0.039548,0.024246,0.046142,0.010864,-0.014877000000000001,-0.002502
145,1.45,-0.026356,-0.006455999999999996,0.04052,0.010864,-0.011687999999999999,-0.001434
146,1.46,-0.061792999999999994,-0.015936000000000002,0.018251,0.015121,-0.009552,-0.000366
147,1.47,-0.049163,-0.007959,0.011838,0.014053,-0.009552,-0.00036600000000000017
148,1.48,-0.051237,-0.031115000000000007,-0.047195,0.01619,-0.007416,-0.000366
149,1.49,-0.012617,-0.030101999999999997,-0.086048,0.010864,-0.007416,0.000687
150,1.5,0.005132000000000001,-0.039162999999999996,-0.052514,0.009796,-0.0063479999999999995,0.002823
151,1.51,-0.007520999999999999,-0.044951,-0.062163,0.005539,-0.009552,0.0006870000000000001
152,1.52,0.02708,-0.060105,-0.051009,0.0012659999999999998,-0.008484,-0.0003659999999999996
153,1.53,0.011743,-0.039188,-0.045475,-0.0008539999999999999,-0.009552,0.0006870000000000001
154,1.54,0.046495999999999996,-0.006531000000000002,-0.021963,-0.002991,-0.009552,-0.002502
155,1.55,0.019985,-0.025172,-0.018209,-0.004059,-0.008484,-0.004639
156,1.56,0.001912999999999998,0.008327,-0.028118999999999998,-0.004059,-0.010620000000000001,-0.001434
157,1.57,0.020513999999999998,0.027192,-0.012351,-0.008316,-0.009552,-0.005692
158,1.58,-0.011797000000000002,0.008916,-0.034995,-0.007248,-0.011687999999999999,-0.0067599999999999995
159,1.59,0.012498,-0.007091,0.009874999999999998,-0.008316,-0.010620000000000001,-0.004639
160,1.6,0.019469,0.0061649999999999995,-0.016996,-0.008316,-0.010620000000000001,-0.0067599999999999995
161,1.61,-0.018441999999999997,-0.030111000000000002,-0.012733,-0.008316,-0.010620000000000001,-0.005692
162,1.62,7.100000000000162e-05,-0.005512,0.030008,-0.008316,-0.009552,-0.005692
163,1.63,-0.038634000000000016,-0.024193,-0.022872,-0.01152,-0.010620000000000001,-0.005692
164,1.64,-0.007195999999999999,0.0034690000000000003,0.018519,-0.015778,-0.009552,-0.008896
165,1.65,0.01466,0.020743,0.050143,-0.020035,-0.009552,-0.011032
166,1.66,0.037148,0.018844,0.070749,-0.017899,-0.009552,-0.011032
167,1.67,0.058508000000000004,0.010792,0.039119,-0.013641,-0.008484,-0.015288999999999999
168,1.68,0.058592,0.0032570000000000103,0.031948000000000004,-0.01152,-0.007416,-0.016357
169,1.69,0.04684,0.027357999999999997,0.038251,-0.008316,-0.010620000000000001,-0.016357
170,1.7,0.015518,0.02058,0.037005,-0.00618,-0.011687999999999999,-0.013153
171,1.71,0.022653,0.009031,0.029812,-0.00618,-0.018066,-0.011032
172,1.72,0.004130999999999999,-0.007694000000000001,0.032704000000000004,-0.001923,-0.020203,-0.009964
173,1.73,-0.008317000000000001,-0.008867999999999997,-0.023625,-0.001923,-0.022338999999999998,-0.0067599999999999995
174,1.74,-0.047488,-0.015055,-0.004016999999999998,-0.0008539999999999999,-0.020203,-0.005692
175,1.75,-0.046905,-0.031513,-0.027786,-0.0008539999999999999,-0.020203,-0.008896
176,1.76,-0.053116,-0.035029000000000005,-0.008163,-0.00618,-0.017013999999999998,-0.003571
177,1.77,-0.03912,0.012087,-0.022486000000000003,-0.010452,-0.014877000000000001,-0.004639
178,1.78,-0.032884,0.046432,-0.0018810000000000007,-0.01152,-0.014877000000000001,-0.003571
179,1.79,-0.00845,0.033658,0.025726,-0.010452,-0.008484,-0.001434
180,1.8,-0.031326,0.040878,0.037375,-0.008316,-0.004227000000000001,-0.001434
181,1.81,-0.00034700000000000014,0.009000000000000001,0.035078,-0.002991,0.005370999999999999,-0.002502
182,1.82,-0.008253,-0.012515,0.038915,-0.002991,0.006423999999999999,-0.004639
183,1.83,-0.023047,-0.023352,0.018334,-0.002991,0.009628,-0.004639
184,1.84,-0.038076,-0.054485000000000006,-0.0013829999999999995,-0.0008539999999999999,0.010695999999999999,-0.002502
185,1.85,-0.062668,-0.022221,-0.023563999999999998,-0.004059,0.007492,-0.000366
186,1.86,-0.066621,-0.04413,-0.07408300000000001,-0.007248,0.006423999999999999,-0.000366
187,1.87,-0.030349,-0.013866,-0.081636,-0.009384,0.00856,0.002823
188,1.88,0.0005640000000000003,-0.00732,-0.040839,-0.008316,0.006423999999999999,0.0038909999999999995
189,1.89,0.019819999999999997,-0.009737000000000004,-0.051938,-0.00618,0.00856,0.001755
190,1.9,0.031997000000000005,-0.006519,-0.01138,-0.0051270000000000005,0.00856,0.002823
191,1.91,0.033889999999999997,0.0047290000000000006,0.020258,-0.004059,0.012816999999999999,-0.001434
192,1.92,0.01989,0.006906999999999999,0.067166,-0.0051270000000000005,0.010695999999999999,-0.001434
193,1.93,0.026534,0.016349000000000002,0.08085099999999999,-0.004059,0.00856,-0.003571
194,1.94,0.041530000000000004,0.0435,0.088326,-0.00618,0.006423999999999999,-0.0067599999999999995
195,1.95,0.025917000000000003,0.0045509999999999995,0.09984,-0.007248,0.007492,-0.003571
196,1.96,0.031010000000000003,0.005778,0.118056,-0.007248,0.006423999999999999,-0.0067599999999999995
197,1.97,0.045002,0.015863,0.11648599999999999,-0.00618,0.00856,-0.008896
198,1.98,0.05683200000000001,0.034484,0.110357,-0.00618,0.007492,-0.0067599999999999995
199,1.99,0.06085700000000001,0.024986,0.11726099999999999,-0.004059,0.004303,-0.008896
200,2.0,0.068311,0.034662,0.12496700000000001,-0.002991,0.003235,-0.007828
201,2.01,0.012356,0.023384000000000002,0.059062,0.0012659999999999998,0.003235,-0.009964
202,2.02,-0.006223000000000001,0.030807,0.086779,0.0023350000000000003,0.001099,-0.011032
203,2.03,-0.0019799999999999987,-0.008189,0.066216,0.008728,-0.0010219999999999997,-0.011032
204,2.04,-0.038665,0.004745,0.022738,0.008728,0.002167,-0.012085
205,2.05,-0.029148,-0.009556,-0.034141000000000005,0.009796,-0.00209,-0.013153
206,2.06,-0.014538999999999998,-0.005377000000000001,0.013378,0.010864,3.0999999999999995e-05,-0.013153
207,2.07,0.025426,-0.014049,0.005013,0.007659999999999999,-0.005295,-0.013153
208,2.08,0.018616999999999998,0.003991999999999999,-0.013821,0.007659999999999999,-0.004227000000000001,-0.014221000000000001
209,2.09,0.032713,0.003228,0.059855,0.008728,-0.005295,-0.015288999999999999
210,2.1,0.042943,-0.006958,0.037753000000000016,0.009796,-0.004227000000000001,-0.015288999999999999
211,2.11,0.037492000000000004,0.006131999999999999,0.047559,0.009796,-0.0010220000000000001,-0.015288999999999999
212,2.12,-0.028313000000000005,0.016399000000000004,0.044746,0.012985,0.002167,-0.01741
213,2.13,-0.053542,0.013154,0.054342999999999995,0.014053,0.002167,-0.016357
214,2.14,-0.015129999999999998,-0.00020200000000000038,0.024154,0.01619,0.001099,-0.012085
215,2.15,-0.06735,-0.0474,-0.017972999999999996,0.014053,-0.0010219999999999997,-0.012085
216,2.16,-0.048614,-0.013775999999999998,-0.009337,0.012985,-0.0010220000000000001,-0.011032
217,2.17,-0.061342999999999995,-0.0102,-0.015013,0.009796,-0.003159,-0.007828
218,2.18,-0.037873000000000004,-0.002975,-0.039689999999999996,0.004471,-0.005295,-0.005692
219,2.19,-0.049899,-0.040275999999999985,-0.034177,-0.0008539999999999999,-0.00209,-0.004639
220,2.2,-0.026342,-0.032047000000000006,-0.0013699999999999995,-0.002991,-0.004227000000000001,-0.002502
221,2.21,-0.034157,0.010286,-0.024522,-0.004059,-0.0010220000000000001,-0.003571
222,2.22,0.0010049999999999998,-0.005249000000000001,0.026577999999999997,-0.0051270000000000005,0.0010989999999999997,-0.004639
223,2.23,0.0002880000000000001,0.015506,0.00661,-0.00618,0.001099,-0.003571
224,2.24,0.008149,0.030552999999999997,0.012695,-0.004059,3.0999999999999995e-05,-0.001434
225,2.25,0.008423,-0.005351999999999997,0.031814,-0.001923,0.001099,-0.005692
226,2.26,-0.003212000000000003,-0.023842,-0.0050129999999999975,-0.002991,0.002167,-0.005692
227,2.27,-0.008138000000000001,-0.004511000000000001,-0.024628999999999998,-0.001923,3.1000000000000205e-05,-0.004639
228,2.28,0.003721,-0.032811,-0.008528,-0.0008539999999999999,-0.0010219999999999997,-0.004639
229,2.29,0.00419,-0.031781000000000004,-0.009545999999999999,-0.001923,-0.005295,-0.003571
230,2.3,-0.018346,0.003765000000000001,0.007443999999999997,-0.0051270000000000005,-0.008484,-0.002502
231,2.31,-0.009687999999999999,-0.013312000000000001,-0.021644999999999998,-0.009384,-0.009552,-0.002502
232,2.32,-0.046353,0.00016599999999999948,0.0019300000000000007,-0.013641,-0.011687999999999999,-0.001434
233,2.33,-0.030378,-0.018635,-0.028895,-0.013641,-0.008484,-0.000366
234,2.34,-0.026882999999999997,0.019504,0.009274,-0.012573,-0.009552,-0.00036600000000000017
235,2.35,-0.032095,-0.0003599999999999957,-0.042816,-0.013641,-0.009552,-0.001434
236,2.36,-0.025006999999999998,0.013650000000000002,-0.01907,-0.013641,-0.007416,-0.002502
237,2.37,-0.033315,-0.004296999999999997,-0.018781,-0.01152,-0.008484,-0.001434
238,2.38,-0.041621,-0.014805,-0.020116,-0.012573,-0.00209,-0.000366
239,2.39,-0.020391,-0.0027280000000000004,-0.036355,-0.01152,-0.00209,-0.000366
240,2.4,-0.015416999999999998,0.008842000000000001,-0.06273,-0.01152,3.1000000000000205e-05,-0.000366
241,2.41,-0.034359,-0.005828,-0.044866,-0.010452,-0.003159,0.001755
242,2.42,-0.012969999999999999,0.051204,-0.052349,-0.01152,-0.00209,0.001755
243,2.43,-0.0027970000000000013,0.004434,-0.042263999999999996,-0.016846,-0.00209,0.001755
244,2.44,-0.0011220000000000015,0.02049,-0.048977,-0.018966999999999998,0.0010989999999999997,0.002823
245,2.45,-0.021952,0.026920999999999997,-0.028655,-0.018966999999999998,0.005371,0.001755
246,2.46,-0.020421,0.043651999999999996,-0.062673,-0.021103,0.009628,-0.000366
247,2.47,-0.0012760000000000002,0.067999,-0.05385499999999999,-0.023224,0.010695999999999999,0.001755
248,2.48,-3.300000000000004e-05,0.113291,-0.044095,-0.024291999999999998,0.00856,-0.001434
249,2.49,0.040269,0.158995,-0.048662000000000004,-0.02536,0.010695999999999999,-0.002502
250,2.5,0.045363,0.14757,-0.063301,-0.023224,0.014953999999999999,-0.003571
251,2.51,0.041972,0.185542,0.014449000000000004,-0.018966999999999998,0.025604000000000002,-0.007828
252,2.52,0.014722999999999998,0.209015,0.059223000000000005,-0.014709,0.029861000000000002,-0.009964
253,2.53,-0.011999,0.20457999999999998,0.086531,-0.01152,0.023468,-0.011032
254,2.54,-0.031984,0.249166,0.129954,-0.013641,0.009628,-0.012085
255,2.55,0.006412000000000001,0.268938,0.093968,-0.023224,0.007492,-0.011032
256,2.56,0.11458,0.30491999999999997,0.062261000000000004,-0.030685000000000004,0.003235,-0.016357
257,2.57,0.15939,0.247572,0.07200000000000001,-0.027496,0.012816999999999999,-0.019547
258,2.58,0.22536,0.21643400000000002,0.017949,-0.022171,0.019211000000000002,-0.01741
259,2.59,0.235332,0.11431500000000001,-0.014892,-0.015778,0.022415,-0.01741
260,2.6,0.255564,0.068739,-0.065384,-0.016846,0.020279,-0.007828
261,2.61,0.174646,0.024052,-0.096682,-0.014709,0.006423999999999999,0.004959000000000001
262,2.62,0.162455,-0.035365,-0.133574,-0.01152,-0.003159,0.017731
263,2.63,0.158331,0.0031000000000000003,-0.171924,-0.001923,-0.012740999999999999,0.033722
264,2.64,0.147086,0.009918999999999999,-0.244689,0.010864,-0.014877000000000001,0.040115
265,2.65,0.13179000000000002,0.030160000000000003,-0.30556500000000003,0.022583000000000002,-0.013809,0.046494
266,2.66,0.10306300000000002,-0.075204,-0.35646300000000003,0.034286000000000004,-0.013809,0.046494
267,2.67,0.10881700000000001,-0.214067,-0.388115,0.042816,-0.015944999999999997,0.042236
268,2.68,0.126672,-0.33679499999999996,-0.47129799999999994,0.046005000000000004,-0.018066,0.034775
269,2.69,0.15903499999999998,-0.374575,-0.595445,0.049210000000000004,-0.021271,0.029449
270,2.7,0.225421,-0.389513,-0.686283,0.043884,-0.023392,0.022003
271,2.71,0.24142800000000003,-0.41095,-0.806888,0.035355000000000004,-0.02446,0.017731
272,2.72,0.317867,-0.392167,-0.819658,0.021515,-0.020203,0.015609999999999999
273,2.73,0.382868,-0.321937,-0.819159,0.004471,-0.021271,0.014542
274,2.74,0.442961,-0.268468,-0.787446,-0.013641,-0.014877000000000001,0.016678
275,2.75,0.49990500000000004,-0.227555,-0.804347,-0.02536,-0.005295,0.016678
276,2.76,0.555771,-0.162711,-0.802814,-0.038147,0.00856,0.013474000000000002
277,2.77,0.564974,-0.11996199999999999,-0.784033,-0.059448,0.019211000000000002,0.008148
278,2.78,0.5579270000000001,-0.105859,-0.769567,-0.07862899999999999,0.011748999999999999,0.002823
279,2.79,0.5238470000000001,-0.031797000000000006,-0.718693,-0.10418699999999999,-0.004226999999999999,-0.003571
280,2.8,0.477204,-0.040168999999999996,-0.6648890000000001,-0.127625,-0.015944999999999997,-0.008896
281,2.81,0.395746,-0.069262,-0.59558,-0.1436,-0.017013999999999998,-0.013153
282,2.82,0.453234,-0.119637,-0.507708,-0.159592,-0.011687999999999999,-0.020615
283,2.83,0.422145,-0.141655,-0.47216,-0.170242,-0.004227000000000001,-0.033401
284,2.84,0.392969,-0.161683,-0.460958,-0.18728599999999998,0.010695999999999999,-0.044052
285,2.85,0.324416,-0.135457,-0.42977200000000004,-0.21072399999999997,0.025604000000000002,-0.054702999999999995
286,2.86,0.23733,-0.11678399999999999,-0.359811,-0.23628200000000002,0.036255,-0.063217
287,2.87,0.203932,-0.08707000000000001,-0.297808,-0.267181,0.044785000000000005,-0.069611
288,2.88,0.19428099999999998,-0.072005,-0.18073699999999998,-0.293808,0.06501799999999999,-0.07067899999999999
289,2.89,0.232521,-0.10681099999999999,0.010094000000000006,-0.317245,0.089523,-0.076004
290,2.9,0.261507,-0.128106,0.231105,-0.330032,0.117218,-0.083466
291,2.91,0.301291,-0.19336099999999998,0.43573500000000004,-0.337479,0.136398,-0.087723
292,2.92,0.366606,-0.29542399999999996,0.645004,-0.328964,0.156631,-0.09730499999999999
293,2.93,0.257414,-0.439704,0.697917,-0.31404099999999996,0.181137,-0.098373
294,2.94,0.16939500000000002,-0.5229020000000001,0.725233,-0.28527800000000003,0.205627,-0.093048
295,2.95,0.0043099999999999935,-0.703619,0.701483,-0.24800100000000003,0.23439000000000002,-0.07814
296,2.96,-0.016277,-0.699652,0.509591,-0.20965599999999998,0.265289,-0.055771
297,2.97,-0.151276,-0.707529,0.3452,-0.169174,0.283401,-0.037659
298,2.98,-0.315515,-0.664058,0.107194,-0.10739100000000001,0.285522,-0.013153
299,2.99,-0.38756999999999997,-0.6269399999999999,-0.16805200000000006,-0.042404000000000004,0.274872,0.016678
300,3.0,-0.41220200000000007,-0.539976,-0.5001439999999999,0.021515,0.267426,0.044373
301,3.01,-0.320916,-0.355927,-0.837609,0.068375,0.266357,0.064606
302,3.02,-0.172163,-0.201852,-1.2697040000000002,0.076904,0.264221,0.07739299999999999
303,3.03,-0.071661,-0.006664000000000003,-1.575501,0.048141,0.254639,0.08165
304,3.04,0.050334,0.151121,-1.731795,-0.007248000000000002,0.23866300000000001,0.082718
305,3.05,0.161576,0.296135,-1.693732,-0.07223500000000001,0.22799699999999998,0.083786
306,3.06,0.212323,0.484645,-1.611452,-0.130829,0.22055100000000002,0.079529
307,3.07,0.10723099999999999,0.672118,-1.542645,-0.173431,0.20776399999999998,0.069931
308,3.08,-0.08432100000000001,0.796114,-1.436009,-0.190475,0.154495,0.057159
309,3.09,-0.222732,0.763301,-1.40945,-0.184082,0.101242,0.035843
310,3.1,-0.39461,0.729072,-1.395353,-0.159592,0.044785000000000005,0.010284
311,3.11,-0.542853,0.714936,-1.481168,-0.138275,0.026672,-0.007828
312,3.12,-0.673009,0.7179439999999999,-1.579681,-0.127625,0.023468,-0.024872
313,3.13,-0.676215,0.724521,-1.677323,-0.139343,0.035187,-0.050446
314,3.14,-0.689559,0.672979,-1.600824,-0.173431,0.042648,-0.080261
315,3.15,-0.708242,0.523997,-1.415184,-0.203262,0.053299,-0.109024
316,3.16,-0.680743,0.272042,-1.261276,-0.24374400000000002,0.077805,-0.129272
317,3.17,-0.708094,0.014178999999999997,-1.046114,-0.277832,0.099106,-0.154831
318,3.18,-0.7652329999999999,-0.286256,-0.946842,-0.299133,0.12254300000000001,-0.181473
319,3.19,-0.799362,-0.500219,-0.882917,-0.306595,0.12573199999999998,-0.197449
320,3.2,-0.755613,-0.703968,-0.8823620000000001,-0.30445900000000004,0.121475,-0.200638
321,3.21,-0.6715180000000001,-0.748777,-0.9203120000000001,-0.30127,0.111893,-0.188919
322,3.22,-0.5693060000000001,-0.806538,-0.943058,-0.300201,0.092712,-0.171875
323,3.23,-0.535325,-0.739254,-0.968205,-0.294876,0.066086,-0.150574
324,3.24,-0.568204,-0.655415,-1.008473,-0.291672,0.027739999999999997,-0.129272
325,3.25,-0.63432,-0.500186,-1.003463,-0.279953,-0.017013999999999998,-0.09730499999999999
326,3.26,-0.748448,-0.306073,-0.992405,-0.266113,-0.050033999999999995,-0.069611
327,3.27,-0.776274,-0.127669,-1.036982,-0.244812,-0.07986499999999999,-0.046173
328,3.28,-0.814016,0.04628,-1.01273,-0.21816999999999998,-0.10116599999999999,-0.029129000000000002
329,3.29,-0.8823139999999999,0.118851,-1.078965,-0.18196099999999998,-0.11288499999999999,-0.020615
330,3.3,-0.9899610000000001,0.21451399999999998,-1.1944270000000001,-0.14041099999999998,-0.110748,-0.022736000000000003
331,3.31,-1.037509,0.29721,-1.325172,-0.097794,-0.10116599999999999,-0.028076
332,3.32,-1.11408,0.261256,-1.428877,-0.058379999999999994,-0.083054,-0.033401
333,3.33,-1.189162,0.172226,-1.523678,-0.027496,-0.056427,-0.034454000000000005
334,3.34,-1.137857,0.045375000000000006,-1.554381,-0.0051270000000000005,-0.027663999999999998,-0.030197
335,3.35,-1.034335,-0.06829,-1.650516,0.005539,-0.0031590000000000003,-0.029129000000000002
336,3.36,-0.9471959999999999,-0.08734700000000001,-1.687962,0.009796,3.1000000000000205e-05,-0.028076
337,3.37,-0.84299,-0.160724,-1.749736,0.008728,-0.011687999999999999,-0.021683
338,3.38,-0.759731,-0.16450599999999999,-1.8128950000000001,-0.002991,-0.050033999999999995,-0.016357
339,3.39,-0.627308,-0.06570600000000001,-1.855882,-0.028564,-0.102234,-0.003570999999999999
340,3.4,-0.40977700000000006,0.16556400000000002,-1.951598,-0.07223500000000001,-0.167206,0.010284
341,3.41,-0.22141599999999997,0.534547,-1.9201400000000002,-0.12443499999999999,-0.24710100000000002,0.017731
342,3.42,-0.067906,0.947824,-1.798657,-0.179825,-0.3302,0.015609999999999999
343,3.43,0.05057,1.4539520000000001,-1.60165,-0.211777,-0.41861000000000004,0.011353
344,3.44,0.117916,2.081648,-1.444608,-0.221375,-0.51236,0.003891
345,3.45,0.04546,2.6154830000000002,-1.335348,-0.19686900000000002,-0.610367,-0.009964
346,3.46,-0.151169,3.234372,-1.35395,-0.136154,-0.708359,-0.032333
347,3.47,-0.241173,3.784472,-1.386195,-0.049866,-0.834061,-0.051498
348,3.48,-0.177393,4.084649,-1.3368950000000002,0.047073000000000004,-0.953369,-0.069611
349,3.49,-0.215914,3.9450309999999997,-1.040967,0.135498,-0.9895940000000001,-0.06854199999999999
350,3.5,-0.420584,3.3304440000000004,-0.473488,0.170654,-0.8958440000000001,-0.044052
351,3.51,-0.9380719999999999,2.506516,0.12463399999999995,0.120575,-0.716888,-0.019547
352,3.52,-1.612676,1.6910619999999998,0.7509779999999999,0.024704000000000004,-0.541122,0.0017549999999999994
353,3.53,-2.121737,0.9760969999999999,1.201739,-0.065842,-0.39305100000000004,0.022003
354,3.54,-2.11422,0.365088,1.51373,-0.171295,-0.26947,0.016678
355,3.55,-1.7305139999999999,-0.370263,1.871745,-0.273575,-0.186386,-0.004638999999999999
356,3.56,-1.170731,-1.1236760000000001,2.366071,-0.34494,-0.139511,-0.033401
357,3.57,-0.49783599999999995,-1.825017,2.747147,-0.348129,-0.176804,-0.057892
358,3.58,0.183216,-2.14227,2.775114,-0.294876,-0.231125,-0.06854199999999999
359,3.59,0.9596469999999999,-2.248854,2.474184,-0.202194,-0.25135799999999997,-0.047241000000000005
360,3.6,1.613753,-2.224682,1.828509,-0.092468,-0.25882,-0.012085
361,3.61,2.111982,-2.031091,1.15655,0.0034030000000000032,-0.2258,0.023071
362,3.62,2.32348,-1.499519,0.317608,0.06518600000000001,-0.20875500000000002,0.047562
363,3.63,2.319741,-0.909364,-0.34162800000000004,0.07157899999999999,-0.197037,0.063538
364,3.64,2.190293,-0.194549,-0.79076,0.024704,-0.218338,0.057159
365,3.65,1.73058,0.55275,-0.800457,-0.046661,-0.21621700000000002,0.046494
366,3.66,1.2788540000000002,1.243087,-0.684621,-0.094604,-0.205566,0.051819000000000004
367,3.67,0.874856,1.697013,-0.49665299999999996,-0.11804200000000001,-0.20768699999999998,0.076324
368,3.68,0.554996,1.8314009999999998,-0.056354000000000015,-0.116974,-0.22154200000000002,0.117874
369,3.69,0.36299899999999996,1.4737149999999999,0.265975,-0.064774,-0.25669899999999995,0.163681
370,3.7,-0.036192,1.1894719999999999,0.477685,0.021515000000000003,-0.28865100000000005,0.213745
371,3.71,-0.098371,0.558191,0.401312,0.119522,-0.314209,0.26168800000000003
372,3.72,-0.155247,-0.10655399999999997,0.23763800000000002,0.202606,-0.33552600000000005,0.28512600000000005
373,3.73,-0.101115,-0.683646,-0.032312000000000014,0.26759299999999997,-0.322739,0.290451
374,3.74,0.04788499999999999,-1.240375,-0.300516,0.30700700000000003,-0.280121,0.272339
375,3.75,0.073281,-1.761807,-0.590761,0.3134,-0.22261,0.24037199999999997
376,3.76,0.222121,-2.088098,-0.92319,0.298477,-0.168274,0.213745
377,3.77,0.279941,-2.326879,-1.1583629999999998,0.257996,-0.13205,0.18391400000000002
378,3.78,0.323375,-2.3436529999999998,-1.287196,0.207932,-0.102234,0.158356
379,3.79,0.272015,-2.2338259999999996,-1.3780540000000001,0.144012,-0.067078,0.147705
380,3.8,0.407511,-2.143958,-1.368127,0.081161,-0.039383,0.145569
381,3.81,0.554125,-1.9911720000000002,-1.305158,0.02684,-0.025528,0.141312
382,3.82,0.625784,-1.7758349999999998,-1.165606,-0.017899,-0.023392,0.126389
383,3.83,0.6967479999999999,-1.528824,-1.1089959999999999,-0.044539999999999996,-0.031921,0.111481
384,3.84,0.772209,-1.3277510000000001,-0.980925,-0.046661,-0.051102,0.090179
385,3.85,0.863826,-1.1371229999999999,-0.8970020000000001,-0.02536,-0.07666,0.068863
386,3.86,1.026453,-0.9924209999999999,-0.926214,0.007659999999999999,-0.102234,0.044373
387,3.87,1.0955840000000001,-1.000162,-1.005406,0.050277999999999996,-0.130997,0.012405
388,3.88,1.12544,-0.996818,-1.058767,0.091812,-0.154419,-0.020615
389,3.89,1.10422,-0.8897870000000001,-1.254284,0.13443,-0.17040999999999998,-0.052566999999999996
390,3.9,0.948247,-0.64882,-1.461822,0.169586,-0.171463,-0.07814
391,3.91,0.672619,-0.347953,-1.659561,0.194077,-0.145905,-0.081329
392,3.92,0.41356800000000005,0.099608,-1.871211,0.198349,-0.091568,-0.07281499999999999
393,3.93,0.230735,0.644323,-1.948436,0.183426,-0.029785000000000002,-0.056824
394,3.94,0.14153,1.180359,-1.927566,0.158936,0.020279,-0.041916
395,3.95,0.063687,1.4192209999999998,-1.701605,0.14294400000000002,0.058624,-0.028076
396,3.96,-0.100016,1.5398399999999999,-1.378681,0.14294400000000002,0.076736,-0.025939999999999998
397,3.97,-0.29382199999999997,1.517247,-1.220212,0.162125,0.107635,-0.018478
398,3.98,-0.544184,1.5304149999999999,-1.149773,0.172775,0.16514600000000002,0.0017549999999999994
399,3.99,-0.5079279999999999,1.676466,-1.362242,0.158936,0.282333,0.034775
400,4.0,-0.303274,1.876527,-1.476834,0.120575,0.406967,0.04863
401,4.01,0.04535899999999996,2.12857,-1.512156,0.096085,0.5134890000000001,0.042236
402,4.02,0.41696700000000003,2.428931,-1.45455,0.096085,0.584869,0.003890999999999999
403,4.03,0.620804,2.550491,-1.211799,0.132294,0.616821,-0.053635
404,4.04,0.587717,2.531536,-0.687972,0.18556199999999998,0.618958,-0.107971
405,4.05,0.47238100000000005,2.805421,-0.251765,0.21539299999999997,0.646652,-0.11648599999999999
406,4.06,0.8266709999999999,3.218274,0.3142099999999999,0.162125,0.740402,-0.09411599999999999
407,4.07,1.101373,3.120832,1.309169,0.052399,0.765961,-0.084534
408,4.08,1.03503,2.8253939999999997,2.631944,-0.008316,0.686066,-0.033401
409,4.09,0.933464,2.036052,3.912472,-0.017899,0.5976560000000001,0.079529
410,4.1,0.612829,1.020536,4.538074,0.024704,0.579544,0.21160900000000002
411,4.11,0.281511,-0.07864399999999999,4.5694099999999995,0.12271099999999999,0.613632,0.319214
412,4.12,-0.391423,-1.0939510000000001,4.000115,0.289963,0.583801,0.389511
413,4.13,-1.1035979999999999,-1.786318,2.9229939999999996,0.464661,0.449585,0.437454
414,4.14,-1.485641,-2.094695,1.7358619999999998,0.557343,0.283401,0.44596899999999995
415,4.15,-1.311074,-2.0476419999999997,0.7851819999999999,0.5083310000000001,0.140656,0.398041
416,4.16,-1.1467559999999999,-1.5478120000000002,0.29644299999999996,0.330444,0.008559999999999998,0.280853
417,4.17,-0.859431,-0.911897,0.151302,0.106735,-0.06601,0.139175
418,4.18,-0.407603,-0.03307199999999999,0.21950200000000006,-0.10739100000000001,-0.070267,-0.016356999999999997
419,4.19,0.084648,0.636195,0.341177,-0.271439,-0.022338999999999998,-0.171875
420,4.2,0.558841,1.08718,0.47663900000000003,-0.356659,0.038391,-0.286926
421,4.21,1.046978,1.276047,0.937902,-0.356659,0.101242,-0.35191300000000003
422,4.22,1.266407,1.215075,1.532872,-0.273575,0.159821,-0.38706999999999997
423,4.23,1.2228379999999999,0.808341,2.0527849999999996,-0.123367,0.197113,-0.39771999999999996
424,4.24,1.158137,0.239968,2.145554,0.06092800000000001,0.19178800000000001,-0.413696
425,4.25,0.698487,-0.58418,1.937572,0.253738,0.13105799999999998,-0.429672
426,4.26,0.183954,-1.363191,1.2806600000000001,0.41459700000000005,0.069275,-0.421158
427,4.27,-0.6567470000000001,-2.7252,0.132388,0.507278,-0.022338999999999998,-0.412628
428,4.28,-1.216958,-3.470188,-0.463584,0.48489399999999994,-0.03511,-0.409439
429,4.29,-1.577424,-4.063385,-0.9572430000000001,0.41671800000000003,-0.030853,-0.400909
430,4.3,-1.81008,-4.242486,-1.241982,0.309128,-0.039383,-0.386002
431,4.31,-2.0280139999999998,-4.187024,-1.280815,0.19728099999999998,-0.042572000000000006,-0.35191300000000003
432,4.32,-1.9862229999999998,-3.8113,-1.202669,0.103531,-0.047897,-0.300781
433,4.33,-1.823104,-3.248614,-1.0818290000000002,0.041748,-0.07772799999999999,-0.232605
434,4.34,-1.617896,-2.480675,-0.899424,0.012985,-0.119278,-0.160156
435,4.35,-1.285636,-1.6865310000000002,-0.718174,0.011917,-0.152298,-0.096252
436,4.36,-0.874389,-0.888159,-0.5401239999999999,0.049210000000000004,-0.16508499999999998,-0.053635
437,4.37,-0.47513999999999995,-0.283634,-0.326839,0.108856,-0.158691,-0.031265
438,4.38,-0.140129,-0.005204,-0.14678,0.177032,-0.153366,-0.020615
439,4.39,-0.029581,0.072917,-0.065411,0.23136900000000002,-0.167206,-0.004639000000000001
440,4.4,0.037883999999999994,0.085829,-0.22073600000000002,0.282501,-0.173599,0.033722
441,4.41,-0.025158,-0.118109,-0.586303,0.332565,-0.175735,0.07206699999999999
442,4.42,-0.097478,-0.329669,-1.107623,0.385834,-0.177856,0.11467000000000001
443,4.43,-0.156377,-0.520041,-1.6976669999999998,0.422043,-0.186386,0.155151
444,4.44,-0.432287,-0.642821,-2.168656,0.404999,-0.194901,0.18498199999999998
445,4.45,-0.780361,-0.5752149999999999,-2.3742669999999997,0.341095,-0.210892,0.191376
446,4.46,-1.105082,-0.37047800000000003,-2.374032,0.228165,-0.23326100000000002,0.16687000000000002
447,4.47,-1.0861319999999999,0.033326000000000015,-2.2181490000000004,0.09287999999999999,-0.275864,0.112549
448,4.48,-0.9600350000000001,0.655211,-1.893646,-0.022171,-0.333389,0.050766000000000006
449,4.49,-0.676773,1.4130790000000002,-1.4571290000000001,-0.10739100000000001,-0.38345300000000004,-0.019547
450,4.5,-0.27337199999999995,2.048654,-0.9923290000000001,-0.134018,-0.422867,-0.06749
451,4.51,-0.011991000000000002,2.50202,-0.582121,-0.09567300000000001,-0.45163000000000003,-0.106903
452,4.52,0.023909,2.80009,-0.31567,-0.011519999999999996,-0.488922,-0.136719
453,4.53,-0.216606,2.9411400000000003,-0.11061600000000002,0.100342,-0.520874,-0.16655
454,4.54,-0.553083,2.897495,-0.076584,0.211121,-0.53685,-0.192123
455,4.55,-1.051774,2.824065,0.10269600000000001,0.287827,-0.544312,-0.207031
456,4.56,-1.3857469999999998,3.027925,0.216327,0.301682,-0.574142,-0.220886
457,4.57,-1.674564,3.7737760000000002,0.32466799999999996,0.211121,-0.623138,-0.2603
458,4.58,-1.8396669999999997,4.464157,0.761213,0.009796,-0.623138,-0.306107
459,4.59,-1.8146209999999998,4.494833,1.742573,-0.175568,-0.553894,-0.32101399999999997
460,4.6,-1.372082,3.836214,3.035313,-0.21072399999999997,-0.354691,-0.317825
461,4.61,-1.067248,2.806565,3.579908,-0.10206599999999999,-0.044708,-0.313553
462,4.62,-0.599804,1.440288,3.459275,0.038559,0.20137,-0.287994
463,4.63,0.21745799999999998,-0.12365899999999995,3.055526,0.14189100000000002,0.24504099999999998,-0.2603
464,4.64,1.5491709999999999,-1.7397140000000002,2.709721,0.195145,0.086319,-0.235794
465,4.65,2.8784970000000003,-2.826676,2.188748,0.203674,-0.168274,-0.207031
466,4.66,3.890801,-3.4442239999999997,1.615348,0.171707,-0.44737200000000005,-0.16229200000000002
467,4.67,4.383426999999999,-3.341096,0.870542,0.08223,-0.680664,-0.10051
468,4.68,4.210396,-2.655287,0.24291300000000002,-0.082886,-0.850037,-0.044052
469,4.69,3.680972,-1.579726,-0.155846,-0.286346,-0.9448549999999999,0.013474000000000002
470,4.7,2.978304,-0.4341849999999999,-0.212446,-0.483429,-0.9288790000000001,0.068863
471,4.71,1.837552,0.20468000000000006,0.44612299999999994,-0.626175,-0.8116909999999999,0.097626
472,4.72,0.808912,0.77389,1.407951,-0.678375,-0.612488,0.097626
473,4.73,-0.16508099999999992,1.389594,2.227682,-0.622971,-0.44737200000000005,0.102966
474,4.74,-0.896493,1.8121599999999998,2.636083,-0.48768599999999995,-0.34510799999999997,0.131714
475,4.75,-1.164792,1.810857,2.709957,-0.31404099999999996,-0.3302,0.17965699999999998
476,4.76,-1.20583,1.6067870000000002,2.4357130000000002,-0.129761,-0.362152,0.225464
477,4.77,-0.844994,0.938092,1.91094,0.048141,-0.394104,0.27446
478,4.78,-0.389516,-0.037950999999999964,1.1396469999999999,0.211121,-0.420746,0.303223
479,4.79,-0.075245,-0.919759,0.368652,0.333633,-0.45269799999999993,0.308548
480,4.8,0.223777,-1.8514380000000001,-0.31284,0.402878,-0.47613500000000003,0.289383
481,4.81,0.30178,-2.718212,-0.947941,0.42524700000000004,-0.500641,0.254227
482,4.82,0.296969,-3.406256,-1.416611,0.404999,-0.48571800000000004,0.215881
483,4.83,0.271954,-3.9006230000000004,-1.76555,0.34428400000000003,-0.443115,0.17965699999999998
484,4.84,0.26578,-4.143107,-1.944532,0.257996,-0.371735,0.141312
485,4.85,0.301483,-4.019088,-1.855559,0.168518,-0.280121,0.09336900000000001
486,4.86,0.40776599999999996,-3.723779,-1.7229400000000001,0.086487,-0.204498,0.053954999999999996
487,4.87,0.553679,-3.247416,-1.529236,0.0012660000000000032,-0.138443,0.019867
488,4.88,0.6459600000000001,-2.617971,-1.2738129999999999,-0.081818,-0.09690900000000001,-0.008896
489,4.89,0.6824680000000001,-1.907609,-1.048262,-0.148926,-0.07772799999999999,-0.030197
490,4.9,0.784163,-1.215439,-0.793579,-0.176636,-0.07347100000000001,-0.048309
491,4.91,0.8871290000000001,-0.522724,-0.623907,-0.154251,-0.07986499999999999,-0.063217
492,4.92,0.96926,0.07935999999999999,-0.5935020000000001,-0.0914,-0.09584,-0.083466
493,4.93,0.9230440000000001,0.458608,-0.627262,-0.002991000000000001,-0.10328699999999999,-0.098373
494,4.94,0.783608,0.590458,-0.765383,0.08862300000000001,-0.113953,-0.11755399999999999
495,4.95,0.518375,0.481562,-1.002548,0.17598,-0.115005,-0.142059
496,4.96,0.286994,0.246952,-1.290043,0.228165,-0.081985,-0.160156
497,4.97,0.08204199999999999,-0.018268999999999997,-1.4778149999999999,0.240952,-0.012741000000000002,-0.171875
498,4.98,-0.043239,-0.236029,-1.591759,0.22071799999999997,0.085251,-0.176147
499,4.99,-0.127027,-0.371555,-1.6539529999999998,0.171707,0.200302,-0.159103
500,5.0,-0.27719499999999997,-0.32151,-1.560117,0.107803,0.315353,-0.12501500000000002
501,5.01,-0.544477,-0.172465,-1.397316,0.048141,0.419754,-0.071747
502,5.02,-0.8903110000000001,0.060840999999999985,-1.213849,0.005538999999999999,0.492188,-0.003570999999999998
503,5.03,-1.152578,0.324919,-1.129114,-0.026427999999999997,0.5614319999999999,0.076324
504,5.04,-1.133812,0.682413,-1.1539059999999999,-0.056259,0.653046,0.155151
505,5.05,-0.696646,1.059028,-1.185718,-0.094604,0.748917,0.231857
506,5.06,-0.060732999999999975,1.465603,-1.16816,-0.139343,0.8170930000000001,0.29364
507,5.07,0.748162,1.872177,-0.8961680000000001,-0.169174,0.8447879999999999,0.34903
508,5.08,1.621118,2.2444990000000002,-0.537157,-0.173431,0.843719,0.384186
509,5.09,2.085402,2.5167200000000003,0.12351700000000003,-0.138275,0.8245540000000001,0.388443
510,5.1,2.265959,3.028003,0.738622,-0.062653,0.814972,0.36607399999999995
511,5.11,2.502743,3.8654900000000003,1.013304,-0.002991000000000001,0.802185,0.352234
512,5.12,2.666514,4.503883,1.545784,-0.046661,0.679672,0.357559
513,5.13,2.724455,4.799933,2.603889,-0.138275,0.49644499999999997,0.393768
514,5.14,2.896074,4.665925,3.5431589999999997,-0.164917,0.28979499999999997,0.465149
515,5.15,2.803408,3.9439370000000005,3.539057,-0.106323,0.136398,0.536514
516,5.16,2.040061,2.4799439999999997,3.1690970000000003,0.004471000000000003,0.161957,0.537582
517,5.17,1.047406,0.882898,2.7159709999999997,0.15040599999999998,0.25676,0.49284399999999995
518,5.18,-0.5416050000000001,-0.7462949999999999,2.423813,0.289963,0.375015,0.41508500000000004
519,5.19,-2.506314,-2.251464,2.129713,0.39328,0.49964899999999995,0.31494099999999997
520,5.2,-4.154915,-3.3278449999999995,1.874379,0.43696599999999997,0.602982,0.209488
521,5.21,-4.895371,-3.9125019999999995,1.425109,0.39115900000000003,0.687134,0.098694
522,5.22,-4.9410739999999995,-3.8129129999999996,0.847193,0.246277,0.745728,0.007080000000000003
523,5.23,-4.492487000000001,-3.094401,0.0026579999999999933,0.024704000000000004,0.7702180000000001,-0.034454000000000005
524,5.24,-3.7773589999999997,-2.090088,-0.685538,-0.23735,0.759567,-0.04512
525,5.25,-2.759943,-0.992223,-0.788107,-0.484497,0.721222,-0.028076
526,5.26,-1.554188,0.448329,-0.287492,-0.689026,0.673279,0.008148
527,5.27,-0.726173,1.6887869999999998,1.034108,-0.799805,0.633865,0.029449
528,5.28,0.026932000000000008,2.485762,2.403873,-0.75293,0.649841,0.028397000000000002
529,5.29,0.591023,2.795465,3.423007,-0.571838,0.72229,-0.027007999999999997
530,5.3,0.5641109999999999,2.52681,3.7832440000000003,-0.310852,0.823486,-0.11541700000000002
531,5.31,0.286621,1.770548,3.433824,-0.030684999999999987,0.914032,-0.214493
532,5.32,-0.22195700000000002,0.8351719999999999,2.5956639999999997,0.21539299999999997,0.98114,-0.30503800000000003
533,5.33,-0.7491939999999999,-0.13023400000000002,1.572547,0.386902,1.0067139999999999,-0.352982
534,5.34,-1.204667,-1.248383,0.520934,0.466797,1.019501,-0.370026
535,5.35,-1.5897709999999998,-2.215905,-0.32783300000000004,0.46040299999999995,1.013107,-0.357239
536,5.36,-1.7861650000000002,-3.038952,-0.977873,0.394348,1.0035100000000001,-0.318893
537,5.37,-1.7437029999999998,-3.605843,-1.326338,0.298477,0.9790190000000001,-0.253906
538,5.38,-1.5689440000000001,-3.963171,-1.4623030000000001,0.182358,0.95665,-0.18040499999999998
539,5.39,-1.294032,-4.091199,-1.452718,0.073715,0.9065700000000001,-0.098373
540,5.4,-1.07198,-3.921425,-1.3195709999999998,-0.023224,0.837341,-0.024872
541,5.41,-0.908235,-3.4387519999999996,-1.216173,-0.103119,0.7584989999999999,0.041168
542,5.42,-0.7901819999999999,-2.79755,-1.068677,-0.17236300000000002,0.678604,0.096573
543,5.43,-0.685642,-2.0235119999999998,-0.8463229999999999,-0.22456399999999999,0.598709,0.141312
544,5.44,-0.631988,-1.369233,-0.6191979999999999,-0.25758400000000004,0.544388,0.174332
545,5.45,-0.621842,-0.771358,-0.420609,-0.258652,0.5273439999999999,0.191376
546,5.46,-0.696946,-0.353096,-0.293202,-0.23628200000000002,0.536926,0.20842
547,5.47,-0.773917,-0.279211,-0.372359,-0.18728599999999998,0.5635680000000001,0.22013899999999997
548,5.48,-0.987841,-0.365583,-0.535393,-0.129761,0.581665,0.24357600000000001
549,5.49,-1.043847,-0.537796,-0.760514,-0.067978,0.585938,0.276596
550,5.5,-1.077421,-0.525459,-1.222898,-0.017899,0.5625,0.309616
551,5.51,-1.033728,-0.403015,-1.574296,0.014053,0.5049739999999999,0.33519
552,5.52,-1.046541,-0.12082900000000002,-1.8308380000000002,0.028961,0.425079,0.352234
553,5.53,-1.112195,0.241929,-1.6893770000000001,0.033234,0.351578,0.369278
554,5.54,-1.305346,0.769373,-1.331599,0.037491000000000003,0.324936,0.386322
555,5.55,-1.480435,1.4920120000000001,-0.9291219999999999,0.059860000000000003,0.353699,0.37886
556,5.56,-1.73827,2.084556,-0.44617700000000005,0.10141,0.384598,0.347977
557,5.57,-1.8047830000000002,2.4023529999999997,-0.153804,0.18023699999999998,0.401642,0.321335
558,5.58,-1.6597560000000002,2.514551,-0.139536,0.287827,0.40271,0.306427
559,5.59,-1.3770149999999999,2.599206,-0.285747,0.387955,0.411224,0.309616
560,5.6,-1.142896,2.632873,-0.523215,0.458267,0.43573,0.31601
561,5.61,-1.062193,2.5771290000000002,-0.744531,0.5093989999999999,0.469818,0.311752
562,5.62,-1.135889,2.402513,-0.727694,0.533905,0.536926,0.27766399999999997
563,5.63,-0.9342389999999999,2.19115,-0.336188,0.46785,0.606171,0.205231
564,5.64,-0.32069699999999995,2.3424560000000003,0.2767069999999999,0.234558,0.611496,0.07420299999999999
565,5.65,0.439413,2.37617,1.7449869999999998,-0.14573699999999998,0.592331,-0.08985900000000001
566,5.66,0.951852,2.044277,3.5159849999999997,-0.45892299999999997,0.568893,-0.21981799999999999
567,5.67,0.796358,1.564566,4.985754,-0.555862,0.629608,-0.333801
568,5.68,-0.24216199999999996,0.8823200000000001,5.595952,-0.43016099999999996,0.767029,-0.389191
569,5.69,-1.3516350000000001,0.086312,5.215207,-0.18196099999999998,0.9736940000000001,-0.346588
570,5.7,-2.270753,-0.44815200000000005,4.321214,0.054534999999999986,1.230423,-0.26669299999999996
571,5.71,-2.59071,-0.38447800000000004,3.500872,0.151474,1.496735,-0.171875
572,5.72,-2.432207,0.08022100000000001,3.180073,0.123779,1.692749,-0.082397
573,5.73,-2.250448,0.64184,2.8570919999999997,0.06304900000000001,1.7800900000000002,0.0006870000000000001
574,5.74,-2.093669,0.867084,2.361698,0.009796,1.831223,0.09762600000000002
575,5.75,-1.817767,0.8617530000000001,1.566039,-0.031754000000000004,1.878098,0.19456500000000002
576,5.76,-1.4089770000000001,0.634795,0.810682,-0.06691,1.951599,0.308548
577,5.77,-1.012945,0.370223,0.481333,-0.10739100000000001,2.02298,0.417206
578,5.78,-0.81589,0.054887999999999985,0.619695,-0.131882,2.065582,0.506699
579,5.79,-0.854663,-0.279622,0.997983,-0.129761,2.123108,0.565277
580,5.8,-0.9255479999999999,-0.625772,1.337963,-0.10845899999999999,2.216858,0.596176
581,5.81,-1.006061,-0.766258,1.518382,-0.07649199999999999,2.325516,0.615356
582,5.82,-0.720172,-1.113345,1.555027,-0.042404000000000004,2.445877,0.626007
583,5.83,-0.363944,-1.523747,1.480936,0.0012659999999999965,2.525772,0.616409
584,5.84,-0.016759999999999997,-1.7286830000000002,1.103051,0.042816,2.555603,0.627075
585,5.85,0.5948979999999999,-2.044178,0.673033,0.058792,2.521515,0.6494449999999999
586,5.86,1.291023,-2.333838,0.29689499999999996,0.037491000000000003,2.445877,0.686722
587,5.87,1.921586,-2.48385,0.056472,-0.007248000000000002,2.3564,0.719742
588,5.88,2.292911,-2.346741,0.011170999999999999,-0.07435599999999999,2.282898,0.734665
589,5.89,2.273788,-2.063555,0.15706099999999998,-0.139343,2.220047,0.728271
590,5.9,1.9389560000000001,-1.710368,0.325572,-0.18196099999999998,2.176376,0.690979
591,5.91,1.398266,-1.460948,0.478634,-0.20858800000000002,2.163589,0.629196
592,5.92,0.856959,-1.2522879999999998,0.7034239999999999,-0.216049,2.194489,0.54718
593,5.93,0.24013300000000004,-1.101479,0.864419,-0.190475,2.278641,0.466217
594,5.94,-0.4341320000000001,-0.966476,0.9038719999999999,-0.136154,2.395813,0.394836
595,5.95,-1.041684,-1.055974,0.747166,-0.07435599999999999,2.5193939999999997,0.340515
596,5.96,-1.616179,-1.192782,0.678523,-0.042404000000000004,2.635498,0.29577600000000004
597,5.97,-1.7804970000000002,-1.286642,0.639839,-0.041336000000000005,2.711136,0.253159
598,5.98,-1.764519,-1.215023,0.555143,-0.045609,2.7686610000000003,0.212677
599,5.99,-1.688837,-1.094339,0.579543,-0.039215,2.816589,0.173264
600,6.0,-1.474636,-0.839931,0.533924,-0.028564,2.867722,0.139175
601,6.01,-1.161463,-0.574569,0.534754,-0.022171,2.902878,0.106155
602,6.02,-0.967651,-0.32666799999999996,0.756839,-0.028564,2.94017,0.099762
603,6.03,-0.780217,0.009284999999999988,0.9750559999999999,-0.041336000000000005,3.024323,0.131714
604,6.04,-0.438071,0.378283,1.255735,-0.048798,3.178787,0.207352
605,6.05,0.15280300000000005,0.576951,1.3392030000000001,-0.048798,3.377991,0.303223
606,6.06,0.8630040000000001,0.5222939999999999,1.5157450000000001,-0.02536,3.5665440000000004,0.369278
607,6.07,1.347896,0.11232,1.535554,0.014053,3.7284699999999997,0.390579
608,6.08,1.7395209999999999,-0.40123600000000004,1.522675,0.04068,3.791321,0.384186
609,6.09,2.127414,-0.9167799999999999,1.412655,0.048141,3.759354,0.37886
610,6.1,2.314918,-1.251272,1.254334,0.042816,3.6805269999999997,0.379929
611,6.11,2.42433,-1.3606200000000002,1.039359,0.020447,3.648575,0.39271500000000004
612,6.12,2.613509,-1.0847950000000002,0.790996,-0.031754000000000004,3.636856,0.42147799999999996
613,6.13,2.628002,-0.5183909999999999,0.687137,-0.126556,3.654953,0.458755
614,6.14,2.5099259999999997,0.17125900000000002,0.9581200000000001,-0.254395,3.713547,0.48219300000000004
615,6.15,2.0654209999999997,0.734854,1.600432,-0.37796,3.7732089999999996,0.49070699999999995
616,6.16,1.161732,0.948264,2.484715,-0.459991,3.8264620000000003,0.48326099999999994
617,6.17,-0.04498999999999997,0.912875,3.271439,-0.481293,3.8712160000000004,0.47261000000000003
618,6.18,-1.076542,0.8404379999999999,3.7096489999999998,-0.45892299999999997,3.8786620000000003,0.457687
619,6.19,-1.8445150000000001,0.7844,3.8137519999999996,-0.43016099999999996,3.8317870000000003,0.44703699999999996
620,6.2,-2.314282,0.791837,3.6767019999999997,-0.406723,3.723129,0.43638599999999994
621,6.21,-2.552302,0.879131,3.371264,-0.39926100000000003,3.5867769999999997,0.433197
622,6.22,-2.581505,1.194113,2.860235,-0.38116500000000003,3.465347,0.43638599999999994
623,6.23,-2.241012,1.4924629999999999,2.222591,-0.340683,3.3545529999999997,0.418274
624,6.24,-1.8706470000000002,1.6235950000000001,1.655186,-0.29699699999999996,3.189438,0.363953
625,6.25,-1.707483,1.605805,1.294123,-0.250137,2.966797,0.32453899999999997
626,6.26,-1.514122,1.429465,1.0444639999999998,-0.18515,2.776123,0.330933
627,6.27,-1.129026,1.160104,0.7848689999999999,-0.103119,2.668518,0.380997
628,6.28,-0.680887,0.831626,0.29086,-0.013641000000000007,2.6461490000000003,0.44384799999999996
629,6.29,-0.351404,0.470562,-0.225704,0.039626999999999996,2.678116,0.48858599999999996
630,6.3,-0.277883,0.052203,-0.516324,0.064117,2.7612,0.518417
631,6.31,-0.367673,-0.399008,-0.6548970000000001,0.073715,2.866669,0.526932
632,6.32,-0.586091,-0.750838,-0.575886,0.08969099999999999,3.0051419999999998,0.5237430000000001
633,6.33,-0.849776,-1.095927,-0.388362,0.124847,3.157486,0.501373
634,6.34,-1.082164,-1.406548,-0.23482399999999998,0.172775,3.2980959999999997,0.474731
635,6.35,-1.2997809999999999,-1.603269,-0.141509,0.21539299999999997,3.403564,0.45661899999999994
636,6.36,-1.447322,-1.676437,-0.081625,0.23562600000000003,3.4536290000000003,0.46196000000000004
637,6.37,-1.506521,-1.6314879999999998,-0.0009450000000000014,0.23988299999999999,3.442978,0.498169
638,6.38,-1.484856,-1.462574,-0.069841,0.229233,3.3854519999999995,0.551437
639,6.39,-1.288477,-1.211602,-0.144947,0.203674,3.31514,0.61322
640,6.4,-0.986137,-1.0402559999999998,-0.30845100000000003,0.161057,3.2469639999999997,0.66861
641,6.41,-0.624942,-0.778831,-0.333097,0.102478,3.194763,0.710159
642,6.42,-0.297548,-0.564066,-0.150546,0.034286000000000004,3.152161,0.730392
643,6.43,0.026190999999999992,-0.373041,0.228307,-0.028564,3.096756,0.742111
644,6.44,0.384141,-0.24181,0.654536,-0.071167,3.030716,0.744247
645,6.45,0.630356,-0.139821,1.102118,-0.079697,2.961472,0.7495729999999999
646,6.46,0.869408,-0.138849,1.470207,-0.045609,2.90715,0.763428
647,6.47,1.095105,-0.14893,1.691128,0.014053,2.870926,0.780472
648,6.48,1.233499,-0.225345,1.729795,0.084366,2.8474880000000002,0.79538
649,6.49,1.2356610000000001,-0.283502,1.685124,0.151474,2.840027,0.798584
650,6.5,1.179302,-0.336509,1.568055,0.21646100000000001,2.834702,0.7857970000000001
651,6.51,0.995353,-0.339045,1.369507,0.257996,2.816589,0.748505
652,6.52,0.844899,-0.29978899999999997,1.176887,0.278244,2.773987,0.6952510000000001
653,6.53,0.721171,-0.285377,1.020237,0.28036500000000003,2.7122040000000003,0.63559
654,6.54,0.518999,-0.279455,0.951475,0.264389,2.6323090000000002,0.574875
655,6.55,0.258856,-0.40961499999999995,1.112176,0.243088,2.558807,0.5237430000000001
656,6.56,0.109537,-0.609739,1.346502,0.20579499999999998,2.501282,0.48219300000000004
657,6.57,0.006961,-0.834226,1.611958,0.166382,2.451218,0.45343
658,6.58,0.03482,-1.022607,1.828899,0.11738599999999999,2.396881,0.437454
659,6.59,0.139069,-1.15591,1.977989,0.066254,2.328705,0.423599
660,6.6,0.422705,-1.120147,2.125927,0.021515,2.2530669999999997,0.41082799999999997
661,6.61,0.635281,-0.8950530000000001,2.219666,-0.009384,2.185959,0.406555
662,6.62,0.945687,-0.649257,2.3160439999999998,-0.029617,2.135895,0.399109
663,6.63,1.2093200000000002,-0.320837,2.3645150000000004,-0.033889999999999997,2.067719,0.37886
664,6.64,1.374818,-0.079275,2.387528,-0.023224,1.989944,0.346909
665,6.65,1.485247,0.11249599999999997,2.352218,-0.0008540000000000006,1.8983459999999999,0.310684
666,6.66,1.6472080000000002,0.014905000000000003,2.342483,0.023636,1.809921,0.272339
667,6.67,1.7389259999999997,-0.22047900000000006,2.377089,0.02684,1.739609,0.233994
668,6.68,1.775553,-0.657909,2.405497,-0.0051270000000000005,1.6416169999999999,0.191376
669,6.69,1.770199,-1.003135,2.414273,-0.049866,1.443466,0.149826
670,6.7,2.223764,-0.9172520000000001,2.226044,-0.07862899999999999,1.1707610000000002,0.11361700000000001
671,6.71,2.760767,-0.15886100000000006,1.7396099999999999,-0.12123099999999999,0.8927309999999999,0.06781000000000001
672,6.72,3.1970669999999997,0.8253959999999999,1.380693,-0.20005799999999999,0.678604,0.017731
673,6.73,3.6049260000000003,1.973436,1.142677,-0.263977,0.5262760000000001,-0.04512
674,6.74,3.5216300000000005,2.843116,1.171742,-0.267181,0.415497,-0.11009200000000001
675,6.75,3.071797,3.240784,1.148772,-0.177689,0.373947,-0.142059
676,6.76,2.488799,3.3069559999999996,0.654666,-0.012573,0.39311199999999996,-0.146317
677,6.77,1.9728599999999998,2.9420990000000002,-0.10039900000000003,0.16212499999999996,0.44105500000000003,-0.107971
678,6.78,1.388084,2.296057,-0.9622780000000001,0.28569,0.5049739999999999,-0.03872699999999999
679,6.79,0.800547,1.5400989999999999,-1.6683279999999998,0.357071,0.566757,0.056091000000000016
680,6.8,0.393511,0.862331,-2.3379779999999997,0.380508,0.610428,0.147705
681,6.81,0.131322,0.304603,-2.814093,0.369858,0.599777,0.229721
682,6.82,0.017817,0.141763,-3.144727,0.328308,0.559296,0.301102
683,6.83,0.14497100000000002,0.075614,-3.2761549999999997,0.283569,0.5049739999999999,0.363953
684,6.84,0.344948,0.167418,-3.247361,0.24201999999999999,0.447449,0.399109
685,6.85,0.7762359999999999,0.257459,-2.860784,0.195145,0.40589899999999995,0.416153
686,6.86,1.253989,0.23634000000000002,-2.283091,0.15361,0.377136,0.405487
687,6.87,1.7983209999999998,0.22721799999999998,-1.68635,0.132294,0.373947,0.380997
688,6.88,2.312057,0.150286,-1.2815159999999999,0.13336199999999998,0.41017200000000004,0.333054
689,6.89,2.720914,-0.047681,-0.884805,0.144012,0.47300699999999996,0.272339
690,6.9,2.84859,-0.37069,-0.5984149999999999,0.163193,0.558243,0.207352
691,6.91,2.657368,-0.71818,-0.484257,0.188751,0.6423949999999999,0.13278199999999998
692,6.92,2.235009,-1.09961,-0.512302,0.209,0.702042,0.068863
693,6.93,1.703011,-1.376235,-0.564634,0.22071799999999997,0.714828,0.013474000000000002
694,6.94,1.250211,-1.50928,-0.7059850000000001,0.211121,0.697784,-0.031265
695,6.95,0.8832709999999999,-1.592044,-0.880495,0.182358,0.6541140000000001,-0.055771
696,6.96,0.6093029999999999,-1.5288110000000001,-0.897716,0.131226,0.591263,-0.076004
697,6.97,0.366628,-1.407119,-0.8397620000000001,0.081161,0.532669,-0.083466
698,6.98,0.286416,-1.292311,-0.70435,0.033234,0.48686199999999996,-0.079208
699,6.99,0.298668,-1.14151,-0.48705699999999996,-0.002991000000000001,0.481537,-0.06428500000000001
700,7.0,0.36137600000000003,-1.05472,-0.22082100000000002,-0.026427999999999997,0.49964899999999995,-0.048309
701,7.01,0.491148,-0.970975,0.04255600000000001,-0.032822000000000004,0.5103,-0.040848
702,7.02,0.68075,-0.9126850000000001,0.33114,-0.018966999999999998,0.523087,-0.037659
703,7.03,0.94211,-0.8757370000000001,0.494076,0.011917000000000002,0.546524,-0.040848
704,7.04,1.308447,-0.8787020000000001,0.5864550000000001,0.046005000000000004,0.583801,-0.060028
705,7.05,1.6614830000000003,-0.912956,0.676373,0.066254,0.611496,-0.08985900000000001
706,7.06,1.738479,-0.9901989999999999,0.729675,0.074768,0.618958,-0.123947
707,7.07,1.768059,-1.0510540000000002,0.772726,0.073715,0.601913,-0.146317
708,7.08,1.800432,-1.208905,0.8269709999999999,0.055603,0.565689,-0.15803499999999998
709,7.09,1.8519330000000003,-1.334329,0.913851,0.019379,0.5166930000000001,-0.154831
710,7.1,1.95713,-1.442124,1.057871,-0.032822000000000004,0.460236,-0.136719
711,7.11,1.9971130000000001,-1.5454430000000001,1.266818,-0.092468,0.39631700000000003,-0.11009200000000001
712,7.12,2.199288,-1.534916,1.4588079999999999,-0.155319,0.322815,-0.07814
713,7.13,2.3822509999999997,-1.44319,1.719025,-0.19368,0.22799699999999998,-0.058960000000000005
714,7.14,2.522684,-1.157443,1.9045919999999998,-0.195801,0.121475,-0.048309
715,7.15,2.783055,-0.862402,1.8839110000000001,-0.176636,0.024536,-0.042983999999999994
716,7.16,3.00685,-0.527075,1.7352349999999999,-0.16278099999999998,-0.047897,-0.042983999999999994
717,7.17,3.2022009999999996,-0.210414,1.606136,-0.173431,-0.084122,-0.047241000000000005
718,7.18,3.2236130000000003,-0.009367,1.6209870000000002,-0.216049,-0.108627,-0.062164
719,7.19,2.9950959999999998,0.018144999999999998,1.855089,-0.27037,-0.13205,-0.083466
720,7.2,2.425118,-0.035357,1.9693630000000002,-0.323639,-0.141647,-0.11009200000000001
721,7.21,1.733027,0.09912400000000003,2.067629,-0.36412,-0.155487,-0.120743
722,7.22,0.9126299999999999,0.689048,1.8717689999999998,-0.389679,-0.143768,-0.101578
723,7.23,0.10608999999999996,1.54142,1.5893389999999998,-0.426971,-0.110748,-0.051498
724,7.24,-0.6045779999999998,2.397742,1.430597,-0.480225,-0.134186,0.027327999999999998
725,7.25,-1.010535,2.96343,1.4838799999999999,-0.508987,-0.18212899999999999,0.11041300000000001
726,7.26,-0.978116,2.9756240000000003,1.245557,-0.436554,-0.218338,0.167938
727,7.27,-1.066577,2.659426,0.621712,-0.275696,-0.27374299999999996,0.176468
728,7.28,-1.344874,2.126817,-0.3354670000000001,-0.100998,-0.320602,0.129593
729,7.29,-1.846236,1.704484,-1.344185,0.021515,-0.337646,0.046494
730,7.3,-2.462549,1.7705799999999998,-2.064895,0.050277999999999996,-0.315277,-0.046173
731,7.31,-3.296914,2.390505,-2.5245509999999998,0.0001979999999999968,-0.25135799999999997,-0.119675
732,7.32,-4.114236,3.3001699999999996,-2.456209,-0.096741,-0.136322,-0.155899
733,7.33,-4.7173050000000005,4.271852,-2.013582,-0.180893,0.03625500000000001,-0.15270999999999998
734,7.34,-4.591571,4.880802,-1.414652,-0.203262,0.257828,-0.109024
735,7.35,-3.527618,4.643276,-0.960364,-0.141479,0.460236,-0.049377
736,7.36,-1.976003,3.568135,-0.8540000000000001,0.010863999999999985,0.592331,-0.013153
737,7.37,-0.5703350000000001,2.152755,-0.964043,0.18981900000000002,0.629608,-0.011032
738,7.38,0.49713599999999997,0.7018449999999999,-1.2509270000000001,0.34428400000000003,0.5891270000000001,-0.025939999999999998
739,7.39,1.191345,-0.61144,-1.700778,0.43803400000000003,0.49858100000000005,-0.028076
740,7.4,1.736,-2.26327,-2.265222,0.478516,0.314285,-0.01741
741,7.41,1.840271,-3.019197,-2.568969,0.46359300000000003,0.189651,-0.002501999999999999
742,7.42,1.708346,-3.522848,-2.825815,0.41566499999999995,0.09378099999999999,0.018799
743,7.43,1.406724,-3.604071,-2.920016,0.331497,0.024535999999999995,0.055023
744,7.44,0.8446790000000001,-3.3506970000000003,-2.816243,0.212189,-0.019135,0.084854
745,7.45,0.311823,-2.907604,-2.448089,0.08862300000000001,-0.03299,0.11573800000000001
746,7.46,0.032545999999999985,-2.455866,-1.759945,-0.012573,-0.031921,0.135986
747,7.47,-0.201399,-1.927166,-1.007692,-0.073303,-0.04364,0.137054
748,7.48,-0.320125,-1.435301,-0.272956,-0.085022,-0.060684,0.126389
749,7.49,-0.4553,-0.8587950000000001,0.374221,-0.054123000000000004,-0.069199,0.09550499999999999
750,7.5,-0.670149,-0.42606499999999997,0.781678,0.011917000000000004,-0.07559199999999999,0.064606
751,7.51,-0.9783040000000001,-0.096307,0.9738020000000001,0.090759,-0.092636,0.041168
752,7.52,-1.259725,-0.028422000000000003,0.977352,0.178101,-0.110748,0.036911
753,7.53,-1.473015,-0.188175,0.8333360000000001,0.246277,-0.11181600000000001,0.052887
754,7.54,-1.412467,-0.33976300000000004,0.600161,0.28889499999999996,-0.078796,0.096573
755,7.55,-1.204775,-0.48343,0.43355600000000005,0.292084,-0.02446,0.15196199999999999
756,7.56,-0.875344,-0.642084,0.350502,0.266525,0.034119,0.202026
757,7.57,-0.576466,-0.849467,0.428368,0.22711199999999998,0.076736,0.24144000000000002
758,7.58,-0.349769,-0.9685889999999999,0.6354380000000001,0.18556199999999998,0.098038,0.258484
759,7.59,-0.23281500000000002,-1.099417,0.8812989999999999,0.15040599999999998,0.094849,0.259552
760,7.6,-0.22676999999999997,-1.172728,1.171959,0.120575,0.09059099999999999,0.254227
761,7.61,-0.23646799999999998,-1.203058,1.460458,0.096085,0.10336300000000001,0.242508
762,7.62,-0.350429,-1.081819,1.814803,0.075836,0.139587,0.225464
763,7.63,-0.619541,-0.9899370000000001,2.065618,0.066254,0.196045,0.207352
764,7.64,-0.822785,-0.9130950000000001,2.255201,0.06518600000000001,0.25676,0.19883699999999999
765,7.65,-0.966309,-0.8909040000000001,2.3911700000000002,0.073715,0.316422,0.200958
766,7.66,-0.96488,-0.783936,2.369816,0.072647,0.378204,0.218002
767,7.67,-0.8362719999999999,-0.6771550000000001,2.352027,0.06304900000000001,0.42826800000000004,0.229721
768,7.68,-0.678755,-0.6690050000000001,2.264164,0.047073000000000004,0.448517,0.23825100000000002
769,7.69,-0.371867,-0.7071529999999999,2.125802,0.021515,0.427216,0.2276
770,7.7,-0.02179700000000001,-0.788904,1.909691,-0.024291999999999998,0.347321,0.20842
771,7.71,0.760867,-0.3209,1.601318,-0.100998,0.035187,0.15196199999999999
772,7.72,1.947523,0.847541,1.4710370000000002,-0.176636,-0.249237,0.09550499999999999
773,7.73,3.164491,2.459266,1.595815,-0.282089,-0.371735,0.011353000000000002
774,7.74,4.0479519999999996,3.889249,1.85227,-0.34494,-0.286514,-0.10476700000000001
775,7.75,3.893753,4.829761,1.9927080000000001,-0.290619,-0.171463,-0.254974
776,7.76,2.551447,5.244341,1.656765,-0.10739100000000001,-0.07986499999999999,-0.36788899999999997
777,7.77,1.497322,4.917204,0.743207,0.11525,-0.0031589999999999986,-0.41688500000000006
778,7.78,1.069412,4.09429,-0.15676199999999998,0.3134,0.004303,-0.42434700000000003
779,7.79,0.959619,3.1640099999999998,-0.9778959999999999,0.475311,-0.074524,-0.388123
780,7.8,1.515365,2.40216,-1.627761,0.579712,-0.243912,-0.318893
781,7.81,1.7063419999999998,1.7547270000000001,-2.1830529999999997,0.6255189999999999,-0.45163000000000003,-0.223007
782,7.82,1.865574,1.425777,-2.662225,0.6127319999999999,-0.629532,-0.099442
783,7.83,1.9517740000000001,1.164765,-2.996697,0.5477449999999999,-0.747772,0.026260000000000002
784,7.84,1.9665400000000002,0.901875,-2.945944,0.46147200000000005,-0.8298030000000001,0.141312
785,7.85,1.993,0.6496109999999999,-2.704151,0.376236,-0.887329,0.22013899999999997
786,7.86,1.8365220000000002,0.212319,-2.329813,0.319778,-0.9086299999999999,0.253159
787,7.87,1.427489,-0.322038,-2.024737,0.30806,-0.9054409999999999,0.242508
788,7.88,0.7807109999999999,-1.013784,-1.938986,0.32405100000000003,-0.850037,0.213745
789,7.89,0.07550899999999999,-1.629118,-2.109097,0.336823,-0.740326,0.162613
790,7.9,-0.555642,-2.0455,-2.313401,0.30806,-0.59758,0.099762
791,7.91,-1.061866,-2.2368580000000002,-2.522995,0.23136900000000002,-0.436722,0.047561999999999986
792,7.92,-1.457706,-2.257998,-2.5009580000000002,0.120575,-0.279068,0.004958999999999997
793,7.93,-1.565748,-2.2423509999999998,-2.245849,-0.006180000000000005,-0.146973,-0.01741
794,7.94,-1.430347,-2.0838,-1.789575,-0.115906,-0.058548,-0.031265
795,7.95,-1.099834,-1.835491,-1.201684,-0.18728599999999998,-0.0031589999999999986,-0.033401
796,7.96,-0.7027329999999999,-1.5510899999999999,-0.636677,-0.21284499999999998,0.028793,-0.036591000000000005
797,7.97,-0.188879,-1.206456,-0.20562800000000003,-0.19261199999999998,0.031998,-0.042983999999999994
798,7.98,0.24137199999999998,-1.017744,0.022448,-0.136154,0.019211000000000002,-0.060028
799,7.99,0.742827,-0.8880239999999999,0.037651,-0.06265300000000001,-0.009552,-0.080261
800,8.0,1.14095,-0.9019459999999999,0.016123,0.011917000000000004,-0.048964999999999995,-0.095184
801,8.01,1.4389319999999999,-0.9092049999999999,-0.10442799999999999,0.079041,-0.074524,-0.107971
802,8.02,1.6476520000000001,-0.900066,-0.29003,0.12271099999999999,-0.080917,-0.123947
803,8.03,1.7243549999999999,-0.857036,-0.514929,0.13761900000000002,-0.07347100000000001,-0.149506
804,8.04,1.574315,-0.7913680000000001,-0.579362,0.131226,-0.039383,-0.1772
805,8.05,1.309173,-0.7424149999999999,-0.539212,0.116318,0.014953999999999999,-0.215561
806,8.06,0.914009,-0.701857,-0.35482600000000003,0.102478,0.079926,-0.256042
807,8.07,0.613913,-0.722696,-0.09493600000000002,0.08223,0.134262,-0.289062
808,8.08,0.340517,-0.8591270000000001,0.177075,0.051330999999999995,0.167282,-0.32634
809,8.09,0.12456199999999999,-1.0132940000000001,0.44931499999999996,0.007659999999999999,0.18219000000000002,-0.342316
810,8.1,0.145757,-1.2509350000000001,0.649676,-0.044539999999999996,0.186462,-0.339127
811,8.11,0.28723200000000004,-1.388291,0.8811950000000001,-0.09992999999999999,0.181137,-0.317825
812,8.12,0.673319,-1.5464,1.063193,-0.155319,0.17686500000000002,-0.279465
813,8.13,1.195458,-1.6051739999999999,1.225692,-0.202194,0.16409300000000002,-0.235794
814,8.14,1.708923,-1.566735,1.315472,-0.24374400000000002,0.14491300000000001,-0.197449
815,8.15,2.080443,-1.47675,1.453418,-0.269302,0.100174,-0.16761800000000002
816,8.16,2.3786680000000002,-1.248775,1.706825,-0.284225,0.013885000000000002,-0.151642
817,8.17,2.661929,-1.031447,2.12526,-0.276764,-0.11288499999999999,-0.153763
818,8.18,2.891469,-0.839197,2.475549,-0.249069,-0.24710100000000002,-0.164429
819,8.19,3.090744,-0.720989,2.720591,-0.234146,-0.368546,-0.186798
820,8.2,3.0428450000000002,-0.848662,2.75356,-0.233093,-0.443115,-0.201706
821,8.21,2.59278,-1.1846079999999999,2.728377,-0.273575,-0.443115,-0.216614
822,8.22,1.8503,-1.49861,2.661915,-0.331085,-0.389847,-0.226212
823,8.23,0.7243229999999999,-1.310295,2.463772,-0.392883,-0.283325,-0.213425
824,8.24,-0.711691,-0.2406780000000001,2.100747,-0.44081099999999995,-0.110748,-0.174011
825,8.25,-2.0588919999999997,1.164475,1.783775,-0.5185850000000001,0.025604,-0.103699
826,8.26,-3.538041,2.444141,1.7418630000000002,-0.622971,0.049042,-0.018478
827,8.27,-4.827694999999999,3.25169,1.9518229999999999,-0.649612,0.06076,0.078461
828,8.28,-5.524814,3.4849769999999998,1.837761,-0.5185850000000001,0.098038,0.170074
829,8.29,-5.665062,3.502279,0.914475,-0.29274,0.121475,0.230789
830,8.3,-5.036674,3.5940489999999996,-1.0491840000000001,-0.057312,0.156631,0.27873200000000004
831,8.31,-4.205985,3.7382720000000003,-1.859384,-0.043472000000000004,0.154495,0.26808200000000004
832,8.32,-3.4264059999999996,4.128309,-2.305179,-0.094604,0.17260699999999998,0.232925
833,8.33,-2.5770869999999997,4.839486,-2.738849,-0.191544,0.249313,0.202026
834,8.34,-1.715338,5.416817,-2.6698180000000002,-0.317245,0.38353000000000004,0.18498199999999998
835,8.35,-0.6822090000000001,5.377317,-2.307052,-0.369446,0.5103,0.18605
836,8.36,0.5119279999999999,4.786206,-2.053014,-0.309784,0.596588,0.173264
837,8.37,1.53049,3.8615449999999996,-1.8504150000000001,-0.168106,0.633865,0.131714
838,8.38,2.2365939999999997,2.688242,-1.7991689999999998,0.019378999999999997,0.606171,0.073135
839,8.39,2.4783150000000003,1.311005,-1.8358720000000002,0.20579499999999998,0.544388,-0.003570999999999998
840,8.4,2.291254,0.09911299999999999,-2.03947,0.332565,0.466629,-0.074936
841,8.41,1.941113,-1.045841,-2.231528,0.389023,0.345184,-0.136719
842,8.42,1.313603,-1.969797,-2.42088,0.387955,0.21202100000000002,-0.181473
843,8.43,0.65067,-2.7186790000000003,-2.503304,0.348541,0.099106,-0.196381
844,8.44,0.08709200000000006,-3.315383,-2.498626,0.28036500000000003,0.011749,-0.191055
845,8.45,-0.502718,-3.7386730000000004,-2.369785,0.194077,-0.058548,-0.16229200000000002
846,8.46,-0.9592450000000001,-3.8911300000000004,-2.136126,0.11099200000000001,-0.10755899999999999,-0.11329700000000001
847,8.47,-1.31237,-3.743763,-1.680925,0.036423000000000004,-0.148041,-0.048309
848,8.48,-1.423418,-3.470281,-1.235829,-0.018966999999999998,-0.18425,0.025191999999999992
849,8.49,-1.3468069999999999,-3.026424,-0.754163,-0.051987,-0.210892,0.084854
850,8.5,-1.197181,-2.600462,-0.36933499999999997,-0.059448,-0.23326100000000002,0.130661
851,8.51,-0.982375,-2.1757779999999998,-0.08391000000000001,-0.037079,-0.254562,0.155151
852,8.52,-0.82,-1.74239,0.094419,-0.00618,-0.26947,0.167938
853,8.53,-0.683987,-1.285976,0.118104,0.022583000000000002,-0.276932,0.174332
854,8.54,-0.615939,-0.844141,0.107271,0.048141,-0.271606,0.18498199999999998
855,8.55,-0.553194,-0.579348,0.041195999999999997,0.06518600000000001,-0.266281,0.210556
856,8.56,-0.46207600000000004,-0.417555,0.11975899999999999,0.075836,-0.24710100000000002,0.248901
857,8.57,-0.150071,-0.348331,0.30648400000000003,0.087555,-0.219406,0.29470799999999997
858,8.58,0.09520299999999997,-0.30802199999999996,0.593746,0.090759,-0.193848,0.33519
859,8.59,0.342074,-0.364536,0.9758040000000001,0.08862300000000001,-0.177856,0.35968
860,8.6,0.429605,-0.561674,1.313858,0.077972,-0.185318,0.36181599999999997
861,8.61,0.357674,-0.8028810000000001,1.619408,0.066254,-0.20875500000000002,0.34903
862,8.62,0.106801,-1.171051,1.821839,0.058792,-0.231125,0.30749499999999996
863,8.63,-0.677271,-1.407115,2.01611,0.048141,-0.248169,0.230789
864,8.64,-1.194295,-1.416567,2.059243,0.038558999999999996,-0.21514899999999998,0.176468
865,8.65,-1.671789,-1.3350360000000001,2.053153,0.014053,-0.15123,0.12106300000000002
866,8.66,-1.969544,-1.253822,2.186907,-0.02536,-0.06282,0.091248
867,8.67,-1.954854,-1.109054,2.398441,-0.063705,0.052230999999999986,0.069931
868,8.68,-1.785368,-0.9169290000000001,2.673043,-0.103119,0.17686500000000002,0.070999
869,8.69,-1.446242,-0.8235040000000001,2.951621,-0.131882,0.282333,0.076324
870,8.7,-0.990202,-0.8787530000000001,3.042436,-0.154251,0.306839,0.080582
871,8.71,-0.41385,-0.980719,2.895258,-0.175568,0.202438,0.066742
872,8.72,0.6088779999999999,-0.9984049999999999,2.53382,-0.20432999999999998,-0.09477200000000001,0.040115
873,8.73,1.8707610000000001,-0.35874,1.8533529999999998,-0.260788,-0.509155,-0.011031999999999998
874,8.74,3.3550519999999997,0.682866,1.3783040000000002,-0.393936,-0.7328640000000001,-0.062164
875,8.75,4.586837999999999,2.003009,1.148947,-0.535629,-0.636993,-0.164429
876,8.76,4.72509,3.268365,0.917386,-0.564392,-0.42713900000000005,-0.3125
877,8.77,3.130088,4.194569,0.6133930000000001,-0.406723,-0.260956,-0.450974
878,8.78,0.8710760000000001,4.606971,-0.12319399999999996,-0.123367,-0.07559199999999999,-0.522354
879,8.79,-0.8300770000000001,4.464745,-1.24633,0.144012,0.058624,-0.518097
880,8.8,-1.82857,4.37129,-2.3364759999999998,0.291016,0.091644,-0.43073999999999996
881,8.81,-1.542216,4.799506,-3.119168,0.317657,-0.036179,-0.301849
882,8.82,-0.786891,5.467922,-3.377308,0.257996,-0.240707,-0.160156
883,8.83,0.5320860000000001,5.969606,-3.049711,0.168518,-0.36322,0.0006869999999999933
884,8.84,2.1177639999999998,5.999009,-2.29507,0.079041,-0.369614,0.15196199999999999
885,8.85,3.036493,5.045527,-1.3187,0.04068,-0.34510799999999997,0.26168800000000003
886,8.86,2.8554209999999998,3.303668,-0.63456,0.10141,-0.28225700000000004,0.31601
887,8.87,2.055457,1.539823,-0.682057,0.221786,-0.146973,0.337311
888,8.88,1.247196,-0.185107,-1.389413,0.332565,-0.03511,0.331985
889,8.89,0.5116149999999999,-1.715366,-2.139593,0.397552,0.029861000000000002,0.286179
890,8.9,-0.07463700000000001,-2.958052,-2.759443,0.409271,0.108688,0.2276
891,8.91,-0.610885,-3.848072,-3.110773,0.354935,0.181137,0.167938
892,8.92,-0.999634,-4.4210519999999995,-3.298655,0.24841300000000002,0.251434,0.130661
893,8.93,-1.097733,-4.771772,-3.285774,0.11099200000000001,0.285522,0.111481
894,8.94,-0.892552,-4.853485,-3.0247919999999997,-0.042404000000000004,0.280197,0.10508699999999999
895,8.95,-0.3821339999999999,-4.719957,-2.5801279999999998,-0.19686900000000002,0.22480799999999998,0.101898
896,8.96,0.262073,-4.33133,-1.9942970000000002,-0.322571,0.128937,0.090179
897,8.97,0.75159,-3.710053,-1.272026,-0.41204799999999997,0.037323,0.07206699999999999
898,8.98,1.142952,-2.9491110000000003,-0.637901,-0.46106,-0.025528,0.046494
899,8.99,1.454395,-2.1527849999999997,-0.10698000000000002,-0.45892299999999997,-0.053223,0.023071
900,9.0,1.634411,-1.314438,0.22178,-0.41951000000000005,-0.037247,-0.003570999999999999
901,9.01,1.731298,-0.602543,0.31452399999999997,-0.356659,0.016022,-0.032333
902,9.02,1.6499720000000002,-0.12734,0.37245,-0.298065,0.091644,-0.058960000000000005
903,9.03,1.441444,0.235449,0.391906,-0.241608,0.174744,-0.082397
904,9.04,1.169122,0.534442,0.340771,-0.18515,0.259964,-0.11009200000000001
905,9.05,0.81833,0.688493,0.336542,-0.126556,0.332397,-0.138855
906,9.06,0.4903,0.6828989999999999,0.370142,-0.055191,0.390991,-0.16761800000000002
907,9.07,0.157521,0.49833999999999995,0.43667,0.010864000000000002,0.42082200000000003,-0.182526
908,9.08,0.003379,0.188148,0.532977,0.044952,0.42933699999999997,-0.178268
909,9.09,0.006374000000000001,-0.23666399999999999,0.7081770000000001,0.046005000000000004,0.421875,-0.174011
910,9.1,0.033846,-0.615243,0.834118,0.022583000000000002,0.39631700000000003,-0.15803499999999998
911,9.11,0.128478,-0.9618680000000001,0.910718,-0.022171,0.37606799999999996,-0.12181099999999999
912,9.12,0.46701099999999995,-1.262793,0.916681,-0.06051599999999999,0.34944200000000003,-0.081329
913,9.13,0.962834,-1.471583,0.967342,-0.098862,0.31961100000000003,-0.037659
914,9.14,1.51215,-1.604114,1.005056,-0.130829,0.269547,-0.0014340000000000012
915,9.15,2.138125,-1.5393780000000001,1.129627,-0.148926,0.20883200000000002,0.027327999999999998
916,9.16,2.73829,-1.356946,1.243254,-0.154251,0.134262,0.024124
917,9.17,3.187576,-1.168124,1.4888370000000002,-0.126556,0.043716000000000005,-0.000366
918,9.18,3.446647,-1.0673549999999998,1.608819,-0.10739100000000001,-0.051102,-0.040848
919,9.19,3.442165,-1.12526,1.7556439999999998,-0.09992999999999999,-0.13311800000000001,-0.093048
920,9.2,3.141978,-1.368759,1.87664,-0.10739100000000001,-0.175735,-0.136719
921,9.21,2.5294689999999997,-1.59028,1.937935,-0.13508599999999998,-0.168274,-0.164429
922,9.22,1.68934,-1.438281,1.853158,-0.18728599999999998,-0.07772799999999999,-0.16655
923,9.23,0.42711400000000005,-0.507189,1.557175,-0.294876,0.034119,-0.132462
924,9.24,-0.8935630000000001,0.833925,1.519025,-0.46318100000000006,0.11508199999999999,-0.055771
925,9.25,-2.331961,2.264293,1.8053279999999998,-0.622971,0.10656700000000001,0.032654
926,9.26,-3.331034,3.334085,1.8586,-0.654938,0.073547,0.13385
927,9.27,-3.510192,3.858538,1.2400209999999998,-0.5164489999999999,-0.006348,0.210556
928,9.28,-3.320614,3.939139,0.328743,-0.307663,-0.12460299999999999,0.225464
929,9.29,-3.0657490000000003,3.7214989999999997,-0.49172200000000005,-0.122299,-0.22154200000000002,0.202026
930,9.3,-2.61586,3.612922,-1.139394,0.0001979999999999968,-0.292908,0.154099
931,9.31,-2.389308,3.640567,-1.341057,0.067322,-0.276932,0.083786
932,9.32,-2.2346209999999997,4.171963,-1.562176,0.119522,-0.152298,0.014542
933,9.33,-2.222498,4.877572,-1.9047150000000002,0.14721700000000001,0.044784999999999985,-0.047241000000000005
934,9.34,-2.4302639999999998,5.4516279999999995,-2.0866860000000003,0.149338,0.257828,-0.074936
935,9.35,-2.2787830000000002,5.538167,-2.024164,0.13656600000000002,0.448517,-0.061096000000000004
936,9.36,-1.441098,4.875845,-1.880782,0.146149,0.600845,-0.020615
937,9.37,-0.5611149999999999,3.6803730000000003,-1.875932,0.204742,0.686066,-0.014221000000000001
938,9.38,0.03628199999999998,2.197821,-2.0110639999999997,0.299545,0.677551,-0.04830899999999999
939,9.39,0.42267200000000005,0.8538610000000001,-2.3451150000000003,0.383698,0.552902,-0.096252
940,9.4,0.562443,-0.31099699999999997,-2.586808,0.40820300000000004,0.39418000000000003,-0.149506
941,9.41,0.6034109999999999,-1.321218,-2.7011220000000002,0.384766,0.247177,-0.188919
942,9.42,0.55745,-2.1373159999999998,-2.735816,0.32617199999999996,0.136398,-0.22195399999999998
943,9.43,0.486299,-2.850269,-2.633403,0.249481,0.07034299999999999,-0.24432399999999999
944,9.44,0.316284,-3.367826,-2.381279,0.18663,0.046906,-0.24218800000000001
945,9.45,0.11903,-3.7465410000000006,-1.990593,0.139755,0.039458999999999994,-0.211288
946,9.46,-0.28375700000000004,-3.769425,-1.510923,0.104599,0.045837,-0.159103
947,9.47,-0.630606,-3.523796,-1.185802,0.086487,0.06395,-0.099442
948,9.48,-0.8719600000000001,-3.109282,-0.920207,0.08969099999999999,0.076736,-0.046172999999999985
949,9.49,-0.999173,-2.658433,-0.655361,0.103531,0.069275,-0.006760000000000002
950,9.5,-0.996459,-2.2342310000000003,-0.502792,0.132294,0.066086,0.020935
951,9.51,-1.0260129999999998,-1.8116139999999998,-0.338524,0.16531400000000002,0.059691999999999995,0.041168
952,9.52,-1.119216,-1.382729,-0.30503800000000003,0.193024,0.06715399999999999,0.060349
953,9.53,-1.127137,-0.970102,-0.32708400000000004,0.20047,0.071411,0.084854
954,9.54,-1.0512299999999999,-0.593601,-0.366836,0.18449400000000002,0.05223099999999999,0.111481
955,9.55,-0.882798,-0.25546599999999997,-0.335079,0.164261,0.0021670000000000023,0.150894
956,9.56,-0.670963,0.01917600000000001,-0.305261,0.155731,-0.070267,0.204163
957,9.57,-0.20831999999999998,0.186694,-0.117243,0.162125,-0.142715,0.256363
958,9.58,0.19386,0.273999,0.152064,0.193024,-0.20768699999999998,0.310684
959,9.59,0.571516,0.19933,0.511304,0.228165,-0.25242600000000004,0.358627
960,9.6,0.8670040000000001,0.020558999999999997,0.805409,0.266525,-0.262024,0.389511
961,9.61,1.088017,-0.29480100000000004,1.0845420000000001,0.303802,-0.25563,0.39164699999999997
962,9.62,0.9975860000000001,-0.720494,1.2092690000000001,0.316589,-0.25669899999999995,0.360748
963,9.63,0.589065,-1.2004,1.3425790000000002,0.303802,-0.266281,0.306427
964,9.64,-0.02864899999999998,-1.6044120000000002,1.4721360000000001,0.257996,-0.297165,0.248901
965,9.65,-0.7004859999999999,-1.799754,1.625567,0.188751,-0.32806399999999997,0.200958
966,9.66,-1.175989,-1.8068,1.766301,0.11845399999999999,-0.34191900000000003,0.157288
967,9.67,-1.410993,-1.837072,1.84102,0.068375,-0.332321,0.12000999999999999
968,9.68,-1.837227,-1.5897,1.7768130000000002,0.042816,-0.286514,0.10829200000000001
969,9.69,-1.9400389999999998,-1.38765,1.842255,0.022583000000000002,-0.20982399999999998,0.11467000000000001
970,9.7,-1.9544529999999998,-1.250842,2.034964,0.000198000000000002,-0.13525399999999999,0.127457
971,9.71,-1.8787169999999997,-1.191163,2.244697,-0.029617,-0.067078,0.135986
972,9.72,-1.679643,-1.208318,2.396798,-0.064774,-0.040436,0.13278199999999998
973,9.73,-1.259564,-1.314023,2.419165,-0.098862,-0.07559199999999999,0.117874
974,9.74,-0.442659,-1.410017,2.214583,-0.138275,-0.206619,0.106155
975,9.75,0.824371,-1.155033,1.7267080000000001,-0.184082,-0.432465,0.083786
976,9.76,2.1395020000000002,-0.3120649999999999,1.064848,-0.25972,-0.6998439999999999,0.046494
977,9.77,3.6164449999999997,0.7853289999999999,0.825105,-0.39714099999999997,-0.836197,-0.009964
978,9.78,4.933211,1.8884450000000002,1.1567,-0.542007,-0.7797390000000001,-0.096252
979,9.79,5.021975,2.594809,1.6208770000000001,-0.585693,-0.648712,-0.23472600000000002
980,9.8,3.450506,2.8188299999999997,1.4492690000000001,-0.48768599999999995,-0.563492,-0.364685
981,9.81,1.843981,2.821525,0.692929,-0.312988,-0.531525,-0.441391
982,9.82,0.801829,2.8685259999999997,-0.5737140000000001,-0.151062,-0.540054,-0.450974
983,9.83,0.50464,3.142707,-1.741602,-0.049866,-0.621017,-0.42753599999999997
984,9.84,0.817546,3.6981260000000002,-2.400405,-0.016846,-0.7893220000000001,-0.382797
985,9.85,1.151629,4.593608000000001,-2.751019,-0.032822000000000004,-0.965088,-0.314621
986,9.86,1.89525,5.755855,-2.69286,-0.094604,-1.05777,-0.22514299999999998
987,9.87,2.434549,6.538342,-2.0805700000000003,-0.19368,-0.998123,-0.164429
988,9.88,2.222753,6.484019,-0.996467,-0.238419,-0.8372649999999999,-0.143112
989,9.89,1.092692,5.195075,-0.171495,-0.11804200000000001,-0.6646880000000001,-0.138855
990,9.9,-0.2755410000000001,3.4071629999999997,-0.21608000000000002,0.13656600000000002,-0.487854,-0.118622
991,9.91,-1.1942190000000001,1.4867659999999998,-1.004364,0.383698,-0.351501,-0.079208
992,9.92,-1.6670880000000001,-0.13631899999999994,-2.0217110000000003,0.557343,-0.293976,-0.055771
993,9.93,-2.118128,-1.4696129999999998,-2.83677,0.636169,-0.28118899999999997,-0.034454000000000005
994,9.94,-2.39342,-2.402662,-3.347525,0.622314,-0.249237,-0.004639000000000001
995,9.95,-2.378479,-3.048934,-3.583273,0.541367,-0.164017,0.043304
996,9.96,-2.033561,-3.468321,-3.613951,0.403946,-0.042572000000000006,0.08590700000000001
997,9.97,-1.410296,-3.7040900000000003,-3.50205,0.229233,0.076736,0.117874
998,9.98,-0.725669,-3.707118,-3.07796,0.04707300000000002,0.13000499999999998,0.129593
999,9.99,0.03908299999999998,-3.6748,-2.214094,-0.10845899999999999,0.160889,0.125336
1000,10.0,0.691076,-3.445332,-1.451491,-0.20539899999999997,0.171539,0.10934400000000001
1001,10.01,1.172914,-2.9613389999999997,-0.798374,-0.241608,0.189651,0.09443700000000001
1002,10.02,1.483727,-2.3729310000000003,-0.386335,-0.220306,0.21415700000000001,0.073135
1003,10.03,1.621947,-1.712952,-0.17543,-0.170242,0.252502,0.050766000000000006
1004,10.04,1.665625,-1.122852,-0.063378,-0.11058,0.282333,0.029449
1005,10.05,1.707036,-0.625739,-0.01372,-0.058379999999999994,0.316422,0.006027000000000001
1006,10.06,1.618096,-0.19614700000000002,-0.018421,-0.015778,0.353699,-0.021683
1007,10.07,1.3826049999999999,0.12431,-0.02134,0.027908,0.397385,-0.049377
1008,10.08,0.994561,0.380079,-0.10603499999999999,0.073715,0.43998699999999996,-0.087723
1009,10.09,0.594992,0.486939,-0.182153,0.129105,0.47088599999999997,-0.134598
1010,10.1,0.240008,0.389814,-0.186388,0.17491099999999998,0.495392,-0.181473
1011,10.11,0.019076,0.300329,-0.135188,0.204742,0.509232,-0.224075
1012,10.12,-0.071698,0.07428599999999999,-0.036851000000000016,0.21006799999999998,0.533737,-0.25177
1013,10.13,-0.036747,-0.257372,0.057072999999999985,0.19728099999999998,0.557175,-0.262421
1014,10.14,0.009106999999999999,-0.5979399999999999,0.290069,0.170654,0.572083,-0.254974
1015,10.15,0.17017100000000002,-0.9468219999999999,0.458284,0.13868699999999998,0.588058,-0.22195399999999998
1016,10.16,0.537359,-1.277037,0.580099,0.09820599999999999,0.5944520000000001,-0.182526
1017,10.17,1.013468,-1.517415,0.689894,0.04068,0.598709,-0.137787
1018,10.18,1.602364,-1.692035,0.6871189999999999,-0.021103,0.5976560000000001,-0.103699
1019,10.19,1.959538,-1.898909,0.7927350000000001,-0.090347,0.575287,-0.08985900000000001
1020,10.2,2.1672279999999997,-1.845975,0.836829,-0.14999400000000002,0.5475770000000001,-0.082397
1021,10.21,2.232988,-1.67671,0.9122530000000001,-0.191544,0.502838,-0.074936
1022,10.22,2.19917,-1.5862040000000002,1.190377,-0.238419,0.43998699999999996,-0.077072
1023,10.23,1.9103029999999999,-1.477984,1.52678,-0.290619,0.36969,-0.080261
1024,10.24,1.79083,-1.375165,1.8600430000000001,-0.35347,0.30896,-0.086655
1025,10.25,1.460011,-1.4838770000000001,2.308595,-0.40565500000000004,0.24610900000000002,-0.087723
1026,10.26,1.049282,-1.671576,2.571294,-0.45253000000000004,0.215225,-0.07386799999999999
1027,10.27,0.760655,-1.69128,2.723703,-0.502594,0.23120100000000002,-0.032333
1028,10.28,0.32945399999999997,-1.374325,2.758011,-0.539886,0.306839,0.019867
1029,10.29,-0.214928,-0.378896,2.340424,-0.576096,0.397385,0.0923
1030,10.3,-0.4877,0.9975219999999999,2.029598,-0.6506649999999999,0.44319200000000003,0.180725
1031,10.31,-0.8701840000000001,2.5780819999999998,1.9983540000000002,-0.722046,0.42933699999999997,0.28512600000000005
1032,10.32,-1.2251319999999999,4.0136389999999995,1.771032,-0.71991,0.365417,0.40016199999999996
1033,10.33,-0.990684,4.849683,1.0595860000000001,-0.608063,0.32814,0.474731
1034,10.34,-0.632322,4.920944,0.029611999999999968,-0.40565500000000004,0.22587600000000002,0.47793599999999997
1035,10.35,-0.30862399999999995,4.447471,-0.949574,-0.20645100000000002,0.10231,0.404434
1036,10.36,-0.074864,3.6606669999999997,-1.63637,-0.057312,-0.022339,0.290451
1037,10.37,-0.393386,2.979223,-2.134091,0.030029000000000004,-0.071335,0.164749
1038,10.38,-0.794841,2.777469,-2.509116,0.044952,-0.046829,0.062485
1039,10.39,-1.4841540000000002,2.854924,-2.615015,0.019379,0.057555999999999996,-0.002502000000000001
1040,10.4,-2.211092,3.06976,-2.669126,0.01619,0.277008,-0.027007999999999997
1041,10.41,-2.761381,3.148806,-2.573548,0.034286000000000004,0.585938,-0.047241000000000005
1042,10.42,-3.204268,3.0864119999999997,-2.451421,0.046005000000000004,0.911911,-0.080261
1043,10.43,-3.4796339999999994,2.756091,-2.019956,0.02684,1.169693,-0.12181099999999999
1044,10.44,-3.3077650000000003,2.125455,-1.4102569999999999,0.007659999999999999,1.344406,-0.153763
1045,10.45,-2.7467900000000003,1.326084,-0.9827,0.027908,1.428558,-0.17507899999999998
1046,10.46,-2.1963630000000003,0.5519340000000001,-0.9239450000000001,0.079041,1.4008639999999999,-0.183594
1047,10.47,-1.700247,-0.212876,-1.131524,0.139755,1.297531,-0.15803499999999998
1048,10.48,-1.0172459999999999,-0.913242,-1.424487,0.172775,1.146255,-0.102631
1049,10.49,-0.338513,-1.5536590000000001,-1.769824,0.18023699999999998,1.0013889999999999,-0.029129
1050,10.5,0.229273,-2.096332,-1.9765110000000001,0.162125,0.894867,0.061417
1051,10.51,0.597368,-2.6398770000000003,-2.140625,0.116318,0.842667,0.203094
1052,10.52,0.446618,-2.732817,-2.1288,0.075836,0.890594,0.28299
1053,10.53,0.17264100000000002,-2.510145,-2.1046650000000002,0.026840000000000003,0.999252,0.339447
1054,10.54,-0.05352100000000001,-2.233521,-1.9084139999999998,-0.022171,1.124954,0.365021
1055,10.55,-0.481808,-1.8686040000000002,-1.4022700000000001,-0.050934,1.251724,0.360748
1056,10.56,-1.038011,-1.515112,-0.8818219999999999,-0.054123000000000004,1.380615,0.351166
1057,10.57,-1.6331360000000001,-1.123837,-0.44142700000000007,-0.034943,1.500992,0.343704
1058,10.58,-2.174427,-0.840923,-0.05405399999999999,-0.0051270000000000005,1.607529,0.346909
1059,10.59,-2.54934,-0.568239,0.136631,0.034286000000000004,1.7055209999999998,0.355423
1060,10.6,-2.805962,-0.308084,0.255355,0.061996,1.786484,0.367142
1061,10.61,-2.936731,-0.123028,0.338897,0.080093,1.862122,0.38739
1062,10.62,-2.8277509999999997,0.023664000000000004,0.414642,0.090759,1.926041,0.41188
1063,10.63,-2.6109240000000002,0.126256,0.443242,0.09820599999999999,1.983566,0.444916
1064,10.64,-2.1432599999999997,0.17232999999999998,0.5100439999999999,0.104599,2.051743,0.485382
1065,10.65,-1.575971,0.104581,0.6283850000000001,0.11845399999999999,2.12204,0.532257
1066,10.66,-1.057742,0.004451999999999998,0.704511,0.139755,2.199814,0.56955
1067,10.67,-0.656663,-0.06713999999999999,0.762051,0.171707,2.279709,0.603638
1068,10.68,-0.43778100000000003,-0.223723,0.7430100000000001,0.20686300000000002,2.363861,0.622803
1069,10.69,-0.353045,-0.317423,0.696673,0.23350500000000002,2.4213869999999997,0.632401
1070,10.7,-0.471876,-0.508212,0.6299899999999999,0.23988299999999999,2.4714509999999996,0.628128
1071,10.71,-0.667168,-0.637841,0.558172,0.23030100000000003,2.5140689999999997,0.617477
1072,10.72,-0.9128440000000001,-0.703212,0.559314,0.191956,2.55986,0.607895
1073,10.73,-1.304974,-0.663694,0.622421,0.144012,2.606735,0.598312
1074,10.74,-1.729803,-0.604345,0.7419600000000001,0.091812,2.6504209999999997,0.592987
1075,10.75,-2.1050619999999998,-0.6149640000000001,0.9851200000000001,0.046005000000000004,2.6695860000000002,0.595108
1076,10.76,-2.26867,-0.617085,1.332069,0.009796,2.6706540000000003,0.605759
1077,10.77,-2.301223,-0.699289,1.714215,-0.02536,2.666397,0.620682
1078,10.78,-2.258475,-0.746154,2.096805,-0.054123000000000004,2.677048,0.6462399999999999
1079,10.79,-2.10003,-0.8711690000000001,2.435269,-0.07756,2.7026060000000003,0.671814
1080,10.8,-1.8689509999999998,-0.930315,2.655996,-0.09992999999999999,2.7505490000000004,0.685654
1081,10.81,-1.5775299999999999,-0.8800030000000001,2.805552,-0.126556,2.803818,0.6792600000000001
1082,10.82,-1.324027,-0.897076,2.948673,-0.131882,2.840027,0.653702
1083,10.83,-1.1011799999999998,-0.8562649999999999,3.0303400000000003,-0.106323,2.867722,0.61322
1084,10.84,-0.9739190000000001,-0.9349850000000001,2.88028,-0.063705,2.909271,0.579132
1085,10.85,-0.813431,-1.047688,2.694067,-0.01152,2.935913,0.5556949999999999
1086,10.86,-0.680962,-1.140413,2.440759,0.030029000000000004,2.928452,0.546112
1087,10.87,-0.50226,-1.071365,2.0650049999999998,0.049210000000000004,2.900757,0.54718
1088,10.88,-0.40604,-0.86966,1.692064,0.028961,2.84642,0.562088
1089,10.89,-0.254424,-0.5075069999999999,1.564707,-0.021103,2.809143,0.587646
1090,10.9,0.021261,-0.174478,1.49016,-0.087143,2.7857060000000002,0.600433
1091,10.91,0.194702,0.10674699999999998,1.5521610000000001,-0.14573699999999998,2.765457,0.587646
1092,10.92,0.573468,0.209904,1.6131309999999999,-0.177689,2.771851,0.562088
1093,10.93,1.3870790000000002,0.364644,1.744204,-0.214981,2.825119,0.498169
1094,10.94,2.239464,0.380959,1.886796,-0.254395,2.881577,0.41188
1095,10.95,3.0115790000000002,0.432488,1.8611529999999998,-0.256531,2.892227,0.311752
1096,10.96,3.543333,0.401358,1.525328,-0.2267,2.841095,0.202026
1097,10.97,3.8260410000000005,0.335872,0.9725799999999999,-0.179825,2.704742,0.0923
1098,10.98,4.044993,0.270483,0.354867,-0.11271700000000001,2.5193939999999997,0.014542
1099,10.99,4.26396,0.37990300000000005,-0.062210000000000015,-0.022171,2.329773,-0.024872
1100,11.0,4.464574,0.659148,-0.49391899999999994,0.048141,2.21579,-0.040848
1101,11.01,4.474147,1.258538,-1.0539889999999998,0.06304900000000001,2.214722,-0.046173
1102,11.02,3.9565129999999997,1.812698,-1.7132740000000002,0.020447,2.286102,-0.047241000000000005
1103,11.03,2.7024529999999998,2.083595,-1.9399259999999998,-0.060515999999999986,2.35321,-0.01741
1104,11.04,1.327367,2.09464,-1.6948029999999998,-0.123367,2.407532,0.07099900000000002
1105,11.05,0.464628,1.851159,-1.286993,-0.151062,2.4629209999999997,0.195633
1106,11.06,-0.03808799999999996,1.687943,-0.9948379999999999,-0.156387,2.4821009999999997,0.327728
1107,11.07,-0.056524,1.322964,-0.7804449999999999,-0.142548,2.466125,0.45982399999999995
1108,11.08,0.227503,0.985403,-0.803017,-0.116974,2.391556,0.5578310000000001
1109,11.09,0.655818,0.667201,-0.9742370000000001,-0.07862899999999999,2.277573,0.627075
1110,11.1,1.213116,0.310836,-1.1939620000000002,-0.027496,2.166779,0.667542
1111,11.11,1.7705689999999998,-0.15576199999999998,-1.386592,0.014053,2.09967,0.670746
1112,11.12,2.2151970000000003,-0.666266,-1.4951379999999999,0.032166,2.080505,0.644119
1113,11.13,2.309699,-1.086814,-1.526351,0.017242,2.095413,0.6047060000000001
1114,11.14,2.141131,-1.3985370000000001,-1.5315159999999999,-0.030685000000000004,2.136963,0.576996
1115,11.15,1.788923,-1.495371,-1.553985,-0.10845899999999999,2.19342,0.56102
1116,11.16,1.2905659999999999,-1.34833,-1.509199,-0.197937,2.260529,0.556763
1117,11.17,0.8408049999999999,-1.212077,-1.3181559999999999,-0.27037,2.32019,0.568481
1118,11.18,0.572335,-1.1173899999999999,-1.056645,-0.31404099999999996,2.360657,0.573807
1119,11.19,0.623326,-1.089227,-0.7674880000000001,-0.336426,2.372375,0.573807
1120,11.2,0.985651,-1.109177,-0.581801,-0.340683,2.3468169999999997,0.563156
1121,11.21,1.399159,-0.991467,-0.588331,-0.337479,2.296753,0.548233
1122,11.22,1.615191,-0.713447,-0.729695,-0.330032,2.231766,0.538651
1123,11.23,1.6562139999999999,-0.47310399999999997,-0.889767,-0.32150300000000004,2.166779,0.546112
1124,11.24,1.766159,-0.223347,-0.959133,-0.306595,2.098602,0.551437
1125,11.25,1.8193740000000003,-0.037183,-0.9696170000000001,-0.282089,2.029373,0.541855
1126,11.26,1.759436,0.121645,-0.911997,-0.24800100000000003,1.955856,0.51947
1127,11.27,1.5890030000000002,0.268351,-0.9206139999999999,-0.199005,1.8919529999999998,0.49284399999999995
1128,11.28,1.323218,0.40822600000000003,-1.045472,-0.14573699999999998,1.834427,0.466217
1129,11.29,1.015608,0.48193199999999997,-1.1674950000000002,-0.085022,1.777969,0.44703699999999996
1130,11.3,0.591168,0.487813,-1.390809,-0.027496,1.732162,0.440643
1131,11.31,0.370651,0.561277,-1.565858,0.019379,1.698074,0.44384799999999996
1132,11.32,0.108085,0.474351,-1.694566,0.053466999999999994,1.667175,0.458755
1133,11.33,-0.11824000000000001,0.33631,-1.888471,0.077972,1.6394810000000002,0.48326099999999994
1134,11.34,-0.21387899999999999,0.303844,-2.039731,0.075836,1.6203,0.509888
1135,11.35,-0.079055,0.234963,-2.2519669999999996,0.054535,1.598999,0.539719
1136,11.36,0.28271399999999997,0.23701999999999998,-2.303667,0.022583000000000002,1.570236,0.5556949999999999
1137,11.37,0.6239899999999999,0.26868800000000004,-2.306963,-0.013641,1.563843,0.56955
1138,11.38,0.9636889999999999,0.44567399999999996,-2.268239,-0.042404000000000004,1.5883479999999999,0.573807
1139,11.39,1.229717,0.6089720000000001,-2.194823,-0.057312,1.617111,0.563156
1140,11.4,1.229998,0.943895,-2.195926,-0.051987,1.6437380000000001,0.543976
1141,11.41,1.292353,1.1338620000000001,-2.109471,-0.043472000000000004,1.646942,0.531189
1142,11.42,1.343344,1.1379059999999999,-1.8973849999999999,-0.029617,1.6330870000000002,0.516281
1143,11.43,1.387356,1.166109,-1.6533849999999999,-0.01152,1.603256,0.5088199999999999
1144,11.44,1.3991209999999998,1.198089,-1.4350610000000001,0.009796,1.585144,0.5109560000000001
1145,11.45,1.529564,1.272464,-1.3708,0.039626999999999996,1.581955,0.514145
1146,11.46,1.681257,1.2968950000000001,-1.327823,0.08223,1.5830229999999998,0.5088199999999999
1147,11.47,1.8237029999999999,1.273398,-1.4088049999999999,0.140823,1.555328,0.484329
1148,11.48,1.8662189999999999,1.201415,-1.4842090000000001,0.191956,1.499924,0.450241
1149,11.49,1.7180689999999998,1.093193,-1.337587,0.196213,1.417908,0.41082799999999997
1150,11.5,1.238298,1.002642,-0.902442,0.116318,1.324158,0.390579
1151,11.51,0.796204,1.534986,-0.455991,-0.040268000000000005,1.348663,0.41188
1152,11.52,0.634361,2.323604,0.09473800000000003,-0.20005799999999999,1.519104,0.416153
1153,11.53,0.14273600000000006,2.7538150000000003,0.829997,-0.261856,1.692749,0.395905
1154,11.54,-0.7244510000000001,2.554396,1.667128,-0.20645100000000002,1.7715759999999998,0.402298
1155,11.55,-1.604884,1.74744,2.2019349999999998,-0.079697,1.805664,0.444916
1156,11.56,-2.309581,0.548613,2.662538,0.07797199999999999,1.8482669999999999,0.49070699999999995
1157,11.57,-3.263375,-0.6440899999999999,2.9569919999999996,0.23562600000000003,1.92923,0.522675
1158,11.58,-4.190631,-1.820287,3.056698,0.37411500000000003,2.009125,0.543976
1159,11.59,-4.390521,-2.6553,2.823317,0.46359300000000003,2.078369,0.551437
1160,11.6,-3.631737,-3.100142,2.143241,0.485962,2.0922240000000003,0.534393
1161,11.61,-2.5214939999999997,-2.76658,1.106127,0.42524700000000004,2.041077,0.471542
1162,11.62,-1.505361,-1.95335,-0.02048799999999995,0.265457,1.914322,0.384186
1163,11.63,-0.33771999999999996,-0.665037,-0.87856,0.043884000000000006,1.718307,0.29470799999999997
1164,11.64,0.6447229999999999,0.6988989999999999,-1.103062,-0.183014,1.479691,0.22865300000000002
1165,11.65,1.424492,1.9659259999999998,-0.532779,-0.387558,1.2804870000000002,0.187119
1166,11.66,1.8258419999999997,2.619553,0.5701069999999999,-0.507919,1.1867370000000002,0.16687000000000002
1167,11.67,1.3824290000000001,2.865504,1.776359,-0.50473,1.205917,0.131714
1168,11.68,0.658899,2.589865,2.677419,-0.37796,1.310318,0.08165
1169,11.69,-0.2545080000000001,1.939425,2.891251,-0.15745499999999998,1.445602,0.017731
1170,11.7,-1.220033,1.0481260000000001,2.539882,0.06304900000000001,1.5755620000000001,-0.04830899999999999
1171,11.71,-1.8725509999999999,0.124624,1.794348,0.22283899999999998,1.665039,-0.09730499999999999
1172,11.72,-2.448842,-0.7994859999999999,0.901639,0.320847,1.699127,-0.123947
1173,11.73,-2.669648,-1.5759999999999998,0.05202699999999999,0.354935,1.71405,-0.137787
1174,11.74,-2.591209,-2.252565,-0.554763,0.320847,1.6970060000000002,-0.134598
1175,11.75,-2.197463,-2.670057,-0.7938,0.251602,1.6533200000000001,-0.11116
1176,11.76,-1.564746,-2.865585,-0.9141040000000001,0.157867,1.589417,-0.06854199999999999
1177,11.77,-0.796768,-2.8817630000000003,-1.02016,0.04921,1.503128,-0.020615
1178,11.78,-0.15688400000000002,-2.7442330000000004,-1.116143,-0.050934,1.40831,0.031586
1179,11.79,0.24112399999999998,-2.482477,-1.1444889999999999,-0.131882,1.298599,0.07420299999999999
1180,11.8,0.5014850000000001,-2.156713,-1.087641,-0.180893,1.1728969999999999,0.10829200000000001
1181,11.81,0.600198,-1.751096,-1.024824,-0.199005,1.051453,0.124268
1182,11.82,0.645328,-1.394953,-0.9547540000000001,-0.191544,0.952377,0.128525
1183,11.83,0.765389,-1.03433,-0.9861270000000001,-0.15745499999999998,0.889526,0.11467000000000001
1184,11.84,0.9561540000000001,-0.796519,-1.112914,-0.103119,0.8341370000000001,0.09550499999999999
1185,11.85,1.100278,-0.588743,-1.2757209999999999,-0.046661,0.7702180000000001,0.068863
1186,11.86,1.1815950000000002,-0.507778,-1.480917,0.012985,0.684998,0.046494
1187,11.87,1.1842549999999998,-0.437345,-1.730505,0.06518600000000001,0.590195,0.034775
1188,11.88,1.1841540000000002,-0.426428,-2.0044720000000003,0.09287999999999999,0.474075,0.036911
1189,11.89,1.020734,-0.36642399999999997,-2.195358,0.108856,0.347321,0.046494
1190,11.9,0.8684559999999999,-0.39574000000000004,-2.365319,0.113129,0.2099,0.065674
1191,11.91,0.63765,-0.46870900000000004,-2.49385,0.119522,0.061829,0.083786
1192,11.92,0.288455,-0.388547,-2.579027,0.119522,-0.080917,0.10508699999999999
1193,11.93,-0.07310800000000002,-0.163928,-2.6855830000000003,0.11845399999999999,-0.20875500000000002,0.123199
1194,11.94,-0.554237,0.143922,-2.738763,0.108856,-0.28865100000000005,0.134918
1195,11.95,-1.101129,0.560779,-2.781438,0.08862300000000001,-0.309952,0.126389
1196,11.96,-1.645012,0.959285,-2.769838,0.058792,-0.271606,0.096573
1197,11.97,-2.055084,1.187368,-2.657778,0.020447,-0.201294,0.049698
1198,11.98,-2.184482,1.276521,-2.54215,-0.01152,-0.13525399999999999,-0.006760000000000002
1199,11.99,-1.973155,1.523819,-2.4420990000000002,-0.039215,-0.080917,-0.07281499999999999
1200,12.0,-1.3984159999999999,2.076612,-2.486129,-0.08075,-0.08519,-0.122879
1201,12.01,-0.906777,2.814942,-2.470329,-0.130829,-0.17040999999999998,-0.153763
1202,12.02,-0.657658,3.522049,-2.344341,-0.139343,-0.29184,-0.147385
1203,12.03,-0.44110900000000003,3.902047,-2.0260599999999998,-0.081818,-0.405823,-0.098373
1204,12.04,-0.31311700000000003,3.7580949999999995,-1.473254,0.009796,-0.44737200000000005,-0.035522000000000005
1205,12.05,-0.08505700000000001,3.4260599999999997,-0.674479,0.028961,-0.44737200000000005,0.020935
1206,12.06,0.087394,3.709745,0.432917,-0.092468,-0.48678599999999994,0.034775
1207,12.07,0.065014,4.356347,2.16095,-0.31192,-0.526199,0.020935
1208,12.08,-0.15421899999999994,4.335625,3.797448,-0.416321,-0.46122700000000005,-0.012085000000000002
1209,12.09,-0.263756,3.551596,4.599691,-0.312988,-0.305695,-0.051498
1210,12.1,0.187479,2.0232189999999997,4.334905,-0.07969700000000003,-0.134186,-0.099442
1211,12.11,0.8933629999999999,0.379267,3.6666449999999995,0.161057,-0.06282,-0.151642
1212,12.12,1.782947,-1.100069,2.95735,0.354935,-0.071335,-0.19957
1213,12.13,2.805711,-2.015376,2.1092560000000002,0.473175,-0.122467,-0.24644499999999997
1214,12.14,3.514075,-2.487459,1.225574,0.505142,-0.218338,-0.265625
1215,12.15,3.458085,-2.470176,0.32263699999999995,0.432709,-0.41114799999999996,-0.265625
1216,12.16,3.0024290000000002,-2.0418939999999997,-0.39971999999999996,0.25906399999999996,-0.624207,-0.24432399999999999
1217,12.17,2.3536669999999997,-1.303983,-0.72865,0.036423000000000004,-0.806366,-0.201706
1218,12.18,1.672864,-0.539787,-0.58508,-0.169174,-0.883072,-0.142059
1219,12.19,0.934422,0.18295399999999995,0.092337,-0.306595,-0.8585659999999999,-0.077072
1220,12.2,0.291622,0.9016770000000001,0.9413889999999999,-0.36837800000000004,-0.7871859999999999,-0.015288999999999997
1221,12.21,-0.102133,1.3248440000000001,1.680015,-0.352402,-0.726471,0.046494
1222,12.22,-0.20525900000000002,1.489614,2.1509,-0.261856,-0.704102,0.090179
1223,12.23,-0.100645,1.267291,2.2419990000000003,-0.111649,-0.71582,0.111481
1224,12.24,0.017647000000000003,0.804894,1.86904,0.06411700000000001,-0.727539,0.111481
1225,12.25,0.313747,0.109062,1.260638,0.224976,-0.700912,0.091248
1226,12.26,0.45299300000000003,-0.6049909999999998,0.576378,0.353867,-0.678543,0.064606
1227,12.27,0.704501,-1.603082,-0.109274,0.430573,-0.6859890000000001,0.039047000000000005
1228,12.28,0.7741979999999999,-2.3908720000000003,-0.70844,0.44975299999999996,-0.736053,0.017731
1229,12.29,0.6741729999999999,-3.1919999999999997,-1.078123,0.41671800000000003,-0.7712100000000001,0.0070799999999999995
1230,12.3,0.620976,-3.752557,-1.332399,0.35281399999999996,-0.805298,0.013474000000000002
1231,12.31,0.5506850000000001,-4.011652,-1.4588139999999998,0.263321,-0.808502,0.024124
1232,12.32,0.490738,-4.102393,-1.398901,0.166382,-0.783997,0.029449
1233,12.33,0.5120779999999999,-3.8408519999999995,-1.241476,0.077972,-0.7328640000000001,0.018799
1234,12.34,0.479202,-3.4833769999999995,-0.9916809999999999,0.002334999999999997,-0.67215,-0.005692000000000001
1235,12.35,0.408625,-2.9666509999999997,-0.758836,-0.054123000000000004,-0.613556,-0.048309
1236,12.36,0.366347,-2.445417,-0.579551,-0.07435599999999999,-0.5784,-0.08985900000000001
1237,12.37,0.28273000000000004,-1.830585,-0.420498,-0.070099,-0.549637,-0.12181099999999999
1238,12.38,0.404064,-1.189682,-0.395385,-0.045609,-0.518753,-0.140991
1239,12.39,0.598547,-0.700159,-0.424703,0.005538999999999999,-0.488922,-0.161224
1240,12.4,0.682972,-0.310189,-0.522036,0.081161,-0.45909099999999997,-0.183594
1241,12.41,0.704282,-0.074834,-0.727304,0.172775,-0.42713900000000005,-0.205963
1242,12.42,0.680549,0.07856,-1.0633139999999999,0.25906399999999996,-0.39624000000000004,-0.233658
1243,12.43,0.5724670000000001,-0.00037299999999999833,-1.4514040000000001,0.319778,-0.354691,-0.25816300000000003
1244,12.44,0.356059,-0.088783,-1.848739,0.351746,-0.301437,-0.279465
1245,12.45,0.050183000000000005,-0.126735,-2.208207,0.348541,-0.228989,-0.28479
1246,12.46,-0.292785,-0.033101000000000005,-2.363025,0.321915,-0.134186,-0.272018
1247,12.47,-0.42132600000000003,0.33367800000000003,-2.514688,0.283569,-0.025528,-0.243256
1248,12.48,-0.48585200000000006,0.790667,-2.586841,0.24415599999999998,0.073547,-0.203842
1249,12.49,-0.5600109999999999,1.363441,-2.473569,0.202606,0.153442,-0.143112
1250,12.5,-0.5937399999999999,1.8041080000000003,-2.2121180000000003,0.172775,0.22799699999999998,-0.06642199999999998
1251,12.51,-0.605775,2.247128,-1.973326,0.161057,0.285522,0.013474000000000005
1252,12.52,-0.449297,2.655383,-1.909398,0.139755,0.364365,0.101898
1253,12.53,0.04026400000000002,2.8862400000000004,-1.8832630000000001,0.081161,0.48367299999999996,0.18605
1254,12.54,0.855641,2.983564,-1.839292,-0.001923000000000001,0.581665,0.253159
1255,12.55,1.816819,3.085007,-1.7155310000000001,-0.058379999999999994,0.64772,0.29470799999999997
1256,12.56,2.697048,3.152476,-1.4145459999999999,-0.058379999999999994,0.664764,0.306427
1257,12.57,3.3283940000000003,3.043886,-1.144868,0.007659999999999999,0.633865,0.289383
1258,12.58,3.4703230000000005,2.7241009999999997,-0.712126,0.113129,0.541199,0.239319
1259,12.59,2.757425,2.418832,-0.13232099999999994,0.21325700000000003,0.469818,0.182846
1260,12.6,2.377464,2.641002,-0.188886,0.243088,0.47514300000000004,0.1754
1261,12.61,2.285158,2.573552,0.004414,0.17491099999999998,0.445312,0.174332
1262,12.62,2.109827,2.0428599999999997,0.787958,0.103531,0.390991,0.157288
1263,12.63,1.832234,1.111672,1.919625,0.057724,0.318558,0.176468
1264,12.64,1.238033,-0.029341999999999983,3.218243,0.007659999999999999,0.27807600000000005,0.263809
1265,12.65,0.634455,-0.986993,3.895582,-0.030685000000000004,0.32814,0.377792
1266,12.66,-0.22956999999999994,-1.503819,3.960817,-0.016846,0.330276,0.451294
1267,12.67,-1.306142,-1.5398370000000001,3.612863,0.072647,0.269547,0.497101
1268,12.68,-2.051961,-1.4031870000000002,2.7528490000000003,0.199417,0.137451,0.49498000000000003
1269,12.69,-2.8756630000000003,-1.229115,1.823147,0.273972,-0.027663999999999998,0.43531800000000004
1270,12.7,-3.4739660000000003,-0.8917430000000001,1.1245,0.23243699999999998,-0.176804,0.351166
1271,12.71,-3.315613,-0.16278199999999998,0.8283950000000001,0.067322,-0.24177600000000002,0.244644
1272,12.72,-2.801243,0.7624870000000001,0.90702,-0.13827500000000004,-0.219406,0.118942
1273,12.73,-1.9938150000000001,1.566262,0.9865,-0.299133,-0.11820999999999998,-0.013152999999999998
1274,12.74,-0.819335,2.155249,0.985237,-0.39926100000000003,0.011749,-0.140991
1275,12.75,0.10776399999999996,2.25032,1.1658190000000002,-0.425903,0.128937,-0.256042
1276,12.76,0.7624629999999999,1.992189,1.3248469999999999,-0.404602,0.22587600000000002,-0.348709
1277,12.77,1.227778,1.335684,1.67917,-0.326828,0.270615,-0.415833
1278,12.78,1.325804,0.675309,1.9003240000000001,-0.179825,0.262085,-0.45843500000000004
1279,12.79,1.206847,-0.255865,1.783294,0.0012660000000000032,0.22587600000000002,-0.465897
1280,12.8,1.040761,-1.093306,1.2878290000000001,0.16212500000000002,0.163025,-0.448853
1281,12.81,0.61251,-1.80152,0.605352,0.26759299999999997,0.09059099999999999,-0.419022
1282,12.82,0.097393,-2.501566,-0.06781900000000002,0.304871,0.014954000000000004,-0.406235
1283,12.83,-0.534987,-3.2283169999999997,-0.518075,0.29422,-0.05215499999999999,-0.413696
1284,12.84,-1.258791,-3.813615,-0.82019,0.245209,-0.116074,-0.42221099999999995
1285,12.85,-1.831943,-4.229464,-0.880418,0.181305,-0.166138,-0.409439
1286,12.86,-2.133365,-4.397943,-0.8783280000000001,0.11525,-0.191711,-0.379608
1287,12.87,-2.121126,-4.333434,-0.8235110000000001,0.048141,-0.202362,-0.32634
1288,12.88,-1.9346419999999998,-4.0700970000000005,-0.7014100000000001,-0.007248000000000002,-0.20343,-0.27095
1289,12.89,-1.6846439999999998,-3.561087,-0.640476,-0.044539999999999996,-0.227936,-0.203842
1290,12.9,-1.324618,-2.971745,-0.724863,-0.058379999999999994,-0.27374299999999996,-0.138855
1291,12.91,-1.000791,-2.260677,-0.855029,-0.061584,-0.336594,-0.086655
1292,12.92,-0.7167640000000001,-1.6405299999999998,-1.015945,-0.049866,-0.386658,-0.048309
1293,12.93,-0.500733,-1.060052,-1.142089,-0.018966999999999998,-0.401566,-0.030197
1294,12.94,-0.240788,-0.528977,-1.246219,0.031097000000000003,-0.37493899999999997,-0.027007999999999997
1295,12.95,-0.1671,-0.103716,-1.282967,0.100342,-0.316345,-0.032333
1296,12.96,-0.167632,0.19429200000000002,-1.361048,0.181305,-0.26521300000000003,-0.035522000000000005
1297,12.97,-0.262236,0.308437,-1.504602,0.269714,-0.24177600000000002,-0.037659
1298,12.98,-0.376799,0.30154200000000003,-1.664537,0.345352,-0.25135799999999997,-0.028076
1299,12.99,-0.533093,0.07477799999999997,-1.7794330000000003,0.380508,-0.301437,-0.003570999999999999
1300,13.0,-0.7159909999999999,-0.259522,-1.824302,0.384766,-0.339783,0.031586
1301,13.01,-0.900653,-0.45086099999999996,-1.8998950000000001,0.350677,-0.32806399999999997,0.07525599999999999
1302,13.02,-1.084885,-0.466585,-2.0200400000000003,0.265457,-0.257751,0.106155
1303,13.03,-1.161997,-0.41191300000000003,-2.130641,0.15040599999999998,-0.17466700000000002,0.117874
1304,13.04,-0.78642,0.426037,-2.2237259999999996,-0.049866,-0.150162,0.10508699999999999
1305,13.05,-0.2811170000000001,1.3826129999999999,-2.265222,-0.18196099999999998,-0.259888,0.079529
1306,13.06,0.016528000000000015,2.554823,-2.1025970000000003,-0.298065,-0.41435200000000005,0.062485
1307,13.07,0.129856,3.6785989999999997,-1.58388,-0.35026599999999997,-0.572006,0.06781000000000001
1308,13.08,0.14766400000000002,4.561043,-0.8995950000000001,-0.306595,-0.673203,0.084854
1309,13.09,0.087699,5.042282,-0.253137,-0.17236300000000002,-0.656158,0.09443700000000001
1310,13.1,-0.202166,5.020084,0.15225,0.02044700000000001,-0.548569,0.086975
1311,13.11,-0.8658,4.409548,0.29004,0.249481,-0.415421,0.078461
1312,13.12,-1.142976,3.743307,0.014813999999999994,0.43803400000000003,-0.340851,0.066742
1313,13.13,-0.9767819999999999,3.979369,-0.693181,0.452942,-0.367477,0.011353000000000002
1314,13.14,-1.271461,4.094158999999999,-0.3218590000000001,0.21006799999999998,-0.388779,-0.056824
1315,13.15,-1.9718740000000001,3.3545589999999996,0.858253,-0.024292000000000008,-0.285446,-0.044052
1316,13.16,-2.605828,2.133244,1.967569,-0.096741,-0.040436,-0.053635
1317,13.17,-2.49255,0.4388630000000001,2.9904479999999998,-0.142548,0.187531,-0.101578
1318,13.18,-1.6662869999999999,-1.010592,3.7465580000000003,-0.214981,0.296188,-0.203842
1319,13.19,-0.833254,-1.8208669999999998,4.200572,-0.233093,0.271683,-0.315689
1320,13.2,-0.02451399999999998,-2.394747,4.06184,-0.127625,0.15876800000000002,-0.391327
1321,13.21,0.987321,-2.6051900000000003,3.230206,0.04600499999999999,0.033066000000000005,-0.390259
1322,13.22,2.217144,-2.324081,1.968504,0.151474,-0.07559200000000002,-0.329544
1323,13.23,3.3701760000000003,-1.556716,1.099151,0.107803,-0.142715,-0.236862
1324,13.24,4.036985,-0.68247,0.903393,-0.024291999999999998,-0.197037,-0.134598
1325,13.25,3.988609,0.33501800000000004,0.941574,-0.156387,-0.230057,-0.027008000000000004
1326,13.26,3.2343610000000003,1.089325,0.9121030000000001,-0.25119,-0.25882,0.07420299999999999
1327,13.27,1.8466330000000002,1.641388,0.8764,-0.295944,-0.260956,0.163681
1328,13.28,0.3923339999999999,1.937699,1.037521,-0.2789,-0.22154200000000002,0.22332800000000003
1329,13.29,-0.742312,1.82932,1.285327,-0.216049,-0.17040999999999998,0.254227
1330,13.3,-1.52086,1.430075,1.556576,-0.11911,-0.140579,0.258484
1331,13.31,-2.000004,0.7163510000000001,1.587206,-0.004059,-0.09477200000000001,0.244644
1332,13.32,-2.2074700000000003,-0.014902000000000025,1.4092,0.120575,-0.054291,0.23611500000000002
1333,13.33,-2.29778,-0.692462,0.911795,0.23136900000000002,0.009628,0.244644
1334,13.34,-1.752941,-1.4188180000000001,0.25709699999999996,0.322983,0.079926,0.264877
1335,13.35,-0.933609,-2.244982,-0.464341,0.36879,0.077805,0.269135
1336,13.36,-0.383383,-2.91859,-0.996233,0.364532,0.078873,0.272339
1337,13.37,0.259964,-3.615475,-1.31454,0.32724000000000003,0.06288099999999999,0.289383
1338,13.38,0.864567,-3.99579,-1.609891,0.26013200000000003,0.055435000000000005,0.31601
1339,13.39,1.363873,-4.1532800000000005,-1.750052,0.181305,0.058624,0.336258
1340,13.4,1.7693830000000002,-3.9864230000000003,-1.809914,0.103531,0.08099400000000001,0.339447
1341,13.41,1.976452,-3.608537,-1.597068,0.02577200000000001,0.10656700000000001,0.30217
1342,13.42,1.7167400000000002,-3.079637,-1.335053,-0.034943,0.12468,0.22865300000000002
1343,13.43,1.268319,-2.518067,-0.972924,-0.088211,0.153442,0.15303
1344,13.44,0.779706,-1.953446,-0.649705,-0.123367,0.19178800000000001,0.090179
1345,13.45,0.409213,-1.462515,-0.406016,-0.131882,0.232269,0.041168
1346,13.46,0.055043000000000016,-1.102182,-0.400825,-0.111649,0.272751,0.0006870000000000001
1347,13.47,-0.139295,-0.8861530000000001,-0.49527,-0.071167,0.30896,-0.018478
1348,13.48,-0.117618,-0.697128,-0.7424430000000001,-0.021103,0.335602,-0.029129000000000002
1349,13.49,-0.14943499999999998,-0.569168,-0.9605319999999999,0.035355000000000004,0.355835,-0.042983999999999994
1350,13.5,-0.17006500000000002,-0.421645,-1.155481,0.099274,0.385666,-0.062164
1351,13.51,-0.20980700000000002,-0.18168099999999998,-1.386955,0.161057,0.437866,-0.080261
1352,13.52,-0.29752399999999996,0.043733000000000015,-1.553499,0.21539299999999997,0.5134890000000001,-0.08985900000000001
1353,13.53,-0.40910100000000005,0.251352,-1.7139330000000002,0.240952,0.581665,-0.095184
1354,13.54,-0.344369,0.472844,-1.68555,0.238831,0.649841,-0.085587
1355,13.55,-0.21098499999999998,0.6731199999999999,-1.526101,0.229233,0.698853,-0.058960000000000005
1356,13.56,-0.076403,0.962664,-1.3337299999999999,0.234558,0.740402,-0.025939999999999998
1357,13.57,0.045933,1.116897,-1.2578120000000002,0.263321,0.751053,0.013474000000000002
1358,13.58,0.058735,1.158916,-1.4100139999999999,0.284637,0.749985,0.061417
1359,13.59,0.26108200000000004,1.197575,-1.644823,0.268646,0.761703,0.117874
1360,13.6,0.581278,1.324306,-1.906984,0.203674,0.781937,0.176468
1361,13.61,1.059112,1.60857,-1.9113060000000002,0.10992400000000001,0.809631,0.232925
1362,13.62,1.611522,2.021316,-1.716429,0.019379,0.843719,0.27446
1363,13.63,2.049628,2.293397,-1.418517,-0.023224,0.8629,0.288315
1364,13.64,2.030096,2.420286,-0.9734299999999999,-0.009383999999999998,0.860764,0.269135
1365,13.65,1.567157,2.237083,-0.057258000000000024,0.07157899999999999,0.8341370000000001,0.207352
1366,13.66,0.6651600000000001,2.564959,0.737373,0.187698,0.911911,0.149826
1367,13.67,-0.057666,3.603497,1.506901,0.178101,1.013107,0.15196199999999999
1368,13.68,0.127406,4.0293730000000005,2.739631,0.0001980000000000176,0.9396059999999999,0.19883699999999999
1369,13.69,0.068813,3.6367910000000006,4.279703,-0.176636,0.745728,0.31601
1370,13.7,0.346208,3.2676529999999997,5.694986,-0.31192,0.7371979999999999,0.535461
1371,13.71,0.648898,2.47185,5.719499,-0.326828,0.886337,0.689926
1372,13.72,-0.438524,1.5045520000000001,4.770099,-0.158524,0.9577030000000001,0.717621
1373,13.73,-1.6662569999999999,0.388841,3.208915,0.12057500000000003,0.8629,0.671814
1374,13.74,-2.87906,-0.597707,1.867566,0.363464,0.6360020000000001,0.553558
1375,13.75,-3.883867,-1.206676,1.084527,0.43696599999999997,0.46449300000000004,0.38739
1376,13.76,-3.99645,-1.250137,0.875561,0.333633,0.466629,0.22120700000000001
1377,13.77,-3.714696,-0.672339,0.8071229999999999,0.151474,0.590195,0.060349
1378,13.78,-3.0937080000000003,-0.13180399999999998,0.812241,-0.012572999999999987,0.773422,-0.076004
1379,13.79,-2.117741,0.19827999999999998,0.52058,-0.147873,0.9587709999999999,-0.16229200000000002
1380,13.8,-0.9452950000000001,0.5815170000000001,0.178456,-0.291672,1.084473,-0.22514299999999998
1381,13.81,-0.062155000000000016,0.740246,0.29669,-0.40885900000000003,1.146255,-0.275208
1382,13.82,0.544535,0.710983,0.789076,-0.470642,1.1728969999999999,-0.302902
1383,13.83,1.0264469999999999,0.515526,1.508381,-0.456787,1.152649,-0.318893
1384,13.84,1.1676799999999998,0.221563,2.036375,-0.34387199999999996,1.085541,-0.333801
1385,13.85,1.106067,-0.09549800000000004,2.083798,-0.170242,0.972626,-0.349777
1386,13.86,0.8887700000000001,-0.509695,1.6381860000000001,0.034286000000000004,0.8309479999999999,-0.357239
1387,13.87,0.3687500000000001,-1.055965,0.902508,0.214325,0.684998,-0.35830700000000004
1388,13.88,-0.2993230000000001,-1.726392,0.109634,0.333633,0.549713,-0.344452
1389,13.89,-0.938084,-2.604315,-0.591083,0.376236,0.46235699999999996,-0.310364
1390,13.9,-1.3643,-3.522424,-1.164131,0.336823,0.397385,-0.26669299999999996
1391,13.91,-1.4983739999999999,-4.3500190000000005,-1.4080030000000001,0.234558,0.365417,-0.21875
1392,13.92,-1.538784,-4.869472,-1.532614,0.11099200000000001,0.323883,-0.172943
1393,13.93,-1.483741,-4.954999,-1.4799930000000001,-0.017899,0.301514,-0.126068
1394,13.94,-1.242923,-4.7410440000000005,-1.331618,-0.126556,0.273804,-0.07281499999999999
1395,13.95,-0.919507,-4.234879,-1.042944,-0.20005799999999999,0.257828,-0.023803999999999995
1396,13.96,-0.599115,-3.532063,-0.786404,-0.23948699999999998,0.248245,0.011353
1397,13.97,-0.372583,-2.646801,-0.571296,-0.238419,0.226944,0.036911
1398,13.98,-0.309508,-1.7276610000000001,-0.49988999999999995,-0.203262,0.193909,0.045441
1399,13.99,-0.317783,-0.894716,-0.5367609999999999,-0.141479,0.16409300000000002,0.044373
1400,14.0,-0.45382799999999995,-0.13666499999999998,-0.7216060000000001,-0.063705,0.138519,0.042236
1401,14.01,-0.690127,0.391934,-1.030363,0.006592000000000001,0.12361099999999998,0.040115
1402,14.02,-0.880508,0.615402,-1.380994,0.061996,0.111893,0.041168
1403,14.03,-0.956462,0.636284,-1.686708,0.107803,0.091644,0.056090999999999995
1404,14.04,-0.98713,0.48986599999999997,-1.990275,0.152542,0.053299,0.080582
1405,14.05,-0.878899,0.254092,-2.2893380000000003,0.20579499999999998,0.0032350000000000052,0.10829200000000001
