,ts,ax,ay,az,wx,wy,wz
0,0.0,-0.04274,-0.07292699999999999,0.135728,-0.0073549999999999996,-0.0024570000000000013,0.002762
1,0.01,-0.026124,-0.15348699999999998,0.140029,0.012878,0.020981,0.004898
2,0.02,0.011156000000000006,-0.15034,0.069502,0.028854,0.029495,-0.0014949999999999998
3,0.03,0.033426,-0.129873,-0.024875000000000005,0.038452,0.027374000000000002,-0.007889
4,0.04,0.02423,-0.048992,-0.062687,0.036316,0.022049000000000003,-0.020676
5,0.05,-0.050657000000000015,0.080955,-0.095301,0.035248,0.014587000000000001,-0.016418000000000002
6,0.06,-0.08037799999999999,0.162725,-0.122491,0.028854,0.012451,0.0038299999999999996
7,0.07,-0.027482,0.177573,-0.14968499999999998,0.013946999999999998,0.010329999999999999,0.02301
8,0.08,0.030744,0.188273,-0.19059700000000002,-0.008423,0.009262000000000001,0.035782
9,0.09,0.0793,0.156221,-0.121209,-0.033997,0.009262000000000001,0.035782
10,0.1,-0.017905000000000004,0.093553,-0.019854,-0.051041,0.0018009999999999996,0.028336
11,0.11,-0.105983,0.041358,0.11969500000000001,-0.059555,-0.005661,0.028336
12,0.12,-0.150077,-0.004042999999999998,0.195438,-0.048904,-0.021637,0.038986
13,0.13,-0.10740799999999999,-0.023316,0.211774,-0.038254,-0.034424,0.051758000000000005
14,0.14,0.008705999999999998,-0.044166000000000004,0.17355,-0.022278,-0.042938,0.056029999999999996
15,0.15,0.094446,-0.055841999999999996,0.122673,-0.005234,-0.033356,0.050705
16,0.16,0.18123,-0.04774,0.059748,0.0022280000000000004,-0.023758,0.041107
17,0.17,0.164645,-0.065984,0.05322,0.005431999999999999,-0.0013889999999999994,0.025131
18,0.18,0.110651,-0.033527,0.0616,0.005432,0.019913,0.010223000000000001
19,0.19,0.053929,-0.061725,0.15349300000000002,0.007553,0.014587000000000001,-0.0004270000000000003
20,0.2,-0.014130000000000002,-0.068647,0.152647,0.013947,0.008194,-0.003632
21,0.21,-0.033169,-0.015102999999999997,0.121278,0.022476,-0.006714,-0.005753
22,0.22,-0.025157,-0.016663999999999998,0.083636,0.028854,-0.019500999999999998,-0.005753
23,0.23,0.04141700000000001,-0.021969,0.088043,0.033127,-0.019500999999999998,-0.0014949999999999998
24,0.24,0.049421,0.019171,0.025918,0.037384,-0.022705,-0.005753
25,0.25,0.088413,-0.007659999999999999,-0.020250999999999998,0.036316,-0.023758,-0.010025
26,0.26,0.10323199999999999,0.008698000000000001,-0.041177000000000005,0.027801999999999997,-0.016312,-0.01535
27,0.27,0.089555,-0.027601999999999998,-0.027143,0.023528999999999998,-0.006714,-0.029189999999999997
28,0.28,0.057250999999999996,0.009866000000000005,0.041092000000000004,0.021408,-0.001389,-0.035583
29,0.29,0.007534999999999999,-0.017054,0.027924,0.029922000000000004,0.009262000000000001,-0.043045
30,0.3,-0.102802,-0.016007,0.049585000000000004,0.038452,0.02417,-0.041977
31,0.31,-0.14007999999999998,-0.0022119999999999987,0.051183,0.051224,0.0327,-0.029189999999999997
32,0.32,-0.20863099999999998,0.009428,-0.016306,0.057616999999999995,0.030563,-0.011093
33,0.33,-0.206427,0.0628,-0.079225,0.054428,0.009262000000000001,0.004898
34,0.34,-0.11599000000000001,0.01909,-0.10033099999999999,0.040573000000000005,-0.022705,0.013412
35,0.35,-0.06412899999999999,0.046784,-0.110997,0.012878,-0.046143,0.019806
36,0.36,0.041955,0.1123,-0.079519,0.003296,-0.054657000000000004,0.024063
37,0.37,0.050572000000000006,0.021141,-0.042602,-0.008423,-0.05146799999999999,0.021942
38,0.38,-0.046589999999999986,0.029302000000000005,-0.001235,-0.016953,-0.039749,0.020874
39,0.39,-0.091909,-0.045931,0.052424,-0.013748,-0.040802,0.020874
40,0.4,-0.13518,-0.046619,0.07675599999999999,-0.006286999999999999,-0.045074,0.025131
41,0.41,-0.111445,-0.070086,0.064868,0.004364,-0.040802,0.02301
42,0.42,-0.037427999999999996,-0.06410700000000001,-0.0012700000000000005,0.017136000000000002,-0.028030000000000003,0.024063
43,0.43,0.06468600000000001,-0.041862,-0.056402,0.026733,-0.01738,0.019806
44,0.44,0.084638,0.009037999999999994,-0.141201,0.026733,-0.006714,0.009155
45,0.45,0.104947,-0.018566,-0.161025,0.013947,-0.001389,0.005966
46,0.46,0.12971300000000002,-0.031098,-0.090374,-0.006287,-0.00885,-0.0014949999999999994
47,0.47,0.111348,-0.041339999999999995,-0.046623000000000005,-0.011627,-0.020569,-0.010025
48,0.48,0.09073300000000001,-0.122117,-0.006935000000000004,-0.018005,-0.022705,-0.010025
49,0.49,0.10330299999999999,-0.099021,0.014100999999999999,-0.008423,-0.018433,-0.013213999999999998
50,0.5,0.11174200000000001,-0.057847,0.024069999999999998,0.0075530000000000016,-0.007781999999999999,-0.01535
51,0.51,0.137836,-0.043726,0.03709,0.028854,0.012451,-0.021744
52,0.52,0.10553900000000001,-0.005732000000000001,-0.016699000000000002,0.042709,0.026306,-0.023865
53,0.53,0.075074,0.003846000000000001,-0.039854,0.050171,0.033752,-0.020676
54,0.54,0.087475,0.038981,-0.064206,0.041641000000000004,0.036957,-0.018539
55,0.55,0.075648,0.034746,-0.075327,0.025664999999999997,0.026306,-0.013213999999999998
56,0.56,0.006985999999999999,0.038383,-0.024114,0.004364,0.020981,-0.005753
57,0.57,0.009477,0.021171000000000002,0.02073,-0.01268,0.006058,-0.006821
58,0.58,-0.054839,0.002275,0.065885,-0.023331,-0.004593,-0.0025629999999999997
59,0.59,-0.036436,-0.017512999999999997,0.158459,-0.022278,-0.015244,-0.005753
60,0.6,-0.027343,-0.019711000000000003,0.148124,-0.008423,-0.019500999999999998,-0.0025629999999999997
61,0.61,-0.008839,-0.050341000000000004,0.157315,0.0064849999999999994,-0.015244,-0.0004269999999999999
62,0.62,-0.004416,-0.039193,0.140573,0.022476,-0.016312,-0.0025629999999999997
63,0.63,0.018522,-0.026762,0.079122,0.028854,-0.016312,0.002762
64,0.64,0.043302999999999994,-0.015458000000000001,0.010193,0.022476,-0.010986,-0.0004269999999999994
65,0.65,0.073653,-0.02056,0.041907,0.022476,-0.012054,-0.0047
66,0.66,0.05024,-0.055223,0.008346,0.02034,-0.007781999999999999,-0.008957
67,0.67,0.066324,-0.061320000000000006,-0.012211,0.022476,-0.001389,-0.01535
68,0.68,0.052159000000000004,-0.047042,-0.004679,0.033127,0.018844999999999997,-0.019608
69,0.69,0.040273,-0.027266000000000002,-0.014816,0.042709,0.047607,-0.020676
70,0.7,-0.06060900000000001,-0.029172000000000003,-0.031466,0.057616999999999995,0.066788,-0.021744
71,0.71,-0.041807,-0.043392,-0.07064400000000001,0.062943,0.083832,-0.021744
72,0.72,-0.092098,-0.0583,-0.110213,0.07147200000000001,0.095551,-0.017471
73,0.73,-0.058821000000000005,0.001289,-0.136946,0.07254,0.11471600000000001,-0.008957
74,0.74,-0.056335,0.09407500000000002,-0.208454,0.067215,0.140289,0.002762000000000001
75,0.75,-0.13463,0.074684,-0.303062,0.050171,0.14561500000000002,0.018738
76,0.76,-0.152231,0.13278800000000002,-0.313245,0.013947,0.116852,0.031525
77,0.77,-0.144565,0.123647,-0.291223,-0.036118,0.06572,0.03685
78,0.78,-0.171121,0.10133500000000001,-0.20161300000000001,-0.082993,0.0050050000000000025,0.034714
79,0.79,-0.11860699999999999,0.04091199999999999,-0.139327,-0.118149,-0.0504,0.027267000000000003
80,0.8,-0.14061500000000002,0.039912,0.008971999999999999,-0.129868,-0.087677,0.015549
81,0.81,-0.187555,0.043708,0.116853,-0.12027,-0.098328,0.010223000000000001
82,0.82,-0.23369299999999998,0.030877999999999996,0.243211,-0.094711,-0.084488,0.020874
83,0.83,-0.19663699999999998,0.040013,0.259296,-0.059555,-0.06211900000000001,0.040054
84,0.84,-0.113192,0.061362,0.194879,-0.023331,-0.029099,0.056029999999999996
85,0.85,0.006759000000000008,0.043591000000000005,0.101337,-0.003098,-0.00885,0.064545
86,0.86,0.10688099999999999,-0.010381,-0.018044,-0.002029,0.006058,0.062424
87,0.87,0.15235,0.019694999999999997,-0.009886,-0.015884,0.012451,0.050705
88,0.88,0.107618,-0.038574000000000004,-0.0009699999999999986,-0.027602999999999996,-0.0003360000000000004,0.035782
89,0.89,0.051754999999999995,-0.064651,0.114704,-0.036118,-0.021637,0.028336
90,0.9,0.033826000000000016,-0.044197,0.181364,-0.032928,-0.029099,0.024063
91,0.91,0.040733,-0.025333,0.225396,-0.018005,-0.032288,0.025131
92,0.92,0.125437,-0.018412,0.244761,0.002228,-0.037613,0.018738
93,0.93,0.165452,-0.019431,0.131692,0.012878,-0.036545,0.009155
94,0.94,0.179176,-0.025006999999999998,0.11156300000000001,0.02034,-0.032288,-0.0047
95,0.95,0.11195699999999999,0.012276,0.10425799999999999,0.022476,-0.014175,-0.012145999999999999
96,0.96,0.12448499999999998,-0.01888,0.132128,0.029922000000000004,-0.004593,-0.014282
97,0.97,0.07655,-0.125607,0.152947,0.03952,-0.00033599999999999993,-0.017471
98,0.98,0.11299400000000001,-0.065483,0.17310899999999999,0.055496000000000004,-0.001389,-0.023865
99,0.99,0.121621,-0.06428500000000001,0.08741499999999999,0.074661,0.005005,-0.034515
100,1.0,0.090158,-0.0978,-0.005173999999999998,0.087448,0.020981,-0.03772
101,1.01,0.061102,-0.007941999999999998,-0.070498,0.09703099999999999,0.033752,-0.034515
102,1.02,0.038926,-0.0031149999999999997,-0.156497,0.090652,0.041214,-0.027069
103,1.03,0.048014,-0.008784,-0.233089,0.068268,0.044418,-0.023865
104,1.04,0.042574,-0.024406,-0.180728,0.042709,0.040146,-0.022797
105,1.05,0.025432,-0.062345000000000005,-0.12853299999999998,0.025664999999999997,0.0327,-0.026001
106,1.06,0.033786000000000004,-0.073503,-0.12274000000000002,0.022476,0.0327,-0.029189999999999997
107,1.07,-0.030113999999999995,-0.07291399999999999,-0.081711,0.025664999999999997,0.035889,-0.031326
108,1.08,-0.039868,-0.03536,-0.055285,0.026733,0.034821,-0.029189999999999997
109,1.09,-0.06931799999999999,-0.051488999999999986,-0.10688199999999999,0.028854,0.02417,-0.026001
110,1.1,-0.050762,-0.010179000000000007,-0.092932,0.021408,0.002869,-0.022797
111,1.11,0.004922000000000003,0.022678,-0.158627,0.004364,-0.00885,-0.018539
112,1.12,0.0074350000000000015,0.078789,-0.162939,-0.013748,-0.013106999999999999,-0.018539
113,1.13,0.008317,0.058290999999999996,-0.109866,-0.027602999999999996,-0.013106999999999999,-0.019608
114,1.14,-0.0034850000000000003,0.042173,0.043636,-0.035049000000000004,-0.005661,-0.019608
115,1.15,-0.054333000000000006,0.028687,0.089547,-0.037186000000000004,-0.003525,-0.022797
116,1.16,-0.16461099999999998,0.003442000000000001,0.157243,-0.030792,0.002869,-0.020676
117,1.17,-0.203078,-0.026363,0.184589,-0.02121,0.000732,-0.005753
118,1.18,-0.123596,-0.012833,0.128208,-0.003098,-0.01738,0.0006259999999999999
119,1.19,-0.08288,-0.019666,0.047105,0.004364,-0.026962,0.002762
120,1.2,-0.044403,0.009198,0.0033390000000000017,0.008621,-0.026962,0.002762
121,1.21,0.00707,0.053638,-0.024693,0.009689,-0.019500999999999998,0.0038299999999999996
122,1.22,-0.040543,0.083548,-0.092849,0.007553,-0.003525000000000001,0.007019
123,1.23,0.015072999999999996,0.09997,-0.07060599999999999,0.002228,0.005005,0.011292
124,1.24,0.042548,0.061503999999999996,-0.079582,-0.009491,0.006058,0.012343999999999999
125,1.25,0.09386,0.056945,-0.074068,-0.019073,-0.002457,0.0006259999999999997
126,1.26,0.033551,0.046078000000000015,-0.002357,-0.023331,-0.00885,-0.012145999999999999
127,1.27,0.034858,0.0274,0.050417,-0.018005,-0.00885,-0.022797
128,1.28,0.017292,0.052039,0.077612,-0.0073549999999999996,0.009262000000000001,-0.019608
129,1.29,0.017961,0.069017,0.108293,0.005432000000000001,0.028426999999999997,-0.019608
130,1.3,-0.038689,0.056149,0.094187,0.018203999999999998,0.049744,-0.013213999999999998
131,1.31,-0.053103,0.092598,0.09356,0.023528999999999998,0.052933,-0.0025629999999999997
132,1.32,-0.07815,0.010550999999999998,0.031156,0.018203999999999998,0.04335,0.007019
133,1.33,-0.040909,-0.045329,0.083849,0.010757,0.018844999999999997,0.007019
134,1.34,-0.024395,-0.054478,0.071712,0.0064849999999999994,-0.00885,-0.002563
135,1.35,-0.054657000000000004,-0.062496,0.08936000000000001,0.010757,-0.036545,-0.013213999999999998
136,1.36,-0.007803000000000002,-0.016736,0.08888099999999999,0.018203999999999998,-0.035477,-0.007889
137,1.37,-0.022384,0.052677,0.106799,0.032059,-0.021637,-0.003632
138,1.38,0.020669999999999997,0.10253399999999999,0.056688999999999996,0.045898,-0.006714,0.012343999999999999
139,1.39,0.10833499999999999,0.095734,-0.004383999999999999,0.048035,0.012451,0.030456999999999998
140,1.4,0.207233,0.061741,-0.131825,0.038452,0.019913,0.032593000000000004
141,1.41,0.211736,-0.07606,-0.112268,0.015015,0.018844999999999997,0.024063
142,1.42,0.228237,-0.153378,-0.07646,-0.006287000000000001,0.006058,0.009155
143,1.43,0.17160599999999998,-0.170496,0.024452,-0.014816,0.000732,-0.007889
144,1.44,0.12453900000000001,-0.196276,0.125081,-0.006287,0.011382999999999999,-0.020676
145,1.45,0.082396,-0.139836,0.161428,0.019272,0.022049000000000003,-0.023865
146,1.46,0.125603,-0.058522000000000005,0.09013600000000001,0.051224,0.035889,-0.021744
147,1.47,0.194876,-0.04759,-0.014472,0.066147,0.058258000000000004,-0.018539
148,1.48,0.266677,0.005877,-0.144098,0.07147200000000001,0.07850599999999999,-0.020676
149,1.49,0.180404,-0.026074,-0.16405899999999998,0.059753,0.085953,-0.035583
150,1.5,0.086314,-0.047954000000000004,-0.18307,0.036316,0.07850599999999999,-0.041977
151,1.51,-0.017468,-0.08358,-0.058785,0.017136000000000002,0.07743799999999999,-0.041977
152,1.52,-0.17144600000000002,-0.112206,0.03297,0.012878,0.067841,-0.038787999999999996
153,1.53,-0.211813,-0.080169,0.11976099999999999,0.015015,0.040146,-0.024933
154,1.54,-0.19228199999999998,-0.0347,0.070254,0.019272,0.005004999999999999,-0.0025629999999999997
155,1.55,-0.129863,0.027273000000000002,-0.006957999999999999,0.015015,-0.024825999999999997,0.017669999999999998
156,1.56,-0.045094,0.065166,-0.089533,-0.006287000000000001,-0.038681,0.034714
157,1.57,0.079335,0.032168,-0.141816,-0.035049000000000004,-0.044006,0.045380000000000004
158,1.58,0.127708,-0.019172,-0.048606,-0.06275900000000001,-0.048264,0.042175
159,1.59,0.095498,-0.122628,0.050496,-0.07234199999999999,-0.0504,0.030456999999999998
160,1.6,0.037382,-0.148362,0.145521,-0.06275900000000001,-0.032288,0.024063
161,1.61,0.012574,-0.155219,0.200014,-0.032928,-0.005660999999999999,0.02301
162,1.62,0.027225,-0.21869,0.15954100000000002,-0.005233999999999999,0.012451,0.025131
163,1.63,0.15697,-0.156399,0.080334,0.015015,0.012451,0.012343999999999999
164,1.64,0.131719,-0.047662,-0.011671999999999995,0.019272,-0.006714,-0.005753000000000001
165,1.65,0.10731900000000001,0.005124,-0.061675,0.008621,-0.025894,-0.016418000000000002
166,1.66,0.061477,0.11115799999999999,-0.05441,-0.011627,-0.029099,-0.013213999999999998
167,1.67,-0.014341999999999999,0.07707699999999999,-0.018817,-0.024399,-0.029099,-0.011093
168,1.68,-0.042962,0.08442899999999999,0.077832,-0.026535000000000003,-0.018433,-0.0014949999999999998
169,1.69,-0.020502,-0.006945000000000001,0.080029,-0.020142,-0.013106999999999999,0.004898
170,1.7,0.048218000000000004,-0.030608999999999997,0.064691,-0.0073549999999999996,-0.015244,0.002762
171,1.71,0.086268,0.05754,0.048477,0.004364,-0.016312,-0.007889
172,1.72,0.119531,0.081584,-0.0028099999999999965,0.01181,-0.00885,-0.023865
173,1.73,0.07756,0.175495,-0.026482,0.01181,0.002869,-0.031326
174,1.74,0.018688,0.166797,0.010703,0.008621,0.012451,-0.035583
175,1.75,-0.059337,0.20651999999999998,0.091244,0.01181,0.014587000000000001,-0.031326
176,1.76,-0.157185,0.186102,0.122169,0.012878,0.008194,-0.026001
177,1.77,-0.22458499999999998,0.185305,0.161097,0.018203999999999998,-0.005661,-0.014282
178,1.78,-0.257388,0.17465899999999998,0.138241,0.024597,-0.012054,-0.0004270000000000003
179,1.79,-0.306811,0.219617,0.082208,0.029922000000000004,-0.00885,0.019806
180,1.8,-0.231312,0.163261,0.010324,0.032059,-0.014175,0.035782
181,1.81,-0.180585,0.077276,-0.03048,0.024597,-0.026962,0.052826
182,1.82,-0.056549,0.017625,-0.0073700000000000015,0.008621,-0.05146799999999999,0.049637
183,1.83,0.062687,-0.021190000000000004,-0.004409000000000001,0.00116,-0.077026,0.03685
184,1.84,0.045482,-0.015476999999999998,0.044072,0.005432,-0.069565,0.024063
185,1.85,0.057253,-0.031162,0.059619000000000005,0.02034,-0.039749,0.012343999999999999
186,1.86,0.04145,-0.037807,0.049118,0.048035,-0.014175,0.010223000000000001
187,1.87,-0.028482,-0.052309,0.035123,0.069336,0.008194,0.008087
188,1.88,-0.043059,-0.040126999999999996,-0.034241,0.081055,0.017776,0.012343999999999999
189,1.89,0.023627000000000002,0.033735,-0.12388699999999998,0.08638,0.017776,0.020874
190,1.9,0.055095000000000005,-0.028780999999999994,-0.199907,0.074661,0.011382999999999999,0.019806
191,1.91,0.031778,-0.009091999999999998,-0.227363,0.052292,0.0018009999999999996,0.02301
192,1.92,0.057612000000000003,-0.018982,-0.176016,0.032059,-0.00885,0.020874
193,1.93,0.07668,-0.05753800000000001,-0.15825999999999998,0.018203999999999998,-0.012054,0.020874
194,1.94,0.07545199999999999,-0.066316,-0.096333,0.005432,-0.016312,0.018738
195,1.95,0.043235,-0.035176,-0.069428,0.0032959999999999995,-0.009918000000000001,0.016617
196,1.96,-0.0008140000000000022,-0.052447,-0.01811400000000001,0.005432,-0.003524999999999999,0.019806
197,1.97,-0.009102999999999998,-0.097429,-0.032657,0.003296,-0.00033599999999999993,0.027267000000000003
198,1.98,0.028246,-0.105867,0.014422999999999998,0.0064849999999999994,-0.004593,0.027267000000000003
199,1.99,0.035102,-0.136654,0.008565000000000001,9.200000000000008e-05,-0.015244,0.02301
200,2.0,0.041523000000000004,-0.115932,0.017244,0.00116,-0.025894,0.016617
201,2.01,0.022409000000000002,-0.104038,-0.002750000000000001,0.005432,-0.029099,0.013412
202,2.02,0.054667999999999994,-0.051197,-0.002867999999999999,0.007553,-0.022705,0.014481
203,2.03,0.024449000000000002,-0.046612,-0.00442,0.008621,-0.016312,0.016617
204,2.04,-0.012456,-0.060575,-0.031889999999999995,0.01181,-0.00885,0.019806
205,2.05,0.011208,-0.048738,0.007811999999999999,0.007553,-0.0013890000000000007,0.021942
206,2.06,-0.013766,-0.06068200000000001,0.006613000000000001,0.009689,0.000732,0.021942
207,2.07,0.009082,-0.10622000000000001,-0.0020970000000000008,0.009689,0.007126,0.013412
208,2.08,-0.026523,-0.062532,-0.028611,0.015015,0.010329999999999999,0.012343999999999999
209,2.09,-0.030683,-0.059149,-0.036313,0.012878,0.019913,0.013412
210,2.1,0.003261,-0.045731,-0.067692,0.012878,0.022049000000000003,0.012343999999999999
211,2.11,-0.045877,-0.0036710000000000007,-0.085392,0.004364,0.011382999999999999,0.005966
212,2.12,-0.087774,-0.018062,-0.060154,-0.009491,-0.012054,0.007019
213,2.13,-0.098995,0.008819,-0.0043320000000000025,-0.019073,-0.034424,0.013412
214,2.14,-0.079181,0.021522,-0.026757999999999997,-0.023331,-0.039749,0.016617
215,2.15,-0.05153200000000001,-0.015112,0.003318000000000001,-0.016953,-0.026962,0.02301
216,2.16,0.023874,-0.08694299999999999,-0.05801900000000001,-0.009491,-0.0003359999999999995,0.02301
217,2.17,0.033779,-0.093736,-0.06751499999999999,-0.0020290000000000004,0.018844999999999997,0.014481
218,2.18,0.064432,-0.07965,-0.061172000000000004,0.00116,0.018844999999999997,-0.0004270000000000003
219,2.19,-0.0018009999999999968,-0.005705000000000003,-0.059523,9.200000000000008e-05,0.014587000000000001,-0.014282
220,2.2,-0.038077,0.10672900000000002,-0.04639,-0.003098,0.013519,-0.01535
221,2.21,-0.08102699999999999,0.129911,-0.080289,-0.0073549999999999996,0.008194,-0.011093
222,2.22,-0.11610699999999999,0.139598,-0.090172,-0.015884,0.010329999999999999,-0.0014950000000000009
223,2.23,-0.18421099999999999,0.13613699999999998,-0.0077389999999999985,-0.026535000000000003,0.011382999999999999,0.011292
224,2.24,-0.22758899999999999,0.1489,0.025549000000000002,-0.032928,0.002869,0.02301
225,2.25,-0.186594,0.122017,0.072114,-0.036118,-0.016312,0.038986
226,2.26,-0.11836300000000001,0.13767000000000001,0.06854500000000001,-0.036118,-0.031219,0.053894000000000004
227,2.27,0.003871,0.11863599999999999,0.001329999999999998,-0.03186,-0.040802,0.06668099999999999
228,2.28,0.08773099999999999,0.103402,-0.045588,-0.037186000000000004,-0.042938,0.065613
229,2.29,0.200817,0.049498,-0.030257,-0.046768000000000004,-0.036545,0.05921900000000001
230,2.3,0.20653400000000002,0.043307,0.05867399999999999,-0.054229999999999993,-0.030151,0.046432
231,2.31,0.162721,-0.088337,0.133758,-0.048904,-0.030151,0.030456999999999998
232,2.32,0.120473,-0.11418900000000001,0.230591,-0.033997,-0.022705,0.017669999999999998
233,2.33,0.111196,-0.132751,0.20772600000000002,-0.011627,-0.012054,0.007019
234,2.34,0.083339,-0.166903,0.172808,0.01181,-0.0003360000000000004,-0.0047
235,2.35,0.033497000000000006,-0.136981,0.11988599999999999,0.03418,0.001801,-0.01535
236,2.36,0.06383899999999999,-0.053453999999999995,0.013143000000000002,0.048035,0.001801,-0.022797
237,2.37,0.116978,0.0042869999999999965,-0.09324099999999999,0.049102999999999994,0.011382999999999999,-0.028137
238,2.38,0.10127,0.027555,-0.20748899999999998,0.038452,0.020981,-0.030257999999999997
239,2.39,-0.059914999999999996,0.086225,-0.12281700000000001,9.200000000000008e-05,0.028426999999999997,-0.030257999999999997
240,2.4,-0.164055,0.052084000000000005,-0.092014,-0.020142,0.017776,-0.022797
241,2.41,-0.185854,0.028261,-0.008148999999999997,-0.035049000000000004,-0.0013889999999999994,-0.013213999999999998
242,2.42,-0.175731,-0.021838,0.00728,-0.043579,-0.024825999999999997,-0.0047
243,2.43,-0.160741,0.024802000000000005,0.068813,-0.045715,-0.037613,0.0006259999999999999
244,2.44,-0.120636,-0.014903999999999999,0.115074,-0.045715,-0.034424,0.011292
245,2.45,-0.123155,0.013156999999999999,0.103789,-0.038254,-0.025894,0.018738
246,2.46,-0.149859,-0.008892,0.146868,-0.025467,-0.023758,0.016617
247,2.47,-0.14962,0.041798,0.148731,-0.016953,-0.024825999999999997,0.020874
248,2.48,-0.162895,0.044117,0.17137,-0.011627,-0.036545,0.029388
249,2.49,-0.124052,-0.010736,0.083253,-0.009491,-0.04187,0.03685
250,2.5,-0.045028,-0.036918,0.058716,-0.009491,-0.044006,0.037918
251,2.51,0.0009709999999999996,-0.100842,0.064089,-0.0073549999999999996,-0.04187,0.034714
252,2.52,0.036095999999999996,-0.08583400000000001,0.031223,-0.006287,-0.028030000000000003,0.025131
253,2.53,0.085163,-0.037292,0.025036000000000003,0.0032960000000000003,-0.029099,0.013412
254,2.54,0.132357,0.012836000000000002,0.012167,0.007553,-0.035477,-0.004699999999999999
255,2.55,0.157093,0.0016999999999999984,-0.010672,0.01181,-0.029099,-0.01535
256,2.56,0.092414,-0.011502,-0.009017,0.019272,-0.023758,-0.030257999999999997
257,2.57,0.012485999999999995,-0.017984,0.008849,0.030991,-0.012054,-0.038787999999999996
258,2.58,-0.043719,1.2000000000005062e-05,0.015303,0.046967,0.012451,-0.039841
259,2.59,-0.098576,0.003064000000000001,-0.048451,0.074661,0.038025,-0.038787999999999996
260,2.6,-0.120406,0.07985,-0.15365,0.083191,0.035889,-0.03772
261,2.61,-0.09112,0.139349,-0.23575300000000002,0.078934,0.026306,-0.032394
262,2.62,-0.030432,0.19991099999999998,-0.29611,0.059753,0.003937,-0.031326
263,2.63,-0.04735,0.223904,-0.312654,0.028854,-0.014175,-0.026001
264,2.64,-0.046606,0.247585,-0.235719,9.200000000000008e-05,-0.026962,-0.019608
265,2.65,-0.105802,0.186879,-0.179319,-0.022278,-0.024825999999999997,-0.016418000000000002
266,2.66,-0.145021,0.15069100000000002,-0.006873000000000004,-0.028671,-0.029099,-0.007889
267,2.67,-0.141717,0.124699,0.06922400000000001,-0.02121,-0.039749,-0.0047
268,2.68,-0.124982,0.108824,0.064841,-0.006287000000000001,-0.046143,0.007019
269,2.69,-0.067819,0.048936,-0.005263000000000004,0.004364,-0.044006,0.020874
270,2.7,-0.011198,-0.00965,-0.031055000000000003,0.0064849999999999994,-0.040802,0.028336
271,2.71,0.003268,-0.0023630000000000005,-0.029599,9.200000000000008e-05,-0.042938,0.035782
272,2.72,0.052440999999999995,0.025802999999999996,-0.040899,-0.0041659999999999996,-0.046143,0.03685
273,2.73,0.090378,0.067213,-0.011493999999999999,-0.008423,-0.044006,0.035782
274,2.74,0.059503,-0.01047,0.011717,-0.0073549999999999996,-0.040802,0.032593000000000004
275,2.75,0.0482,-0.019312,0.012824,-0.0073549999999999996,-0.046143,0.024063
276,2.76,0.063277,-0.074869,0.028436000000000003,-0.0073549999999999996,-0.046143,0.017669999999999998
277,2.77,0.005350000000000001,-0.093355,0.039691000000000004,-0.003098,-0.039749,0.012343999999999999
278,2.78,0.026264,-0.126647,0.062383,0.002228,-0.037613,0.011292
279,2.79,0.053489999999999996,-0.104109,0.032450999999999994,0.008621,-0.042938,0.0038299999999999996
280,2.8,0.06486499999999999,-0.11233699999999999,0.042991,0.010757,-0.048264,-0.001495
281,2.81,0.118841,-0.061234000000000004,0.022479,0.009689,-0.045074,-0.007889
282,2.82,0.100475,-0.084485,0.002909000000000002,0.013947,-0.033356,-0.017471
283,2.83,0.009053,-0.086063,0.010874,0.018203999999999998,-0.018433,-0.027069
284,2.84,-0.052625,-0.11305499999999999,0.026392000000000002,0.02034,-0.0024570000000000013,-0.029189999999999997
285,2.85,-0.054826,-0.149453,-0.024807000000000003,0.019272,0.005005,-0.028137
286,2.86,-0.046894,-0.11179000000000001,-0.024384,0.019272,-0.0013890000000000007,-0.029189999999999997
287,2.87,-0.006656,-0.133623,-0.06813,0.013947,-0.016312,-0.034515
288,2.88,-0.007325,-0.07977200000000001,-0.057411000000000004,0.004364,-0.034424,-0.038787999999999996
289,2.89,-0.051645,-0.047194,-0.034899,-0.0009609999999999999,-0.048264,-0.040909
290,2.9,-0.060035000000000005,-0.017758000000000003,-0.032491,-0.010559,-0.054657000000000004,-0.033463
291,2.91,-0.034791,-0.041475,-0.013880000000000002,-0.01268,-0.0504,-0.030257999999999997
292,2.92,-0.008766,-0.062143,-0.035291,-0.01268,-0.046143,-0.030257999999999997
293,2.93,0.035006999999999996,-0.054701,-0.030895999999999996,-0.010559,-0.037613,-0.03772
294,2.94,0.071798,-0.10547999999999999,-0.064327,-0.010559,-0.031219,-0.048369999999999996
295,2.95,0.128926,-0.103881,-0.12299700000000001,-0.014816,-0.023758,-0.064346
296,2.96,0.051828,-0.087953,-0.151798,-0.016953,-0.00885,-0.07713300000000001
297,2.97,-0.05179400000000001,-0.073326,-0.082247,-0.024399,-0.004593,-0.080322
298,2.98,-0.08728,-0.035054,-0.054085,-0.029724,-0.010986,-0.073929
299,2.99,-0.060663,-0.016104,0.007673999999999999,-0.035049000000000004,-0.020569,-0.076065
300,3.0,-0.09020299999999999,0.013633,0.0028539999999999998,-0.042511,-0.022705,-0.08139
301,3.01,-0.17915,0.023273,0.11484100000000001,-0.041443,-0.01738,-0.086716
302,3.02,-0.264324,0.08199999999999999,0.179322,-0.026535000000000003,-0.014175,-0.085648
303,3.03,-0.333554,0.096901,0.20393499999999998,-0.0009609999999999999,-0.013106999999999999,-0.073929
304,3.04,-0.374199,0.05395,0.11188499999999997,0.017136000000000002,-0.012054,-0.063278
305,3.05,-0.34629499999999996,0.13003399999999998,0.06253500000000001,0.022476,-0.016312,-0.052627999999999994
306,3.06,-0.326025,0.168049,-0.022723999999999998,0.017136000000000002,-0.044006,-0.03772
307,3.07,-0.259475,0.212346,-0.081705,-0.0020290000000000004,-0.068512,-0.022797
308,3.08,-0.24736799999999998,0.301948,-0.081789,-0.027602999999999996,-0.07809400000000001,-0.003632
309,3.09,-0.144253,0.367696,-0.028314999999999996,-0.043579,-0.09088099999999999,0.019806
310,3.1,-0.066161,0.291052,0.007439000000000001,-0.054229999999999993,-0.10153200000000001,0.038986
311,3.11,0.042145999999999996,0.198772,0.007193000000000001,-0.068085,-0.10899400000000001,0.051758000000000005
312,3.12,0.14135,0.142926,0.06068,-0.07341,-0.106857,0.054962000000000004
313,3.13,0.18420599999999998,0.074115,0.137192,-0.075531,-0.091934,0.048569
314,3.14,0.127593,0.0768,0.28418899999999997,-0.059555,-0.068512,0.044312
315,3.15,0.106005,0.09275499999999999,0.36243200000000003,-0.035049000000000004,-0.047195,0.037918
316,3.16,0.105556,0.111251,0.404835,-0.011627,-0.030151,0.040054
317,3.17,0.067501,0.16452,0.394918,0.012878,-0.031219,0.041107
318,3.18,0.078846,0.06495200000000001,0.389313,0.032059,-0.039749,0.041107
319,3.19,0.081134,0.078454,0.311062,0.048035,-0.052521000000000005,0.033661
320,3.2,0.11158900000000001,0.038202999999999994,0.19830400000000006,0.059753,-0.071701,0.024063
321,3.21,0.151571,-0.06807,0.123108,0.068268,-0.082352,0.009155
322,3.22,0.173556,-0.064279,0.096066,0.067215,-0.07489,-0.002563
323,3.23,0.15683699999999998,-0.08516900000000001,0.060423000000000004,0.07254,-0.067444,-0.01535
324,3.24,0.125947,-0.094346,0.044636,0.079987,-0.069565,-0.029189999999999997
325,3.25,0.156599,-0.06289700000000001,-0.057738,0.07786599999999999,-0.071701,-0.035583
326,3.26,0.14478,-0.11203699999999998,-0.077175,0.07254,-0.071701,-0.043045
327,3.27,0.14338599999999999,-0.147927,-0.15565299999999999,0.059753,-0.067444,-0.050506999999999996
328,3.28,0.051173,-0.210817,-0.113587,0.049102999999999994,-0.067444,-0.065414
329,3.29,-0.027538999999999998,-0.243006,-0.099834,0.051224,-0.07489,-0.07499700000000001
330,3.3,-0.118033,-0.261164,-0.027396000000000004,0.062943,-0.08342000000000001,-0.085648
331,3.31,-0.190361,-0.25346599999999997,-0.053970000000000004,0.090652,-0.069565,-0.085648
332,3.32,-0.165898,-0.23625300000000002,-0.159698,0.120468,-0.042938,-0.07713300000000001
333,3.33,-0.11458499999999999,-0.263832,-0.372747,0.144974,-0.014175,-0.07074
334,3.34,-0.09559400000000001,-0.242589,-0.5661229999999999,0.144974,0.000732,-0.063278
335,3.35,-0.197829,-0.172174,-0.765467,0.11941500000000001,0.000732,-0.052627999999999994
336,3.36,-0.24034299999999997,-0.073041,-0.8655959999999999,0.070404,-0.021637,-0.024933
337,3.37,-0.23824,0.0009690000000000012,-0.947105,-0.0009610000000000037,-0.072769,0.009155
338,3.38,-0.150814,-0.024708,-0.982973,-0.09471100000000003,-0.120697,0.042175
339,3.39,0.010304000000000008,-0.004945999999999999,-0.885883,-0.193787,-0.188873,0.06347699999999999
340,3.4,0.1194,-0.08581,-0.5093409999999999,-0.308823,-0.255997,0.064545
341,3.41,-0.0039799999999999966,-0.09203099999999999,-0.20570500000000003,-0.33972199999999997,-0.263443,0.060287
342,3.42,-0.083454,-0.095414,0.135411,-0.326935,-0.26771500000000004,0.06987
343,3.43,-0.059705999999999995,-0.086476,0.30218,-0.28112800000000004,-0.269836,0.0784
344,3.44,-0.005337999999999999,-0.062087,0.281376,-0.21934499999999998,-0.26239,0.081589
345,3.45,0.12385999999999998,-0.048995,0.181049,-0.15223699999999998,-0.24107399999999998,0.079468
346,3.46,0.141868,-0.043394,0.0040020000000000056,-0.09364299999999999,-0.22403,0.062424
347,3.47,0.215529,-0.022498,-0.15551900000000002,-0.05209400000000001,-0.215515,0.043243000000000004
348,3.48,0.289052,-0.042789,-0.35431,-0.015884,-0.22190900000000002,0.020874000000000004
349,3.49,0.29733899999999996,-0.069242,-0.5414680000000001,0.015015,-0.23149099999999997,-0.005753
350,3.5,0.31722399999999995,-0.095162,-0.682098,0.040573000000000005,-0.21977199999999997,-0.022797
351,3.51,0.323209,-0.16100699999999998,-0.828598,0.066147,-0.195267,-0.038787999999999996
352,3.52,0.30440300000000003,-0.202321,-0.9495520000000001,0.07786599999999999,-0.16650399999999999,-0.054764
353,3.53,0.25137800000000005,-0.261312,-1.104031,0.08638,-0.14094500000000001,-0.067551
354,3.54,0.239135,-0.21875999999999998,-1.236989,0.069336,-0.11644000000000002,-0.07074
355,3.55,0.36449899999999996,-0.090172,-1.313149,0.038452,-0.113251,-0.07820099999999999
356,3.56,0.367052,0.094012,-1.3622670000000001,0.001160000000000001,-0.114319,-0.092041
357,3.57,0.304266,0.453475,-1.393599,-0.051041,-0.06423999999999999,-0.094177
358,3.58,0.287508,0.8188439999999999,-1.341042,-0.092575,0.0018009999999999968,-0.07180800000000001
359,3.59,0.197529,1.0146469999999999,-1.327808,-0.142654,0.085953,-0.035583
360,3.6,0.153529,1.156118,-1.3289389999999999,-0.198044,0.15945399999999998,0.016617
361,3.61,-0.023607000000000003,0.9565799999999999,-1.342203,-0.276871,0.166916,0.042175
362,3.62,-0.002603000000000001,0.962047,-1.237274,-0.359955,0.047607,0.053894000000000004
363,3.63,-0.045185,0.8401190000000001,-1.042162,-0.433472,-0.099396,0.034714
364,3.64,-0.134641,0.7466619999999999,-0.791844,-0.45903,-0.259186,0.012343999999999999
365,3.65,-0.10653599999999999,0.722713,-0.535446,-0.429199,-0.344406,0.016617
366,3.66,0.052660000000000005,0.703094,-0.39477199999999996,-0.346115,-0.332687,0.030456999999999998
367,3.67,0.144021,0.619206,-0.354439,-0.202301,-0.254929,0.034714
368,3.68,0.189122,0.48419700000000004,-0.428336,-0.044646999999999985,-0.132416,0.047501
369,3.69,0.211804,0.360858,-0.622313,0.098099,-0.008849999999999997,0.060287
370,3.7,0.289487,0.43208100000000005,-0.9279139999999999,0.205688,0.07530199999999998,0.06668099999999999
371,3.71,0.281957,0.433225,-1.242076,0.256821,0.152008,0.073074
372,3.72,0.241509,0.40574299999999996,-1.4188379999999998,0.26109299999999996,0.195679,0.083725
373,3.73,0.261581,0.462187,-1.487833,0.239777,0.19249000000000002,0.091187
374,3.74,0.294429,0.47939,-1.577259,0.202499,0.155197,0.09011799999999999
375,3.75,0.32113800000000003,0.331291,-1.581774,0.139648,0.122177,0.083725
376,3.76,0.323832,0.292075,-1.4117899999999999,0.07786599999999999,0.102997,0.08265700000000001
377,3.77,0.318695,0.276248,-1.190887,0.044846,0.092346,0.074142
378,3.78,0.329488,0.22219699999999998,-1.058229,0.03952,0.081696,0.074142
379,3.79,0.44761000000000006,0.23308800000000002,-0.9109860000000001,0.051224,0.080627,0.073074
380,3.8,0.556956,0.29637600000000003,-0.8421420000000001,0.085312,0.085953,0.068802
381,3.81,0.618649,0.361553,-0.75703,0.12260399999999999,0.107269,0.07733200000000001
382,3.82,0.728318,0.578329,-0.710579,0.166275,0.12004100000000001,0.087982
383,3.83,0.816327,0.6838770000000001,-0.716125,0.21101399999999998,0.10513299999999999,0.102905
384,3.84,0.931809,0.784503,-0.8984770000000001,0.23233,0.09448200000000001,0.11460899999999999
385,3.85,1.0900450000000002,0.9471809999999999,-1.0456809999999999,0.225937,0.09980800000000001,0.124207
386,3.86,1.2438719999999999,0.988894,-1.090055,0.207825,0.130692,0.12846400000000002
387,3.87,1.379324,1.012857,-1.133259,0.16841099999999998,0.165848,0.119949
388,3.88,1.390587,1.004669,-1.031387,0.117279,0.204208,0.086914
389,3.89,1.3303559999999999,1.014332,-0.753466,0.074661,0.20846599999999998,0.040054
390,3.9,1.222097,1.039336,-0.3671420000000001,0.052292,0.204208,-0.021744
391,3.91,0.956404,1.021939,0.028372000000000036,0.069336,0.218048,-0.07499700000000001
392,3.92,0.697226,1.015442,0.314664,0.124741,0.23190300000000003,-0.119736
393,3.93,0.39618600000000004,0.9344950000000001,0.543246,0.21101399999999998,0.259598,-0.150635
394,3.94,0.333088,1.077914,0.69553,0.314346,0.3022,-0.17193599999999998
395,3.95,0.207697,1.1129200000000001,0.6465930000000001,0.44325299999999995,0.34481799999999996,-0.196442
396,3.96,0.02648200000000001,1.126826,0.296249,0.540192,0.377838,-0.209229
397,3.97,-0.140593,1.278432,-0.13395700000000002,0.567886,0.404465,-0.187912
398,3.98,-0.23858400000000002,1.4151280000000002,-0.561793,0.518875,0.426849,-0.12187200000000001
399,3.99,-0.22674,1.504116,-0.885709,0.398514,0.39808699999999997,-0.032394
400,4.0,-0.157236,1.476543,-1.014632,0.22380100000000003,0.303268,0.058151
401,4.01,0.02060000000000001,1.270881,-0.9735309999999999,0.016083,0.167984,0.151901
402,4.02,0.24981799999999998,1.0899510000000001,-0.755333,-0.175674,0.003936999999999982,0.213684
403,4.03,0.388933,0.808922,-0.480909,-0.32054099999999996,-0.156921,0.247772
404,4.04,0.516223,0.6318819999999999,-0.143772,-0.399368,-0.25386,0.256302
405,4.05,0.614849,0.501021,0.068502,-0.402573,-0.27516199999999996,0.244583
406,4.06,0.535562,0.496332,0.26268400000000003,-0.352509,-0.195267,0.222214
407,4.07,0.385383,0.537371,0.38095500000000004,-0.279007,-0.073837,0.210495
408,4.08,0.21151399999999998,0.68365,0.44752700000000006,-0.209763,0.04760699999999999,0.211548
409,4.09,-0.011481000000000005,0.675509,0.602182,-0.15756199999999998,0.14773599999999998,0.22540300000000002
410,4.1,-0.12846400000000002,0.5414939999999999,0.800674,-0.114944,0.20953400000000003,0.24031100000000002
411,4.11,-0.35432800000000003,0.270768,0.98077,-0.063812,0.20846599999999998,0.23393200000000003
412,4.12,-0.702604,-0.03803899999999999,1.127989,-0.0062869999999999975,0.166916,0.22433499999999998
413,4.13,-0.930901,-0.274467,1.280549,0.076797,0.083832,0.21581999999999998
414,4.14,-1.072984,-0.472813,1.216072,0.186523,-0.007781999999999997,0.211548
415,4.15,-1.0555299999999999,-0.631255,0.8101119999999999,0.304764,-0.066376,0.221146
416,4.16,-0.844719,-0.7224729999999999,0.187327,0.388916,-0.071701,0.24563600000000002
417,4.17,-0.524492,-0.731748,-0.543131,0.412354,-0.049332,0.26055900000000004
418,4.18,-0.278525,-0.6960689999999999,-1.025218,0.368683,-0.015244,0.258423
419,4.19,0.03979799999999999,-0.5748340000000001,-1.370061,0.26109299999999996,0.051864999999999994,0.246704
420,4.2,0.16663,-0.625999,-1.504917,0.11834700000000001,0.091278,0.209427
421,4.21,0.12080899999999999,-0.6003539999999999,-1.4157540000000002,-0.05209400000000001,0.090225,0.15403699999999998
422,4.22,-0.049675,-0.551628,-1.100571,-0.217209,0.063583,0.10609400000000001
423,4.23,-0.268701,-0.574339,-0.6373300000000001,-0.338654,0.01033,0.057098
424,4.24,-0.597119,-0.613901,-0.147356,-0.39831500000000003,-0.053589,0.020874
425,4.25,-0.71017,-0.654792,0.201161,-0.389786,-0.103653,-0.0025629999999999997
426,4.26,-0.7580180000000001,-0.733595,0.360195,-0.326935,-0.131363,-0.021744
427,4.27,-0.749486,-0.8246680000000001,0.450085,-0.2332,-0.12709,-0.03772
428,4.28,-0.633845,-0.8051590000000001,0.44413199999999997,-0.10856600000000001,-0.075958,-0.059021000000000004
429,4.29,-0.5824819999999999,-0.752742,0.286779,0.033127,0.02630600000000001,-0.082458
430,4.3,-0.611418,-0.769037,0.02299699999999999,0.16841099999999998,0.167984,-0.09843400000000001
431,4.31,-0.71273,-0.744355,-0.289747,0.284531,0.289429,-0.10803199999999999
432,4.32,-0.846806,-0.721222,-0.6598930000000001,0.352707,0.34268200000000004,-0.11335799999999999
433,4.33,-0.9945879999999999,-0.660611,-1.041458,0.360153,0.35228000000000004,-0.093109
434,4.34,-1.077491,-0.550146,-1.276542,0.31541399999999997,0.31073,-0.059021000000000004
435,4.35,-1.052241,-0.509048,-1.442798,0.235519,0.224442,-0.019608
436,4.36,-0.9443379999999999,-0.462078,-1.467617,0.131119,0.130692,0.015549
437,4.37,-0.8701209999999999,-0.433043,-1.408033,0.032059,0.045471,0.038986
438,4.38,-0.805149,-0.358991,-1.188067,-0.040375,-0.019500999999999998,0.053894000000000004
439,4.39,-0.684032,-0.257892,-1.0184090000000001,-0.067017,-0.042938,0.070938
440,4.4,-0.588626,-0.26264099999999996,-0.888201,-0.061690999999999996,-0.026962,0.091187
441,4.41,-0.460441,-0.262018,-0.803963,-0.037186000000000004,0.014587000000000001,0.102905
442,4.42,-0.33532,-0.260278,-0.818921,-0.006286999999999999,0.049744,0.10076900000000001
443,4.43,-0.338009,-0.27564299999999997,-0.820473,0.013946999999999998,0.060394,0.09011799999999999
444,4.44,-0.333025,-0.1914,-0.749913,0.013947,0.034821,0.076263
445,4.45,-0.323115,-0.077058,-0.621891,0.013947,-0.024825999999999997,0.057098
446,4.46,-0.418058,0.009916,-0.505368,0.02034,-0.07809400000000001,0.052826
447,4.47,-0.359155,0.191886,-0.43090200000000006,0.032059,-0.118576,0.062424
448,4.48,-0.238281,0.300222,-0.352811,0.038452,-0.136688,0.070938
449,4.49,-0.172967,0.367463,-0.260988,0.048035,-0.132416,0.08052100000000001
450,4.5,-0.0046589999999999965,0.434737,-0.1322,0.059753,-0.10578900000000001,0.083725
451,4.51,0.11526900000000001,0.489213,-0.055626,0.07786599999999999,-0.06211900000000001,0.070938
452,4.52,0.18547,0.5688479999999999,-0.027280000000000002,0.09916699999999999,0.009262000000000001,0.038986
453,4.53,-0.033332,0.678258,-0.019021,0.101303,0.05719000000000001,0.010223000000000001
454,4.54,-0.234609,0.8332280000000001,0.105564,0.079987,0.064651,0.0016940000000000002
455,4.55,-0.340961,0.94506,0.219619,0.041641000000000004,0.028426999999999997,0.005966
456,4.56,-0.38256100000000004,0.970152,0.33771,-0.010559,-0.038681,0.014481
457,4.57,-0.407833,0.919667,0.47793900000000006,-0.06488,-0.11750799999999999,0.017669999999999998
458,4.58,-0.374477,0.830218,0.78815,-0.098969,-0.21977199999999997,0.002762000000000001
459,4.59,-0.314758,0.7189760000000001,0.883315,-0.092575,-0.316711,-0.027069
460,4.6,-0.13433299999999998,0.805185,0.9181159999999999,-0.045715,-0.378494,-0.07074
461,4.61,0.12649500000000002,0.8908469999999999,0.68488,0.038452,-0.376373,-0.129333
462,4.62,0.301358,1.085687,0.368302,0.111954,-0.303925,-0.192184
463,4.63,0.525269,1.267815,0.094036,0.165207,-0.194214,-0.24543800000000002
464,4.64,0.531763,1.376303,-0.15420599999999998,0.16841099999999998,-0.084488,-0.291245
465,4.65,0.50305,1.314883,-0.312874,0.11941500000000001,-0.016312,-0.309357
466,4.66,0.33612600000000004,1.073215,-0.320522,0.018204,0.018844999999999997,-0.30509899999999995
467,4.67,0.17769300000000002,0.690883,-0.110675,-0.095779,0.006058000000000001,-0.29870599999999997
468,4.68,-0.04031600000000002,0.250136,0.195481,-0.20762600000000003,-0.022705,-0.289124
469,4.69,-0.275357,-0.069731,0.7332069999999999,-0.27473400000000003,-0.05146799999999999,-0.29657
470,4.7,-0.652774,-0.36645700000000003,1.246163,-0.25450100000000003,-0.107925,-0.309357
471,4.71,-0.849399,-0.6163529999999999,1.553986,-0.165024,-0.162247,-0.314682
472,4.72,-0.9390069999999999,-0.65379,1.613669,-0.019072999999999996,-0.20165999999999998,-0.31149299999999996
473,4.73,-0.8524200000000001,-0.594893,1.35866,0.170547,-0.215515,-0.286987
474,4.74,-0.656219,-0.43689399999999995,0.700697,0.350571,-0.203796,-0.244385
475,4.75,-0.26966999999999997,-0.18702,-0.11807299999999997,0.469879,-0.19100999999999999,-0.193253
476,4.76,0.228402,0.01590799999999999,-0.832411,0.49757399999999996,-0.162247,-0.15596
477,4.77,0.589245,0.16454000000000002,-1.433609,0.457092,-0.130295,-0.131454
478,4.78,0.898068,0.278844,-1.8556849999999998,0.351639,-0.087677,-0.12187200000000001
479,4.79,1.028281,0.404005,-2.039438,0.190781,-0.033356,-0.11441
480,4.8,0.91848,0.37278,-2.021191,-0.004165999999999989,0.040146,-0.10482799999999999
481,4.81,0.614937,0.31611300000000003,-1.6799540000000002,-0.216156,0.09767200000000001,-0.083527
482,4.82,0.300739,0.20984299999999997,-1.175921,-0.40683,0.100876,-0.052627999999999994
483,4.83,-0.058613999999999986,0.043211,-0.533238,-0.55278,0.061462,-0.017471
484,4.84,-0.325513,-0.140443,0.06346600000000002,-0.635864,0.009262000000000001,0.028336
485,4.85,-0.5233359999999999,-0.348594,0.49136,-0.673141,-0.0504,0.081589
486,4.86,-0.6373479999999999,-0.49440500000000004,0.831334,-0.671021,-0.131363,0.131653
487,4.87,-0.619587,-0.67516,1.026162,-0.635864,-0.225098,0.18066400000000002
488,4.88,-0.538922,-0.8523270000000001,1.09401,-0.5708770000000001,-0.32310500000000003,0.21581999999999998
489,4.89,-0.290995,-1.030389,1.084435,-0.4814,-0.40725700000000004,0.226471
490,4.9,0.06646900000000003,-1.137333,0.9302790000000001,-0.37381,-0.443481,0.211548
491,4.91,0.532991,-1.189314,0.616703,-0.176743,-0.372101,0.132721
492,4.92,0.690599,-1.1894770000000001,0.430435,-0.036118,-0.24639899999999998,0.054962000000000004
493,4.93,0.763149,-1.063264,0.247705,0.09916699999999999,-0.070633,-0.024933000000000004
494,4.94,0.508383,-0.9932850000000001,0.0709,0.225937,0.108322,-0.08992
495,4.95,0.281197,-0.829191,-0.16501400000000002,0.327133,0.221252,-0.130402
496,4.96,0.212846,-0.657041,-0.43854899999999997,0.388916,0.284103,-0.143173
497,4.97,0.16955499999999998,-0.5396380000000001,-0.64607,0.403839,0.30540500000000004,-0.150635
498,4.98,0.181498,-0.391288,-0.806354,0.386795,0.27771,-0.15596
499,4.99,0.138517,-0.203706,-0.8514719999999999,0.349503,0.210587,-0.157028
500,5.0,0.15658699999999998,0.017712000000000006,-0.869643,0.302628,0.126434,-0.149567
501,5.01,0.165455,0.106797,-0.865373,0.2547,0.054001,-0.132523
502,5.02,0.162366,0.23177899999999999,-0.780265,0.21101399999999998,0.014587000000000001,-0.10803199999999999
503,5.03,0.21819899999999998,0.2873,-0.641346,0.182251,-0.0024569999999999995,-0.082458
504,5.04,0.23770700000000003,0.286089,-0.444975,0.1716,0.0039369999999999995,-0.066483
505,5.05,0.200932,0.213167,-0.258467,0.177994,0.009262000000000001,-0.047302
506,5.06,0.15373,0.15883699999999998,-0.056267,0.201431,0.006058,-0.041977
507,5.07,0.139542,0.051454999999999994,0.053377,0.23658800000000002,0.005005,-0.036652
508,5.08,0.13856400000000002,0.005194000000000001,0.07092999999999999,0.271744,-0.003525,-0.031326
509,5.09,0.232146,0.012315000000000001,0.009984999999999999,0.29836999999999997,0.002869,-0.026001
510,5.1,0.32824699999999996,0.015503,-0.097071,0.302628,0.031631,-0.021744
511,5.11,0.393844,0.034975,-0.212767,0.280258,0.075302,-0.021744
512,5.12,0.367548,0.046146,-0.21078400000000003,0.222733,0.107269,-0.020676
513,5.13,0.27816599999999997,0.029264,-0.106044,0.136459,0.12004100000000001,-0.01535
514,5.14,0.303858,0.072936,0.085854,0.055496,0.102997,-0.007889
515,5.15,0.291488,0.081165,0.355875,-0.019073,0.09767200000000001,-0.0014949999999999998
516,5.16,0.331177,-0.016902999999999998,0.695697,-0.079803,0.092346,-0.0047
517,5.17,0.29381599999999997,-0.161918,1.009625,-0.103226,0.039093,-0.020676
518,5.18,0.213414,-0.282145,1.12719,-0.096848,-0.058914,-0.041977
519,5.19,0.281018,-0.13228499999999999,1.1267790000000002,-0.069138,-0.175034,-0.057953
520,5.2,0.550779,0.4186730000000001,0.804201,-0.015884,-0.280487,-0.05583200000000001
521,5.21,0.8894040000000001,0.963893,0.275779,0.029922000000000004,-0.327362,-0.035583
522,5.22,1.271462,1.4644059999999999,-0.313163,0.008621,-0.24853499999999998,0.014481
523,5.23,1.635297,1.797305,-0.655213,-0.074463,-0.08023099999999997,0.050705
524,5.24,1.813866,1.880512,-0.674227,-0.200165,0.11898800000000001,0.056029999999999996
525,5.25,1.547161,1.6588599999999998,-0.16425100000000006,-0.346115,0.293686,0.012343999999999999
526,5.26,0.9632799999999999,1.129731,0.683467,-0.44731099999999996,0.377838,-0.057953
527,5.27,0.2551590000000001,0.59444,1.486803,-0.444122,0.386368,-0.124008
528,5.28,-0.296304,0.121884,2.083768,-0.338654,0.333099,-0.177261
529,5.29,-0.732034,-0.100262,2.370145,-0.15223699999999998,0.21485900000000002,-0.213486
530,5.3,-0.90771,-0.085047,2.3349759999999997,0.095978,0.089157,-0.218811
531,5.31,-0.763726,0.11809700000000001,1.932538,0.363358,0.044418,-0.209229
532,5.32,-0.548009,0.293623,1.295803,0.605164,0.112595,-0.179398
533,5.33,-0.33317399999999997,0.37898899999999996,0.587071,0.7692260000000001,0.259598,-0.14212
534,5.34,-0.179153,0.40118200000000004,-0.06426599999999999,0.843781,0.407669,-0.12826500000000002
535,5.35,-0.197429,0.329191,-0.5252,0.8320770000000001,0.537628,-0.11335799999999999
536,5.36,-0.250772,0.363279,-0.811012,0.752182,0.6121979999999999,-0.096313
537,5.37,-0.400183,0.332167,-1.047375,0.619019,0.600479,-0.082458
538,5.38,-0.584472,0.305779,-1.161146,0.435791,0.530167,-0.059021000000000004
539,5.39,-0.751473,0.35803,-1.178136,0.225937,0.41831999999999997,-0.020676
540,5.4,-0.829095,0.185834,-1.066057,0.008621000000000005,0.289429,0.033661
541,5.41,-0.8910049999999999,-0.018068999999999998,-0.809808,-0.194839,0.158401,0.07733200000000001
542,5.42,-0.884935,-0.161993,-0.44471700000000003,-0.34079,0.042282,0.11781300000000001
543,5.43,-0.850719,-0.45796400000000004,-0.08405099999999999,-0.42068500000000003,-0.044006,0.151901
544,5.44,-0.8014319999999999,-0.669462,0.222201,-0.435593,-0.091934,0.18598900000000002
545,5.45,-0.645328,-0.764771,0.347572,-0.390854,-0.120697,0.214752
546,5.46,-0.510108,-0.8971680000000001,0.42450200000000005,-0.30137600000000003,-0.131363,0.232864
547,5.47,-0.307694,-0.898942,0.37245,-0.201233,-0.110046,0.246704
548,5.48,-0.137537,-0.9653290000000001,0.27124899999999996,-0.098969,-0.070633,0.241379
549,5.49,-0.057238,-1.077393,0.12687400000000001,-0.009491,-0.022705,0.22540300000000002
550,5.5,-0.06489299999999999,-1.096402,0.014182,0.062943,0.023102,0.201965
551,5.51,-0.20391800000000002,-1.0838379999999999,-0.073447,0.132187,0.063583,0.181732
552,5.52,-0.266113,-1.215892,-0.21599000000000002,0.19503800000000002,0.090225,0.17640699999999998
553,5.53,-0.244608,-1.338022,-0.40862600000000004,0.239777,0.122177,0.17745999999999998
554,5.54,-0.083866,-1.295108,-0.586412,0.280258,0.149872,0.15509
555,5.55,-0.020081,-1.238193,-0.698092,0.317551,0.154129,0.112488
556,5.56,-0.097808,-1.156611,-0.9547610000000001,0.33671599999999996,0.15945399999999998,0.072006
557,5.57,-0.23717800000000003,-0.8757149999999999,-1.068942,0.334595,0.169052,0.052826
558,5.58,-0.34939499999999996,-0.743977,-1.220638,0.326065,0.174377,0.054962000000000004
559,5.59,-0.305032,-0.6188560000000001,-1.376192,0.297302,0.172241,0.06987
560,5.6,-0.201076,-0.622011,-1.500305,0.248306,0.154129,0.067749
561,5.61,-0.009582999999999994,-0.606491,-1.463059,0.18971300000000002,0.12324500000000001,0.043243000000000004
562,5.62,0.027677000000000004,-0.680505,-1.3276540000000001,0.137512,0.082764,-0.006821000000000004
563,5.63,0.069233,-0.594312,-1.091374,0.106628,0.050797,-0.072876
564,5.64,-0.079624,-0.39474899999999996,-0.802236,0.108749,0.033752,-0.139984
565,5.65,-0.262204,-0.195044,-0.544682,0.128998,0.028426999999999997,-0.181534
566,5.66,-0.380388,0.09188699999999997,-0.415187,0.1716,0.006058000000000001,-0.199631
567,5.67,-0.45621300000000004,0.285328,-0.44386400000000004,0.21208200000000002,-0.028030000000000003,-0.195374
568,5.68,-0.311573,0.457867,-0.537021,0.23233,-0.039749,-0.16981500000000002
569,5.69,-0.081341,0.616736,-0.676016,0.231262,-0.020569,-0.157028
570,5.7,0.12501800000000002,0.763417,-0.743043,0.20463599999999998,0.023102,-0.16128499999999998
571,5.71,0.14016199999999998,0.972878,-0.6836369999999999,0.14816300000000002,0.09874,-0.16661099999999998
572,5.72,-0.048902,1.0517020000000001,-0.510671,0.067215,0.162659,-0.160217
573,5.73,-0.356589,1.114208,-0.08734900000000001,-0.027602999999999996,0.182892,-0.134659
574,5.74,-0.593561,1.146317,0.41500699999999996,-0.12454200000000001,0.138153,-0.079269
575,5.75,-0.708512,1.042145,0.8955219999999999,-0.21402,0.033752,-0.022797
576,5.76,-0.700399,0.888019,1.329166,-0.275803,-0.12390099999999997,0.024063000000000005
577,5.77,-0.571447,0.801924,1.651303,-0.30349699999999996,-0.302872,0.049637
578,5.78,-0.346036,0.764472,1.771039,-0.293915,-0.46159399999999995,0.056029999999999996
579,5.79,0.021841000000000027,0.907011,1.668295,-0.27473400000000003,-0.542542,0.049637
580,5.8,0.414944,1.036804,1.4836479999999999,-0.261963,-0.512726,0.042175
581,5.81,0.641259,1.107493,1.377049,-0.277939,-0.38382,0.032593000000000004
582,5.82,0.659903,1.029107,1.47359,-0.30777,-0.236816,0.017669999999999998
583,5.83,0.492491,0.70372,1.766095,-0.325867,-0.137741,-0.012146
584,5.84,0.29501,0.341312,2.159687,-0.305634,-0.11644000000000002,-0.054764
585,5.85,0.098732,0.0009570000000000133,2.402724,-0.22466999999999998,-0.155853,-0.105896
586,5.86,0.007913000000000003,-0.24614299999999997,2.482901,-0.068085,-0.212311,-0.167679
587,5.87,-0.105245,-0.21423899999999999,2.1809950000000002,0.143906,-0.24960300000000002,-0.21134899999999998
588,5.88,0.06384400000000001,0.045573,1.5191270000000001,0.36654699999999996,-0.22190900000000002,-0.21562199999999998
589,5.89,0.417279,0.281217,0.592331,0.528473,-0.122833,-0.196442
590,5.9,0.8356319999999999,0.71823,-0.29548699999999994,0.600906,0.02949499999999998,-0.181534
591,5.91,1.101974,0.9882280000000001,-1.099098,0.5732119999999999,0.191422,-0.17193599999999998
592,5.92,1.0485440000000001,0.9598270000000001,-1.5767799999999998,0.420883,0.349075,-0.165543
593,5.93,0.809592,0.931637,-1.619386,0.190781,0.45986899999999997,-0.150635
594,5.94,0.38556599999999996,0.601828,-1.2703879999999999,-0.059555,0.491821,-0.13359100000000002
595,5.95,-0.10811400000000003,0.201303,-0.6472140000000001,-0.26301599999999997,0.414062,-0.119736
596,5.96,-0.7015170000000001,-0.170355,-0.07535200000000003,-0.395111,0.26811199999999996,-0.085648
597,5.97,-1.047876,-0.554008,0.289749,-0.452637,0.07850599999999999,-0.020676
598,5.98,-1.151592,-0.822989,0.44354899999999997,-0.457962,-0.115372,0.060287000000000014
599,5.99,-1.045766,-0.983784,0.360574,-0.429199,-0.280487,0.141251
600,6.0,-0.674187,-1.184615,0.158171,-0.376999,-0.384888,0.210495
601,6.01,-0.20294,-1.349019,-0.185598,-0.32160900000000003,-0.42218,0.24884
602,6.02,0.321601,-1.5934190000000001,-0.5399229999999999,-0.25663800000000003,-0.356125,0.23072800000000002
603,6.03,0.45763000000000004,-1.668598,-0.705426,-0.20762600000000003,-0.30499299999999996,0.173203
604,6.04,0.48660200000000003,-1.6884439999999998,-0.772564,-0.163956,-0.23255900000000002,0.11035199999999999
605,6.05,0.285006,-1.606838,-0.805025,-0.12773099999999998,-0.118576,0.074142
606,6.06,0.03626399999999999,-1.292429,-0.86955,-0.07341,0.023102000000000008,0.0784
607,6.07,-0.001929,-1.083036,-1.0853709999999999,-0.019073,0.136032,0.11035199999999999
608,6.08,0.010487,-0.869785,-1.451281,-0.02121,0.215927,0.141251
609,6.09,0.047227,-0.65692,-1.65488,-0.071274,0.22869899999999999,0.146576
610,6.1,-0.053524,-0.542346,-1.681071,-0.165024,0.21379099999999998,0.149765
611,6.11,-0.18190699999999999,-0.449686,-1.4649530000000002,-0.258759,0.191422,0.165741
612,6.12,-0.22522899999999998,-0.346706,-1.028299,-0.32160900000000003,0.173309,0.191315
613,6.13,-0.353645,-0.375783,-0.499679,-0.345047,0.177567,0.22326700000000002
614,6.14,-0.409235,-0.368813,-0.053088,-0.312027,0.152008,0.256302
615,6.15,-0.39969699999999997,-0.304402,0.323673,-0.238525,0.088089,0.288254
616,6.16,-0.292642,-0.34019099999999997,0.464197,-0.143707,0.009261999999999992,0.325531
617,6.17,-0.007972999999999994,-0.204551,0.55404,-0.039322,-0.06105,0.347916
618,6.18,0.368349,-0.14215,0.45493900000000004,0.056563999999999996,-0.114319,0.345779
619,6.19,0.712721,-0.014403999999999998,0.30794499999999997,0.139648,-0.138809,0.318085
620,6.2,0.922114,0.233366,0.180071,0.203568,-0.099396,0.268021
621,6.21,0.998109,0.44277700000000003,0.075822,0.24616999999999997,-0.021637000000000003,0.221146
622,6.22,1.073447,0.644967,-0.05129700000000001,0.256821,0.059326,0.184921
623,6.23,1.121035,0.815724,-0.17679,0.22380100000000003,0.124313,0.146576
624,6.24,1.097359,0.8953409999999999,-0.14006500000000002,0.141785,0.17012,0.107162
625,6.25,0.886555,0.909357,0.024294,0.048035000000000015,0.185028,0.076263
626,6.26,0.630307,0.8758959999999999,0.277356,-0.044647000000000006,0.153076,0.06668099999999999
627,6.27,0.508488,0.8891540000000001,0.599687,-0.119217,0.09874,0.068802
628,6.28,0.500843,0.8618530000000001,0.8488889999999999,-0.15863,0.014587000000000003,0.076263
629,6.29,0.670768,0.790301,0.930018,-0.165024,-0.069565,0.073074
630,6.3,0.847455,0.809886,1.026175,-0.145844,-0.128159,0.054962000000000004
631,6.31,0.995448,0.845676,0.970932,-0.079803,-0.118576,-0.0014949999999999998
632,6.32,0.960457,0.8224610000000001,0.774019,-0.037186000000000004,-0.038681,-0.038787999999999996
633,6.33,0.908898,0.710677,0.6545310000000001,-0.029724,0.089157,-0.067551
634,6.34,0.70238,0.513664,0.606542,-0.054229999999999993,0.23722800000000002,-0.09524500000000001
635,6.35,0.404733,0.512599,0.7066899999999999,-0.092575,0.348007,-0.12187200000000001
636,6.36,0.010434,0.48495600000000005,0.8394530000000001,-0.136261,0.3853,-0.138916
637,6.37,-0.498453,0.23917,1.0579040000000002,-0.196976,0.36293000000000003,-0.12187200000000001
638,6.38,-0.808959,0.045211,1.341258,-0.261963,0.281967,-0.086716
639,6.39,-1.009348,-0.24151599999999998,1.689534,-0.271545,0.158401,-0.059021000000000004
640,6.4,-1.119122,-0.500315,1.9355310000000001,-0.21188400000000002,0.015656000000000003,-0.031326
641,6.41,-1.075074,-0.68058,1.8653790000000001,-0.091507,-0.129227,-0.006821000000000001
642,6.42,-0.8316530000000001,-0.713897,1.514355,0.068268,-0.235748,0.02301
643,6.43,-0.374918,-0.67394,0.904801,0.22805799999999998,-0.250671,0.057098
644,6.44,0.20563400000000004,-0.44199799999999995,0.11095900000000004,0.349503,-0.173965,0.074142
645,6.45,0.757157,-0.262335,-0.638376,0.40170300000000003,-0.049332,0.06347699999999999
646,6.46,1.026139,-0.015845000000000026,-1.206567,0.377197,0.111526,0.031525
647,6.47,0.9508549999999999,0.126816,-1.625029,0.272812,0.279831,-0.003632
648,6.48,0.669514,0.33492,-1.710475,0.090652,0.41618299999999997,-0.012145999999999999
649,6.49,0.246102,0.386525,-1.534513,-0.154358,0.483307,0.012343999999999999
650,6.5,-0.110444,0.178014,-1.115649,-0.42068500000000003,0.43536400000000003,0.054962000000000004
651,6.51,-0.340719,-0.24149,-0.537751,-0.672089,0.270248,0.079468
652,6.52,-0.463027,-0.734823,0.17344799999999996,-0.848923,0.031630999999999986,0.070938
653,6.53,-0.44015,-1.164295,0.834089,-0.9256129999999999,-0.20912199999999997,0.043243000000000004
654,6.54,-0.257579,-1.357019,1.3126,-0.8947299999999999,-0.41151400000000005,-0.011093000000000002
655,6.55,-0.21239499999999997,-1.3240129999999999,1.610219,-0.750916,-0.509521,-0.072876
656,6.56,-0.15456199999999998,-1.209737,1.650163,-0.5336,-0.486084,-0.10803199999999999
657,6.57,-0.059764,-1.009701,1.447815,-0.282196,-0.339081,-0.115479
658,6.58,0.147728,-0.842773,1.045475,-0.039322,-0.115372,-0.110153
659,6.59,0.24732300000000002,-0.812908,0.463211,0.153503,0.108322,-0.11228900000000001
660,6.6,0.327291,-0.8834700000000001,0.027501,0.273865,0.253204,-0.137848
661,6.61,0.231729,-0.8832909999999999,-0.351711,0.327133,0.309662,-0.18365499999999998
662,6.62,-0.10830799999999999,-0.835835,-0.484496,0.328201,0.287292,-0.225204
663,6.63,-0.554675,-0.602571,-0.487123,0.310089,0.253204,-0.228394
664,6.64,-0.9854700000000001,-0.410185,-0.586661,0.29518099999999997,0.229767,-0.17514000000000002
665,6.65,-1.058429,-0.174495,-0.646818,0.284531,0.25853000000000004,-0.068604
666,6.66,-1.027126,-0.146998,-0.8395520000000001,0.267487,0.284103,0.031525
667,6.67,-0.914768,-0.16317,-1.033305,0.22380100000000003,0.286224,0.119949
668,6.68,-0.7690520000000001,-0.256795,-1.127119,0.16095,0.227631,0.17745999999999998
669,6.69,-0.770701,-0.384278,-1.134207,0.087448,0.112595,0.194504
670,6.7,-0.6806979999999999,-0.396119,-0.9713219999999999,0.015015,-0.03335599999999998,0.191315
671,6.71,-0.579384,-0.405742,-0.786499,-0.030792,-0.151596,0.183853
672,6.72,-0.53686,-0.35435,-0.526287,-0.036118,-0.21977199999999997,0.17533900000000002
673,6.73,-0.42812799999999995,-0.259348,-0.364603,-0.0009609999999999999,-0.24427800000000002,0.164688
674,6.74,-0.33112199999999997,-0.12163399999999999,-0.228298,0.048035,-0.236816,0.150833
675,6.75,-0.202981,0.043427000000000014,-0.13179200000000002,0.104492,-0.19953900000000002,0.127396
676,6.76,-0.071234,0.216888,-0.07027,0.16734300000000002,-0.14840699999999998,0.094376
677,6.77,-0.023824,0.312156,-0.032389999999999995,0.224869,-0.095139,0.046432
678,6.78,-0.004468,0.448604,-0.019964,0.273865,-0.0504,-0.010024999999999996
679,6.79,0.013211999999999998,0.630733,-0.122195,0.313293,-0.010986,-0.057953
680,6.8,-0.08183,0.826334,-0.19584100000000002,0.33139,0.0327,-0.09843400000000001
681,6.81,-0.078488,1.021095,-0.239405,0.317551,0.068909,-0.12826500000000002
682,6.82,-0.162751,1.19379,-0.230348,0.257889,0.112595,-0.145309
683,6.83,-0.25868,1.3412549999999999,-0.036912,0.1716,0.126434,-0.14212
684,6.84,-0.460215,1.318953,0.238488,0.069336,0.07423400000000001,-0.134659
685,6.85,-0.604375,1.256367,0.643597,-0.029724,-0.03442400000000001,-0.11441
686,6.86,-0.533586,1.2954370000000002,0.898617,-0.09364299999999999,-0.182495,-0.09524500000000001
687,6.87,-0.269949,1.301344,0.954909,-0.128799,-0.292206,-0.085648
688,6.88,0.064375,1.386001,0.9621219999999999,-0.155426,-0.332687,-0.080322
689,6.89,0.42381,1.3513389999999998,0.9287989999999999,-0.182068,-0.335892,-0.085648
690,6.9,0.657343,1.2220739999999999,0.865892,-0.223602,-0.32203699999999996,-0.094177
691,6.91,0.805237,0.916502,0.916681,-0.277939,-0.30499299999999996,-0.115479
692,6.92,0.76195,0.440907,1.064599,-0.32160900000000003,-0.294342,-0.151703
693,6.93,0.626102,-0.034115000000000006,1.38755,-0.32800300000000004,-0.285812,-0.20602399999999998
694,6.94,0.347329,-0.43277600000000005,1.610462,-0.279007,-0.290085,-0.268875
695,6.95,0.08143099999999999,-0.634582,1.7322009999999999,-0.17886400000000002,-0.29541,-0.318954
696,6.96,-0.068131,-0.5244310000000001,1.55923,-0.039322,-0.291153,-0.350906
697,6.97,-0.20419400000000001,-0.42786499999999994,1.1458,0.111954,-0.293274,-0.356232
698,6.98,0.0039829999999999996,-0.239044,0.4763999999999999,0.227005,-0.25811799999999996,-0.32960500000000004
699,6.99,0.20463299999999998,0.041125000000000016,-0.25238399999999994,0.276001,-0.21019000000000002,-0.293381
700,7.0,0.414691,0.236475,-0.826952,0.263214,-0.155853,-0.24543800000000002
701,7.01,0.68516,0.39724499999999996,-1.270632,0.175873,-0.071701,-0.179398
702,7.02,0.900907,0.44916999999999996,-1.5066190000000002,0.040573000000000005,0.010330000000000002,-0.12294000000000001
703,7.03,0.991619,0.42468199999999995,-1.47672,-0.13945,0.073181,-0.082458
704,7.04,0.835767,0.33518600000000004,-1.23796,-0.32054099999999996,0.083832,-0.051559
705,7.05,0.604509,0.08983,-0.745286,-0.48779300000000003,0.058258000000000004,-0.016418000000000002
706,7.06,0.352507,-0.190985,-0.165101,-0.615631,0.002869,0.019806
707,7.07,0.156553,-0.49230799999999997,0.424692,-0.68486,-0.072769,0.053894000000000004
708,7.08,0.035544,-0.8728299999999999,0.881232,-0.707245,-0.15799000000000002,0.083725
709,7.09,-0.026664999999999998,-1.227218,1.2255200000000002,-0.692322,-0.25386,0.095444
710,7.1,-0.021558,-1.508626,1.554691,-0.614563,-0.354004,0.085846
711,7.11,0.091404,-1.802532,1.6684279999999998,-0.394043,-0.44560200000000005,0.035781999999999994
712,7.12,0.381914,-1.799534,1.109932,0.019272,-0.345474,-0.041977
713,7.13,0.48918999999999996,-1.570139,0.527582,0.215286,-0.215515,-0.07074
714,7.14,0.6297119999999999,-1.441567,-0.08085500000000001,0.360153,-0.073837,-0.09524500000000001
715,7.15,0.667443,-1.304409,-0.6577850000000001,0.444321,0.017776000000000004,-0.129333
716,7.16,0.690121,-1.191314,-0.98721,0.47201499999999996,0.05719,-0.15809600000000001
717,7.17,0.637475,-1.024197,-1.3199809999999998,0.45283500000000004,0.066788,-0.181534
718,7.18,0.549982,-0.8774270000000001,-1.477509,0.395309,0.054001,-0.192184
719,7.19,0.45460200000000006,-0.7299770000000001,-1.4759870000000002,0.310089,0.026306,-0.187912
720,7.2,0.32803000000000004,-0.5883619999999999,-1.369277,0.215286,-0.021637,-0.176208
721,7.21,0.26955300000000004,-0.47254399999999996,-1.2050889999999999,0.144974,-0.067444,-0.16128499999999998
722,7.22,0.23401999999999998,-0.39221300000000003,-0.993174,0.09277300000000001,-0.07809400000000001,-0.13359100000000002
723,7.23,0.151976,-0.262439,-0.837598,0.070404,-0.048264,-0.10375999999999999
724,7.24,0.007723000000000008,-0.166998,-0.688457,0.058685,-0.010986,-0.068604
725,7.25,-0.190663,-0.025037000000000004,-0.505394,0.037384,0.0039369999999999995,-0.018539000000000003
726,7.26,-0.309705,0.096807,-0.362132,0.01181,-0.039749,0.038986
727,7.27,-0.318235,0.07653099999999999,-0.227584,-0.008423,-0.128159,0.09011799999999999
728,7.28,-0.131547,0.109003,-0.137685,-0.023331,-0.22616599999999998,0.12207
729,7.29,0.141623,0.23886100000000002,-0.10222,-0.019073,-0.296478,0.12953199999999998
730,7.3,0.372241,0.326397,-0.192719,0.005432,-0.302872,0.12313800000000001
731,7.31,0.541658,0.565813,-0.275892,0.023528999999999998,-0.23255900000000002,0.12313800000000001
732,7.32,0.649867,0.760145,-0.378671,0.028854,-0.114319,0.12846400000000002
733,7.33,0.80777,0.9423530000000001,-0.384243,-0.003098,0.020981,0.135925
734,7.34,0.91456,1.051657,-0.30293600000000004,-0.063812,0.122177,0.12846400000000002
735,7.35,0.9196129999999999,1.0930309999999999,0.06489900000000001,-0.138382,0.177567,0.101837
736,7.36,0.8049970000000001,1.174952,0.48786499999999994,-0.18951400000000002,0.18928499999999998,0.062424
737,7.37,0.583335,1.440542,0.8959959999999999,-0.192719,0.166916,0.020874
738,7.38,0.443172,1.762046,1.141108,-0.168213,0.15945399999999998,0.004898
739,7.39,0.323321,1.910363,1.057182,-0.150101,0.186096,0.020874
740,7.4,0.354961,2.0209029999999997,0.941473,-0.162888,0.221252,0.049637
741,7.41,0.365791,2.003259,0.793864,-0.22892800000000002,0.260666,0.073074
742,7.42,0.26564099999999996,1.8775700000000002,0.829441,-0.33972199999999997,0.285156,0.091187
743,7.43,0.040456999999999986,1.528404,1.1194819999999999,-0.468613,0.263855,0.103958
744,7.44,-0.25383,1.018857,1.638309,-0.565552,0.21485900000000002,0.108231
745,7.45,-0.40936,0.419717,2.162826,-0.5975189999999999,0.14240999999999998,0.116745
746,7.46,-0.600478,-0.227505,2.59572,-0.5506439999999999,0.079559,0.10928299999999999
747,7.47,-0.693225,-0.619371,2.952003,-0.39299,-0.01738,0.065613
748,7.48,-0.7571289999999999,-0.87895,2.920938,-0.124542,-0.10472100000000001,0.018738
749,7.49,-0.591547,-0.800176,2.351299,0.202499,-0.091934,-0.0025629999999999997
750,7.5,-0.230566,-0.634023,1.3967450000000001,0.521011,0.015656000000000003,-0.013213999999999998
751,7.51,0.061301,-0.47245299999999996,0.217062,0.736191,0.165848,-0.016418000000000002
752,7.52,0.17902200000000001,-0.18091300000000002,-0.821685,0.824615,0.33523600000000003,-0.030257999999999997
753,7.53,0.19985999999999998,0.248294,-1.735943,0.775604,0.514191,-0.01535
754,7.54,0.121071,0.414984,-2.320439,0.576401,0.662262,0.018738
755,7.55,-0.140118,0.390874,-2.466182,0.2547,0.730438,0.044312
756,7.56,-0.540153,0.06545600000000001,-2.011875,-0.122406,0.665466,0.065613
757,7.57,-0.9994200000000001,-0.37189,-1.176372,-0.468613,0.479034,0.084793
758,7.58,-1.4535040000000001,-0.613265,-0.169941,-0.705109,0.21698,0.11355599999999999
759,7.59,-1.636548,-0.9516110000000001,0.645018,-0.8126979999999999,-0.06318700000000001,0.178528
760,7.6,-1.41241,-1.0762530000000001,1.167036,-0.8116300000000001,-0.29541,0.239258
761,7.61,-1.024294,-1.222472,1.32371,-0.714691,-0.449875,0.278671
762,7.62,-0.520097,-1.351369,1.246438,-0.557037,-0.48396300000000003,0.295715
763,7.63,-0.07222899999999999,-1.367494,0.950361,-0.37487800000000004,-0.405136,0.293579
764,7.64,0.32656999999999997,-1.414867,0.583721,-0.201233,-0.268768,0.270142
765,7.65,0.631414,-1.376823,0.25794,-0.06275900000000001,-0.118576,0.22326700000000002
766,7.66,0.816562,-1.289923,0.048691000000000005,0.043776999999999996,0.003937000000000003,0.149765
767,7.67,0.6911010000000001,-1.250916,-0.079231,0.134323,0.090225,0.070938
768,7.68,0.45348299999999997,-1.122247,-0.184247,0.21740700000000002,0.14240999999999998,0.003830000000000004
769,7.69,0.11893399999999997,-0.9512520000000001,-0.302791,0.285583,0.186096,-0.023865
770,7.7,-0.06988899999999999,-0.846332,-0.509233,0.34524499999999997,0.22230500000000003,-0.030257999999999997
771,7.71,-0.21595599999999998,-0.7324510000000001,-0.719004,0.378265,0.253204,-0.022797
772,7.72,-0.281067,-0.7052579999999999,-0.9762709999999999,0.378265,0.26811199999999996,-0.014282
773,7.73,-0.416666,-0.640994,-1.104203,0.349503,0.262787,-0.005753
774,7.74,-0.504631,-0.589773,-1.099872,0.301575,0.232971,0.007019
775,7.75,-0.569383,-0.5873079999999999,-1.058877,0.253632,0.187164,0.016617
776,7.76,-0.6496689999999999,-0.546237,-0.931726,0.207825,0.11792000000000001,0.028336
777,7.77,-0.735047,-0.51199,-0.825183,0.174805,0.034821,0.033661
778,7.78,-0.694346,-0.429749,-0.757943,0.159882,-0.047195,0.043243000000000004
779,7.79,-0.661633,-0.338775,-0.671334,0.149231,-0.103653,0.053894000000000004
780,7.8,-0.47103,-0.222345,-0.598471,0.154556,-0.134552,0.058151
781,7.81,-0.213114,-0.11611300000000001,-0.475476,0.162018,-0.133484,0.03685
782,7.82,-0.030020000000000005,0.056054,-0.29124,0.179062,-0.100464,-0.007889
783,7.83,0.020102,0.24346500000000001,-0.130227,0.203568,-0.044006,-0.060089
784,7.84,-0.098041,0.45117399999999996,0.048327000000000016,0.23445100000000002,0.019913,-0.105896
785,7.85,-0.238846,0.684878,0.158797,0.267487,0.081696,-0.13677999999999998
786,7.86,-0.417471,0.829202,0.19405,0.29090900000000003,0.13176,-0.147446
787,7.87,-0.46642100000000003,0.8935690000000001,0.21892199999999998,0.285583,0.15945399999999998,-0.145309
788,7.88,-0.556611,0.925494,0.245022,0.253632,0.155197,-0.138916
789,7.89,-0.623714,0.9033389999999999,0.41552100000000003,0.200363,0.108322,-0.12187200000000001
790,7.9,-0.630961,0.889589,0.625183,0.146042,0.019913,-0.094177
791,7.91,-0.578836,0.891432,0.848616,0.108749,-0.10578900000000001,-0.063278
792,7.92,-0.344632,0.965075,0.9240450000000001,0.100235,-0.250671,-0.033463
793,7.93,0.117045,1.035609,0.703974,0.102371,-0.331619,-0.01535
794,7.94,0.521958,1.10851,0.40812,0.07147200000000001,-0.30925,-0.013213999999999998
795,7.95,0.8185319999999999,1.086763,0.271841,-0.014815999999999998,-0.259186,-0.023865
796,7.96,1.013349,1.057455,0.48881899999999995,-0.126663,-0.22723400000000002,-0.059021000000000004
797,7.97,0.978303,1.008167,0.9364540000000001,-0.21934499999999998,-0.21444699999999997,-0.127197
798,7.98,0.633047,0.644042,1.475019,-0.26408400000000004,-0.194214,-0.195374
799,7.99,0.266359,0.30343400000000004,1.938879,-0.248108,-0.181427,-0.240112
800,8.0,0.071105,0.071768,2.2382560000000002,-0.173538,-0.184616,-0.28273000000000004
801,8.01,-0.122045,-0.12178,2.331611,-0.046768,-0.184616,-0.325333
802,8.02,-0.246298,-0.121958,2.202516,0.10981800000000001,-0.161179,-0.347702
803,8.03,-0.26506399999999997,0.014597000000000006,1.6956349999999998,0.28772,-0.120697,-0.350906
804,8.04,-0.14846899999999996,0.131874,0.8200440000000001,0.41874700000000004,-0.052521000000000005,-0.317886
805,8.05,0.16300699999999999,0.27737,-0.022722000000000075,0.46668999999999994,0.035889000000000004,-0.276337
806,8.06,0.46554399999999996,0.46850200000000003,-0.778738,0.43792700000000007,0.102997,-0.248642
807,8.07,0.6486569999999999,0.641049,-1.382799,0.322876,0.178635,-0.216675
808,8.08,0.636605,0.599374,-1.6900540000000002,0.12579300000000002,0.232971,-0.17514000000000002
809,8.09,0.665155,0.470105,-1.754199,-0.108566,0.221252,-0.12826500000000002
810,8.1,0.47996300000000003,0.16664900000000002,-1.46684,-0.345047,0.15094000000000002,-0.09524500000000001
811,8.11,0.11858200000000005,-0.213556,-0.980883,-0.5431819999999999,0.055068999999999986,-0.062225
812,8.12,-0.099513,-0.548742,-0.336965,-0.66037,-0.035477,-0.017471
813,8.13,-0.2788,-0.98877,0.11813399999999999,-0.690186,-0.103653,0.028336
814,8.14,-0.302077,-1.324964,0.362433,-0.648651,-0.15478499999999998,0.062424
815,8.15,-0.174758,-1.538877,0.43743000000000004,-0.561295,-0.195267,0.075195
816,8.16,-0.06175700000000001,-1.715371,0.369596,-0.44944799999999996,-0.203796,0.064545
817,8.17,0.12138900000000001,-1.643527,0.21558899999999998,-0.33226,-0.18249500000000002,0.050705
818,8.18,0.352509,-1.528534,-0.029702999999999993,-0.2332,-0.130295,0.029388
819,8.19,0.557279,-1.428806,-0.234078,-0.153305,-0.065308,-0.003632
820,8.2,0.652583,-1.291312,-0.304923,-0.101105,0.006058000000000001,-0.051559
821,8.21,0.616466,-1.193051,-0.28943800000000003,-0.060623,0.056137,-0.08992
822,8.22,0.5041359999999999,-1.143532,-0.26073,-0.018005,0.080627,-0.12294000000000001
823,8.23,0.383231,-1.045822,-0.1954,0.028854,0.10513299999999999,-0.134659
824,8.24,0.27415300000000004,-0.951256,-0.266006,0.082123,0.121109,-0.130402
825,8.25,0.130701,-0.8052199999999999,-0.365587,0.12793,0.130692,-0.116547
826,8.26,0.13203499999999999,-0.574271,-0.503973,0.154556,0.11898800000000001,-0.085648
827,8.27,0.168826,-0.355057,-0.669799,0.15776099999999998,0.100876,-0.047302
828,8.28,0.26789,-0.18299100000000001,-0.706831,0.137512,0.090225,-0.0004270000000000003
829,8.29,0.42653500000000005,-0.10885299999999999,-0.705272,0.113022,0.062515,0.037918
830,8.3,0.467609,-0.032043,-0.628155,0.090652,0.039093,0.06347699999999999
831,8.31,0.470416,-0.097475,-0.488184,0.07786599999999999,0.014587000000000001,0.086914
832,8.32,0.46201800000000004,-0.115168,-0.31049499999999997,0.088516,-0.010986,0.103958
833,8.33,0.438482,-0.054074000000000004,-0.12208,0.126862,-0.026962,0.118881
834,8.34,0.496975,0.13363699999999998,-0.080037,0.185455,-0.028030000000000003,0.134857
835,8.35,0.65903,0.330206,-0.11313699999999999,0.24616999999999997,0.002869,0.14444
836,8.36,0.721974,0.533505,-0.235577,0.280258,0.059326,0.148697
837,8.37,0.823206,0.690805,-0.26294,0.276001,0.128571,0.140182
838,8.38,0.78533,0.821092,-0.149662,0.25149499999999997,0.20314000000000002,0.121002
839,8.39,0.6252989999999999,0.828849,0.146082,0.21740700000000002,0.276642,0.091187
840,8.4,0.37906100000000004,0.873873,0.477335,0.183319,0.326706,0.072006
841,8.41,0.031574999999999985,0.8386379999999999,0.774347,0.156693,0.365051,0.064545
842,8.42,-0.293605,0.813817,1.095261,0.12260399999999999,0.375702,0.0784
843,8.43,-0.524091,0.747815,1.384157,0.07786599999999999,0.337357,0.11035199999999999
844,8.44,-0.6717350000000001,0.638744,1.58543,0.043776999999999996,0.23190300000000003,0.13378900000000002
845,8.45,-0.655663,0.683732,1.685715,0.029922000000000004,0.088089,0.145508
846,8.46,-0.519404,0.727855,1.623158,0.03952,-0.034424,0.159363
847,8.47,-0.306374,0.803079,1.398064,0.048035,-0.058914,0.183853
848,8.48,-0.042818,0.8156760000000001,1.112822,0.057616999999999995,-0.014175,0.198776
849,8.49,0.211038,0.8748370000000001,0.844269,0.03418,0.08169600000000002,0.198776
850,8.5,0.190415,0.779064,0.80723,-0.013748000000000005,0.205261,0.17640699999999998
851,8.51,-0.153559,0.53357,1.061883,-0.076599,0.320312,0.146576
852,8.52,-0.7097220000000001,0.132374,1.5469469999999998,-0.11389200000000001,0.368256,0.125275
853,8.53,-1.289666,-0.30546799999999996,2.025339,-0.101105,0.365051,0.121002
854,8.54,-1.706907,-0.580407,2.324032,-0.024399000000000004,0.306473,0.151901
855,8.55,-1.954073,-0.8618819999999999,2.316958,0.082123,0.210587,0.203033
856,8.56,-1.8476740000000003,-0.727909,2.052125,0.205688,0.112595,0.269073
857,8.57,-1.475251,-0.565022,1.564422,0.335663,0.073181,0.334061
858,8.58,-1.094755,-0.359623,0.8977860000000001,0.417679,0.13176,0.388382
859,8.59,-0.754919,-0.178377,0.199715,0.43153400000000003,0.23934899999999998,0.42781099999999994
860,8.6,-0.600541,0.05389900000000001,-0.27233,0.370804,0.38955700000000004,0.45336899999999997
861,8.61,-0.650626,-0.016104000000000004,-0.554713,0.242981,0.566391,0.48213199999999995
862,8.62,-0.780828,-0.141709,-0.579162,0.060822,0.7027439999999999,0.507706
863,8.63,-0.989613,-0.306017,-0.3221350000000001,-0.146912,0.765594,0.518356
864,8.64,-1.3204989999999999,-0.554373,0.2147739999999999,-0.34079,0.765594,0.521545
865,8.65,-1.7298669999999998,-0.786311,0.8732,-0.471817,0.695282,0.5311279999999999
866,8.66,-1.916893,-0.992185,1.3414,-0.531464,0.558929,0.554565
867,8.67,-1.8145810000000002,-1.164701,1.6060299999999998,-0.531464,0.424713,0.586533
868,8.68,-1.4781879999999998,-1.260155,1.640766,-0.48033100000000006,0.32777399999999995,0.597183
869,8.69,-1.1158379999999999,-1.302551,1.53575,-0.385529,0.308594,0.575882
870,8.7,-0.787954,-1.301188,1.383117,-0.260895,0.38209499999999996,0.538589
871,8.71,-0.529821,-1.256117,1.18195,-0.12133800000000002,0.540833,0.485321
872,8.72,-0.476833,-1.163103,0.962548,0.019272,0.714462,0.42246999999999996
873,8.73,-0.519748,-1.0419690000000001,0.684178,0.140717,0.8870389999999999,0.370285
874,8.74,-0.653767,-0.892059,0.446058,0.22805799999999998,1.011673,0.330872
875,8.75,-0.861051,-0.83205,0.202205,0.266418,1.0617370000000002,0.30636599999999997
876,8.76,-0.996862,-0.745516,0.030518000000000007,0.26109299999999996,1.059616,0.309555
877,8.77,-1.039728,-0.7110609999999999,-0.091656,0.24084499999999998,1.0169979999999998,0.322342
878,8.78,-1.111536,-0.712472,-0.23280700000000001,0.21315,0.96373,0.346848
879,8.79,-1.0081579999999999,-0.74426,-0.359166,0.186523,0.93924,0.377731
880,8.8,-0.878769,-0.764456,-0.454858,0.17266800000000002,0.93071,0.39584400000000003
881,8.81,-0.770703,-0.7910119999999999,-0.597835,0.1716,0.9488219999999999,0.39584400000000003
882,8.82,-0.6348239999999999,-0.693355,-0.641713,0.174805,0.979721,0.385193
883,8.83,-0.49763999999999997,-0.723433,-0.704805,0.179062,1.031906,0.371338
884,8.84,-0.448121,-0.689203,-0.709426,0.183319,1.078781,0.344711
885,8.85,-0.47678400000000004,-0.521879,-0.637625,0.182251,1.10968,0.318085
886,8.86,-0.601618,-0.43793999999999994,-0.49694099999999997,0.174805,1.133118,0.30423
887,8.87,-0.675614,-0.37546999999999997,-0.374312,0.169479,1.144836,0.309555
888,8.88,-0.765917,-0.289633,-0.260707,0.16095,1.140564,0.311691
889,8.89,-0.78805,-0.345304,-0.12806199999999998,0.155624,1.1139370000000002,0.322342
890,8.9,-0.7469640000000001,-0.349479,-0.008763,0.154556,1.080917,0.315948
891,8.91,-0.605863,-0.262137,0.054719000000000004,0.170547,1.064941,0.297836
892,8.92,-0.5820609999999999,-0.137297,0.075691,0.200363,1.0905,0.273346
893,8.93,-0.54586,0.03173299999999999,0.03909,0.237656,1.1501620000000001,0.258423
894,8.94,-0.581394,0.209748,-0.09702899999999999,0.266418,1.237503,0.256302
895,8.95,-0.515417,0.453479,-0.146206,0.26109299999999996,1.315277,0.272278
896,8.96,-0.56284,0.65587,-0.11314400000000001,0.22380100000000003,1.366409,0.28932199999999997
897,8.97,-0.705311,0.73532,-0.0016150000000000053,0.155624,1.374924,0.32341
898,8.98,-0.8270000000000001,0.7719090000000001,0.24676600000000004,0.064011,1.337646,0.370285
899,8.99,-0.919673,0.672308,0.526742,-0.033997,1.255615,0.423538
900,9.0,-0.99866,0.506744,0.910035,-0.12133800000000002,1.12352,0.47467
901,9.01,-0.949652,0.366537,1.243013,-0.168213,0.97226,0.515152
902,9.02,-0.694665,0.271929,1.474033,-0.162888,0.857208,0.544983
903,9.03,-0.338055,0.283384,1.420909,-0.10856600000000001,0.810333,0.5588380000000001
904,9.04,0.09321100000000003,0.297148,1.147245,-0.042511,0.84549,0.559891
905,9.05,0.4905419999999999,0.510364,0.8251799999999999,-0.003098,0.9647979999999999,0.540726
906,9.06,0.734845,0.676802,0.564082,-0.009491,1.102219,0.518356
907,9.07,0.696499,0.7266520000000001,0.486008,-0.057419000000000005,1.204483,0.5055689999999999
908,9.08,0.538506,0.5207069999999999,0.6983010000000001,-0.138382,1.237503,0.49278299999999997
909,9.09,0.384169,0.23567800000000003,1.1421219999999999,-0.201233,1.1980899999999999,0.47467
910,9.1,0.195123,-0.05877199999999999,1.6462560000000002,-0.200165,1.1032870000000001,0.449112
911,9.11,0.070866,-0.277337,1.9726830000000002,-0.134125,1.0201870000000002,0.421417
912,9.12,0.086005,-0.4269,2.049201,-0.014815999999999998,0.9743799999999999,0.410767
913,9.13,0.357049,-0.31130599999999997,1.8091220000000001,0.13325499999999998,0.981842,0.385193
914,9.14,0.616214,-0.153668,1.331812,0.256821,1.060669,0.34896900000000003
915,9.15,0.780772,0.029267000000000012,0.740631,0.330338,1.1863709999999998,0.31488
916,9.16,0.784768,0.21806599999999998,0.300834,0.33778400000000003,1.298233,0.273346
917,9.17,0.631013,0.403079,-0.039711,0.283463,1.380249,0.24244699999999997
918,9.18,0.45285600000000004,0.420162,-0.184038,0.173737,1.4441680000000001,0.239258
919,9.19,0.179255,0.390575,-0.159522,0.045898,1.449493,0.24244699999999997
920,9.2,-0.05098699999999999,0.16231900000000002,0.037396,-0.0979,1.4143370000000002,0.268021
921,9.21,-0.30685500000000004,-0.025158,0.325943,-0.217209,1.336578,0.298904
922,9.22,-0.46646899999999997,-0.282979,0.558411,-0.291779,1.223663,0.347916
923,9.23,-0.481793,-0.577138,0.730504,-0.331192,1.1107479999999998,0.401169
924,9.24,-0.33992,-0.690469,0.82124,-0.33013899999999996,1.007416,0.449112
925,9.25,-0.075153,-0.824233,0.76986,-0.298172,0.944565,0.487457
926,9.26,0.28236100000000003,-0.976675,0.566394,-0.252365,0.929642,0.513031
927,9.27,0.718649,-1.0119559999999999,0.392129,-0.196976,0.9477540000000001,0.508759
928,9.28,1.0007700000000002,-1.12424,0.190838,-0.153305,1.00528,0.48426800000000003
929,9.29,1.210007,-1.09266,0.069712,-0.11389200000000001,1.069199,0.43418900000000005
930,9.3,1.258308,-1.068853,-0.014769999999999998,-0.068085,1.125656,0.369217
931,9.31,1.1874959999999999,-1.031245,-0.07475,-0.027603000000000003,1.173599,0.319153
932,9.32,1.1159860000000001,-0.9527370000000001,-0.097127,0.005432000000000001,1.219406,0.276535
933,9.33,0.925275,-0.892243,-0.13403900000000002,0.027801999999999997,1.257751,0.254166
934,9.34,0.8289280000000001,-0.7378439999999999,-0.175794,0.029922000000000004,1.2758639999999999,0.253098
935,9.35,0.7989470000000001,-0.616471,-0.143673,0.02034,1.276917,0.25949099999999997
936,9.36,0.71986,-0.5125930000000001,-0.125776,-0.0041659999999999996,1.264145,0.27121
937,9.37,0.615819,-0.483426,-0.022422,-0.026535000000000003,1.23111,0.292511
938,9.38,0.5516979999999999,-0.40964799999999996,0.085923,-0.038254,1.185303,0.328735
939,9.39,0.604641,-0.340968,0.132179,-0.037186000000000004,1.130981,0.376663
940,9.4,0.772336,-0.374362,0.124774,-0.033997,1.081985,0.42460600000000004
941,9.41,0.99025,-0.359188,0.004296000000000001,-0.026535000000000003,1.021255,0.46295200000000003
942,9.42,1.217227,-0.285829,-0.102426,-0.02121,0.9690549999999999,0.487457
943,9.43,1.398046,-0.21151599999999998,-0.24444200000000002,-0.024399,0.920059,0.506638
944,9.44,1.614226,-0.123867,-0.34773899999999996,-0.035049000000000004,0.8753200000000001,0.523682
945,9.45,1.7558080000000003,-0.049031999999999985,-0.33683,-0.046768000000000004,0.835907,0.529007
946,9.46,1.970121,0.012940000000000007,-0.332386,-0.054229999999999993,0.83165,0.532196
947,9.47,2.132141,0.005764999999999999,-0.33206399999999997,-0.059555,0.8444209999999999,0.515152
948,9.48,2.209632,0.14913900000000002,-0.22982399999999997,-0.069138,0.8657379999999999,0.487457
949,9.49,2.2530639999999997,0.284099,-0.100199,-0.071274,0.9083399999999999,0.456558
950,9.5,2.110177,0.358714,0.007328000000000001,-0.058487,0.954147,0.423538
951,9.51,1.8882889999999999,0.398169,0.14591800000000002,-0.051041,0.965866,0.40010100000000004
952,9.52,1.7211889999999999,0.397063,0.210394,-0.056366,0.925385,0.385193
953,9.53,1.561201,0.43355299999999997,0.235871,-0.071274,0.852951,0.374542
954,9.54,1.472992,0.38453699999999996,0.312303,-0.085129,0.765594,0.36496
955,9.55,1.490094,0.291808,0.37618,-0.08725,0.6793060000000001,0.35324099999999997
956,9.56,1.4191280000000002,0.294269,0.501033,-0.063812,0.620728,0.326599
957,9.57,1.421918,0.285583,0.601089,-0.014816,0.5994109999999999,0.296783
958,9.58,1.380089,0.432918,0.6736840000000001,0.064011,0.622849,0.269073
959,9.59,1.301034,0.595527,0.6355649999999999,0.170547,0.638824,0.246704
960,9.6,1.324023,0.751842,0.357943,0.26109299999999996,0.6803739999999999,0.243515
961,9.61,1.327216,0.9189209999999999,-0.08984299999999999,0.31541399999999997,0.722992,0.24244699999999997
962,9.62,1.300092,0.9924959999999999,-0.42031,0.296249,0.763458,0.241379
963,9.63,1.201738,1.056022,-0.563335,0.21740700000000002,0.789032,0.244583
964,9.64,0.933934,1.039459,-0.47412200000000004,0.103424,0.7698520000000001,0.253098
965,9.65,0.809716,0.937635,-0.395024,-0.019073,0.721924,0.275467
966,9.66,0.579172,0.71539,-0.05637600000000001,-0.138382,0.6793060000000001,0.288254
967,9.67,0.331229,0.629598,0.2302,-0.225739,0.6334989999999999,0.297836
968,9.68,0.04733300000000002,0.401372,0.561018,-0.279007,0.571716,0.317017
969,9.69,-0.21531199999999998,0.176556,0.889817,-0.293915,0.481171,0.342575
970,9.7,-0.366054,-0.19790700000000006,1.0991229999999999,-0.260895,0.348007,0.372406
971,9.71,-0.323567,-0.56897,1.161082,-0.17460599999999998,0.18077100000000002,0.38945
972,9.72,-0.075153,-0.763918,1.073249,-0.029724,0.034821000000000005,0.382004
973,9.73,0.248653,-0.7742020000000001,0.647839,0.153503,-0.057846000000000015,0.342575
974,9.74,0.578491,-0.574584,-0.016685999999999982,0.334595,-0.04187,0.299973
975,9.75,0.8443360000000001,-0.390943,-0.6790609999999999,0.457092,0.050797000000000016,0.252029
976,9.76,1.004055,0.0046529999999999905,-1.376074,0.511429,0.14773599999999998,0.195572
977,9.77,1.07045,0.327121,-1.8742590000000001,0.49864200000000003,0.23190300000000003,0.146576
978,9.78,1.087891,0.5623060000000001,-2.310057,0.38465900000000003,0.294754,0.11035199999999999
979,9.79,0.945492,0.684845,-2.514496,0.19931,0.300079,0.074142
980,9.8,0.619414,0.783134,-2.388074,-0.03825400000000001,0.232971,0.040054
981,9.81,0.265876,0.631713,-1.9961259999999998,-0.29072600000000004,0.13708499999999998,0.021942
982,9.82,-0.12783599999999998,0.328286,-1.365833,-0.482468,0.003936999999999996,0.005965999999999999
983,9.83,-0.381035,0.122398,-0.663175,-0.5964510000000001,-0.146271,0.007019
984,9.84,-0.380243,-0.207438,-0.16503199999999998,-0.632675,-0.264511,0.010223000000000001
985,9.85,-0.293365,-0.431329,0.326385,-0.5943149999999999,-0.372101,-0.010025
986,9.86,-0.157001,-0.46310500000000004,0.620646,-0.488861,-0.41685500000000003,-0.053696
987,9.87,-0.062453999999999996,-0.511686,0.769455,-0.325867,-0.401932,-0.10057100000000001
988,9.88,-0.160893,-0.48600299999999996,0.6825640000000001,-0.129868,-0.312454,-0.141052
989,9.89,-0.09539500000000001,-0.369765,0.444295,0.07254,-0.18782000000000001,-0.163422
990,9.9,-0.006393999999999997,-0.266739,-0.10693600000000003,0.244049,-0.069565,-0.18365499999999998
991,9.91,0.021847,-0.147505,-0.714487,0.34631300000000004,0.015656,-0.201767
992,9.92,0.046907999999999984,-0.038319,-1.22625,0.365479,0.04335,-0.22201500000000002
993,9.93,0.002537999999999995,0.040204000000000004,-1.533012,0.321808,0.029495,-0.225204
994,9.94,0.008668000000000002,0.134954,-1.722119,0.239777,0.0018010000000000003,-0.225204
995,9.95,-0.04284099999999999,0.203452,-1.68963,0.146042,-0.037613,-0.228394
996,9.96,-0.21152100000000001,0.258615,-1.461311,0.06189,-0.058914,-0.217743
997,9.97,-0.29952199999999995,0.266444,-1.116585,0.010757,-0.0504,-0.190048
998,9.98,-0.361406,0.165487,-0.763721,0.010757,-0.023758,-0.162354
999,9.99,-0.380361,0.08456699999999999,-0.5348729999999999,0.041641000000000004,-0.0024569999999999987,-0.126129
1000,10.0,-0.542773,0.001553,-0.443086,0.088516,0.005005,-0.09524500000000001
1001,10.01,-0.754706,0.065355,-0.454254,0.11514300000000001,-0.018433,-0.044113
1002,10.02,-0.808308,0.049184,-0.597522,0.117279,-0.09088099999999999,0.015548999999999997
1003,10.03,-0.710805,0.047389,-0.733428,0.088516,-0.19953900000000002,0.062424
1004,10.04,-0.44923599999999997,0.071425,-0.767261,0.03418,-0.303925,0.099701
1005,10.05,-0.23164400000000002,0.152701,-0.782708,-0.025467,-0.397675,0.11355599999999999
1006,10.06,-0.061390999999999994,0.192134,-0.594548,-0.07020599999999999,-0.446671,0.12313800000000001
1007,10.07,0.06676900000000001,0.202719,-0.453629,-0.092575,-0.439224,0.12953199999999998
1008,10.08,0.296164,0.242071,-0.363122,-0.08725,-0.418976,0.127396
1009,10.09,0.45031899999999997,0.291662,-0.289485,-0.055298,-0.393417,0.107162
1010,10.1,0.566477,0.292916,-0.384896,-0.030792,-0.354004,0.073074
1011,10.11,0.627798,0.39411399999999996,-0.397038,-0.024399,-0.302872,0.034714
1012,10.12,0.670029,0.437507,-0.344752,-0.038254,-0.257065,-0.008957
1013,10.13,0.577523,0.454823,-0.158362,-0.06275900000000001,-0.208054,-0.056885000000000005
1014,10.14,0.339978,0.400594,0.196512,-0.080856,-0.167572,-0.101639
1015,10.15,-0.198489,0.18641300000000002,0.765259,-0.051041,-0.179291,-0.143173
1016,10.16,-0.489883,0.159983,1.040433,0.012878000000000004,-0.21337899999999999,-0.147446
1017,10.17,-0.698484,0.164838,1.093322,0.104492,-0.265579,-0.144241
1018,10.18,-0.654808,0.29297199999999995,0.9986709999999999,0.201431,-0.314575,-0.134659
1019,10.19,-0.524332,0.460005,0.739526,0.272812,-0.314575,-0.124008
1020,10.2,-0.254862,0.6573640000000001,0.49599499999999996,0.301575,-0.289017,-0.11441
1021,10.21,-0.05379500000000001,0.866283,0.334389,0.294113,-0.270905,-0.120804
1022,10.22,0.120163,0.956464,0.313138,0.255768,-0.260254,-0.130402
1023,10.23,0.209896,0.9431700000000001,0.365415,0.20463599999999998,-0.22935500000000003,-0.145309
1024,10.24,0.100664,0.791651,0.501794,0.152435,-0.176102,-0.16981500000000002
1025,10.25,-0.1051,0.77562,0.716803,0.111954,-0.134552,-0.192184
1026,10.26,-0.299921,0.734612,0.869136,0.078934,-0.096207,-0.203903
1027,10.27,-0.437616,0.6876909999999999,0.864442,0.051224,-0.046143,-0.20497100000000001
1028,10.28,-0.557947,0.76707,0.796446,0.015015,-0.009918000000000001,-0.202835
1029,10.29,-0.562094,0.722245,0.703006,-0.040375,-0.004593,-0.187912
1030,10.3,-0.6316069999999999,0.729009,0.623208,-0.107498,-0.009918000000000001,-0.16661099999999998
1031,10.31,-0.617226,0.697814,0.5956739999999999,-0.17886400000000002,-0.026962,-0.135727
1032,10.32,-0.630542,0.5144270000000001,0.619826,-0.238525,-0.086609,-0.093109
1033,10.33,-0.558524,0.330094,0.712413,-0.27368200000000004,-0.184616,-0.049438
1034,10.34,-0.37267,0.088281,0.6364989999999999,-0.28006,-0.29541,-0.014282
1035,10.35,-0.110167,-0.249051,0.617438,-0.260895,-0.400864,0.004898
1036,10.36,0.148557,-0.520134,0.6116689999999999,-0.21188400000000002,-0.48182700000000006,-0.0004270000000000003
1037,10.37,0.366579,-0.715329,0.5243140000000001,-0.12561,-0.512726,-0.027069
1038,10.38,0.600567,-0.934633,0.359808,-0.012679999999999995,-0.48822,-0.061157
1039,10.39,0.774095,-1.0541719999999999,0.08446799999999999,0.106628,-0.40299999999999997,-0.11228900000000001
1040,10.4,0.867873,-1.1257489999999999,-0.192623,0.230194,-0.269836,-0.153824
1041,10.41,0.9278360000000001,-1.214171,-0.521967,0.33778400000000003,-0.11325100000000002,-0.179398
1042,10.42,1.040386,-1.192973,-0.8671979999999999,0.407028,0.0007319999999999964,-0.20497100000000001
1043,10.43,1.0125819999999999,-1.202338,-1.138552,0.408096,0.063583,-0.217743
1044,10.44,1.029001,-1.090354,-1.152883,0.359085,0.073181,-0.228394
1045,10.45,0.944182,-1.009454,-1.226847,0.283463,0.006058000000000001,-0.23905900000000002
1046,10.46,0.800337,-0.887109,-1.162923,0.176926,-0.07488999999999997,-0.23266599999999998
1047,10.47,0.727576,-0.709599,-0.882599,0.073608,-0.167572,-0.21029699999999998
1048,10.48,0.668367,-0.70095,-0.61517,0.0022280000000000012,-0.24960300000000002,-0.17193599999999998
1049,10.49,0.6881149999999999,-0.767202,-0.341281,-0.03186,-0.312454,-0.125076
1050,10.5,0.918773,-0.756131,-0.14026500000000006,-0.028671,-0.352936,-0.083527
1051,10.51,1.1573069999999999,-0.7929689999999999,0.036045000000000015,-0.0073549999999999996,-0.37742600000000004,-0.069672
1052,10.52,1.239574,-0.676879,0.086608,0.029922000000000004,-0.400864,-0.07180800000000001
1053,10.53,1.38752,-0.629487,0.145887,0.068268,-0.41685500000000003,-0.065414
1054,10.54,1.474612,-0.582084,0.191634,0.113022,-0.417908,-0.069672
1055,10.55,1.535077,-0.574937,0.209587,0.165207,-0.41471899999999995,-0.08139
1056,10.56,1.5450409999999999,-0.586548,0.203319,0.222733,-0.399796,-0.10482799999999999
1057,10.57,1.495575,-0.44199499999999997,0.196599,0.281326,-0.36677600000000005,-0.135727
1058,10.58,1.396207,-0.341496,0.133625,0.328201,-0.318848,-0.162354
1059,10.59,1.314849,-0.250431,0.082873,0.348434,-0.27623000000000003,-0.17514000000000002
1060,10.6,1.310227,-0.13158399999999998,-0.083036,0.347382,-0.245346,-0.182587
1061,10.61,1.162524,-0.084983,-0.169928,0.318619,-0.202728,-0.187912
1062,10.62,1.0602120000000002,0.017038000000000005,-0.20805500000000002,0.26853899999999997,-0.161179,-0.182587
1063,10.63,0.9713139999999999,0.064796,-0.210252,0.203568,-0.12496900000000001,-0.18046600000000002
1064,10.64,0.747203,0.057846,-0.055308,0.13006600000000001,-0.096207,-0.184723
1065,10.65,0.697204,0.061148,0.13297899999999999,0.06189,-0.065308,-0.192184
1066,10.66,0.488825,-0.0002230000000000001,0.459916,0.006485000000000001,-0.044006,-0.207092
1067,10.67,0.21019000000000002,0.07786399999999999,0.763695,-0.02121,-0.0504,-0.22094699999999998
1068,10.68,-0.030842999999999995,0.21991599999999997,1.005858,-0.016953,-0.067444,-0.224136
1069,10.69,-0.157829,0.493597,0.967685,0.0032960000000000003,-0.091934,-0.207092
1070,10.7,-0.19808199999999998,0.654237,0.657317,0.012878,-0.110046,-0.165543
1071,10.71,-0.070994,0.992287,0.301885,-0.033997,-0.10899400000000001,-0.106964
1072,10.72,0.099712,1.319704,0.09563200000000001,-0.146912,-0.10899400000000001,-0.049438
1073,10.73,0.130805,1.318598,0.20042000000000001,-0.29924,-0.138809,-0.006821000000000001
1074,10.74,0.017188999999999996,1.3166440000000001,0.614733,-0.429199,-0.19633499999999998,0.012343999999999999
1075,10.75,-0.545932,0.8637290000000001,1.356465,-0.49311800000000006,-0.30499299999999996,0.041107
1076,10.76,-0.66943,0.567758,1.571495,-0.435593,-0.399796,0.08052100000000001
1077,10.77,-0.7182470000000001,0.310151,1.561906,-0.325867,-0.506332,0.11355599999999999
1078,10.78,-0.539441,0.309684,1.3059100000000001,-0.19911199999999998,-0.590485,0.149765
1079,10.79,-0.148643,0.222723,0.8552420000000001,-0.061691,-0.6426850000000001,0.173203
1080,10.8,0.211015,0.175529,0.312269,0.032059,-0.623505,0.17533900000000002
1081,10.81,0.590482,0.162051,-0.168047,0.082123,-0.56279,0.146576
1082,10.82,0.549705,0.096844,-0.338013,0.084259,-0.46903999999999996,0.083725
1083,10.83,0.300479,0.165608,-0.317162,0.06189,-0.379562,0.027267000000000003
1084,10.84,-0.089089,0.079437,-0.264912,0.032059,-0.319916,-0.021744
1085,10.85,-0.39981,0.042839,-0.173509,-0.01268,-0.28476,-0.052627999999999994
1086,10.86,-0.574674,-0.038074000000000004,-0.10371,-0.076599,-0.278366,-0.073929
1087,10.87,-0.719154,-0.09615499999999999,-0.021721000000000004,-0.156494,-0.320969,-0.10375999999999999
1088,10.88,-0.805607,-0.14566300000000001,0.131052,-0.2332,-0.39447,-0.134659
1089,10.89,-0.9091969999999999,-0.28636799999999996,0.29632800000000004,-0.29072600000000004,-0.48715200000000003,-0.167679
1090,10.9,-0.987325,-0.364618,0.47611499999999995,-0.305634,-0.560654,-0.18898
1091,10.91,-1.0023819999999999,-0.453557,0.6070770000000001,-0.275803,-0.6149899999999999,-0.201767
1092,10.92,-0.801593,-0.5794729999999999,0.580122,-0.195908,-0.6480100000000001,-0.21134899999999998
1093,10.93,-0.550754,-0.647069,0.404864,-0.08618200000000001,-0.635223,-0.231598
1094,10.94,-0.26367399999999996,-0.716655,0.10181600000000003,0.027802,-0.590485,-0.256104
1095,10.95,0.039455,-0.726464,-0.300005,0.135391,-0.525497,-0.280594
1096,10.96,0.262378,-0.740751,-0.652722,0.207825,-0.443481,-0.314682
1097,10.97,0.291918,-0.680571,-0.9324290000000001,0.237656,-0.34761,-0.33705100000000005
1098,10.98,0.214432,-0.616408,-1.039756,0.22912600000000002,-0.27516199999999996,-0.350906
1099,10.99,0.09554299999999999,-0.553473,-1.034266,0.19503800000000002,-0.251724,-0.354095
1100,11.0,-0.034929,-0.482259,-0.987525,0.146042,-0.268768,-0.3573
1101,11.01,-0.13830599999999998,-0.47348599999999996,-0.965786,0.087448,-0.302872,-0.346649
1102,11.02,-0.177136,-0.373987,-0.8927639999999999,0.028854,-0.356125,-0.32853699999999997
1103,11.03,-0.227394,-0.380754,-0.8439610000000001,-0.022278,-0.41685500000000003,-0.30296300000000004
1104,11.04,-0.17169700000000002,-0.303316,-0.776153,-0.063812,-0.47224399999999994,-0.277405
1105,11.05,-0.03862,-0.24673499999999998,-0.674212,-0.080856,-0.504196,-0.261429
1106,11.06,0.130294,-0.23258099999999998,-0.630735,-0.078735,-0.522308,-0.248642
1107,11.07,0.316216,-0.170659,-0.5825359999999999,-0.060623,-0.531891,-0.252899
1108,11.08,0.37302199999999996,-0.175973,-0.555909,-0.040375,-0.537216,-0.269943
1109,11.09,0.312743,-0.169325,-0.45130600000000004,-0.024399,-0.535095,-0.284851
1110,11.1,0.20717800000000003,-0.045947,-0.24203000000000002,0.004364,-0.551071,-0.30191
1111,11.11,0.100276,-0.079084,-0.12132000000000001,0.045898000000000015,-0.579834,-0.314682
1112,11.12,-0.015110999999999998,-0.060674,-0.0003549999999999942,0.093842,-0.618179,-0.323212
1113,11.13,0.05020400000000002,-0.007942999999999999,-0.0016109999999999994,0.150299,-0.682098,-0.325333
1114,11.14,0.214298,0.030473,-0.10335799999999999,0.209961,-0.735367,-0.33705100000000005
1115,11.15,0.352986,0.137919,-0.271706,0.26109299999999996,-0.7524109999999999,-0.34558099999999997
1116,11.16,0.5235850000000001,0.299953,-0.45014499999999996,0.291977,-0.728973,-0.350906
1117,11.17,0.6379229999999999,0.31567,-0.6279359999999999,0.309021,-0.7055359999999999,-0.362625
1118,11.18,0.766636,0.40941,-0.7328279999999999,0.29518099999999997,-0.683167,-0.382858
1119,11.19,0.79028,0.394909,-0.73934,0.256821,-0.663986,-0.402039
1120,11.2,0.771941,0.5688409999999999,-0.6131220000000001,0.202499,-0.6533359999999999,-0.41801499999999997
1121,11.21,0.578418,0.568516,-0.262521,0.135391,-0.665054,-0.42866499999999996
1122,11.22,0.46091400000000005,0.601634,0.263029,0.07786599999999999,-0.708725,-0.420151
1123,11.23,0.361066,0.604758,0.710105,0.057616999999999995,-0.786499,-0.4095
1124,11.24,0.316135,0.6362300000000001,0.9820959999999999,0.07147200000000001,-0.8727870000000001,-0.38179
1125,11.25,0.411469,0.718698,1.049825,0.098099,-0.9601290000000001,-0.344513
1126,11.26,0.687873,0.8361270000000001,0.875617,0.108749,-1.018723,-0.304031
1127,11.27,1.035379,0.9700129999999999,0.673354,0.076797,-1.034698,-0.28166199999999997
1128,11.28,1.3225790000000002,1.0724559999999999,0.61214,9.200000000000179e-05,-1.028305,-0.291245
1129,11.29,1.410799,1.101261,0.825184,-0.10856600000000001,-1.012329,-0.316818
1130,11.3,1.243141,0.988721,1.3817469999999998,-0.20869400000000002,-0.9952850000000001,-0.34558099999999997
1131,11.31,1.024809,0.653358,2.0554509999999997,-0.248108,-1.003815,-0.36795
1132,11.32,0.836061,0.185013,2.688742,-0.206558,-1.0240479999999998,-0.40097
1133,11.33,0.539563,-0.241517,3.05505,-0.091507,-1.044281,-0.439316
1134,11.34,0.280667,-0.48519300000000004,3.109165,0.07786600000000002,-1.084763,-0.47767600000000005
1135,11.35,0.16689600000000002,-0.578685,2.914386,0.289856,-1.140167,-0.518158
1136,11.36,0.242709,-0.5153800000000001,2.200434,0.49650600000000006,-1.158264,-0.5405270000000001
1137,11.37,0.479896,-0.370196,1.240834,0.64032,-1.124176,-0.534134
1138,11.38,0.769935,-0.14239100000000002,0.345183,0.689331,-1.046417,-0.522415
1139,11.39,1.064326,0.266458,-0.362128,0.627533,-0.9601290000000001,-0.50856
1140,11.4,1.2341600000000001,0.363931,-0.8427899999999999,0.464554,-0.932434,-0.498978
1141,11.41,1.156844,0.354117,-0.944807,0.215286,-0.921783,-0.498978
1142,11.42,1.00195,0.393402,-0.573127,-0.060623,-0.9548030000000001,-0.504303
1143,11.43,0.576799,0.146404,0.17741300000000002,-0.28326399999999996,-1.017654,-0.514954
1144,11.44,0.128776,-0.087766,1.002383,-0.410034,-1.085831,-0.504303
1145,11.45,-0.130356,-0.40594600000000003,1.566159,-0.445175,-1.136963,-0.47021499999999994
1146,11.46,-0.304164,-0.723908,1.9594639999999999,-0.411087,-1.190231,-0.429733
1147,11.47,-0.373314,-0.889459,2.138376,-0.325867,-1.25415,-0.391388
1148,11.48,-0.35004,-1.054174,2.043294,-0.19911199999999998,-1.34256,-0.355164
1149,11.49,-0.20919000000000001,-1.1197139999999999,1.7246970000000001,-0.057419000000000005,-1.390503,-0.308289
1150,11.5,0.215318,-1.125693,1.224017,0.07147200000000001,-1.391571,-0.26461799999999996
1151,11.51,0.629487,-1.2147059999999998,0.621434,0.1716,-1.389435,-0.25183099999999997
1152,11.52,1.01699,-1.208425,0.10722199999999997,0.224869,-1.384109,-0.275269
1153,11.53,1.198977,-1.183506,-0.24994900000000006,0.242981,-1.362808,-0.32000700000000004
1154,11.54,1.254802,-1.126033,-0.444381,0.24937399999999998,-1.3244479999999998,-0.364746
1155,11.55,1.2142540000000002,-1.1036860000000002,-0.42169300000000004,0.257889,-1.25415,-0.407364
1156,11.56,0.987025,-1.187476,-0.388278,0.271744,-1.165726,-0.44145200000000007
1157,11.57,0.8199209999999999,-1.1358620000000001,-0.348236,0.285583,-1.095428,-0.460632
1158,11.58,0.649727,-1.1062969999999999,-0.283717,0.297302,-1.041092,-0.473404
1159,11.59,0.568819,-1.016305,-0.270827,0.289856,-0.982498,-0.47979700000000003
1160,11.6,0.48306800000000005,-0.941176,-0.180654,0.26535,-0.942017,-0.476608
1161,11.61,0.43372299999999997,-0.8874799999999999,-0.093306,0.24616999999999997,-0.914322,-0.474472
1162,11.62,0.35144000000000003,-0.756784,0.12736,0.230194,-0.871719,-0.457428
1163,11.63,0.11800699999999999,-0.7098300000000001,0.292507,0.22805799999999998,-0.826981,-0.427597
1164,11.64,-0.09019400000000001,-0.6947479999999999,0.46903900000000004,0.23658800000000002,-0.786499,-0.379669
1165,11.65,-0.086644,-0.6043390000000001,0.5275529999999999,0.2547,-0.771576,-0.32853699999999997
1166,11.66,-0.045932,-0.6622170000000001,0.471415,0.26535,-0.8109890000000001,-0.29657
1167,11.67,0.08403200000000001,-0.642155,0.39313400000000004,0.258957,-0.869583,-0.275269
1168,11.68,0.229395,-0.491336,0.293902,0.24191300000000002,-0.9196469999999999,-0.256104
1169,11.69,0.487437,-0.261475,0.241031,0.22168000000000002,-0.928177,-0.229462
1170,11.7,0.640015,-0.191548,0.182228,0.200363,-0.902603,-0.20602399999999998
1171,11.71,0.8276,-0.101742,0.196409,0.16841099999999998,-0.869583,-0.190048
1172,11.72,0.9774889999999999,0.047582,0.27532,0.131119,-0.828033,-0.199631
1173,11.73,0.9968899999999999,0.10155399999999999,0.49786899999999995,0.095978,-0.770508,-0.22094699999999998
1174,11.74,0.8789819999999999,0.123197,0.7864369999999999,0.078934,-0.7055359999999999,-0.252899
1175,11.75,0.582544,0.208576,1.076654,0.091705,-0.644821,-0.278473
1176,11.76,0.290804,0.343744,1.313534,0.12153599999999999,-0.592621,-0.2742
1177,11.77,0.11043,0.489859,1.370442,0.16095,-0.551071,-0.25822399999999995
1178,11.78,0.005538,0.482574,1.228568,0.200363,-0.532959,-0.23905900000000002
1179,11.79,-0.026033999999999998,0.616867,1.065215,0.216354,-0.52977,-0.21562199999999998
1180,11.8,0.025958999999999996,0.726259,0.706415,0.214218,-0.556396,-0.194305
1181,11.81,0.050126999999999984,0.716176,0.27974,0.175873,-0.572372,-0.17193599999999998
1182,11.82,0.088959,0.753249,0.032072,0.09277300000000001,-0.56279,-0.139984
1183,11.83,0.19405799999999998,0.8484370000000001,-0.047800999999999996,-0.015883999999999995,-0.537216,-0.11761500000000001
1184,11.84,-0.050989999999999966,0.7036100000000001,0.066057,-0.12773099999999998,-0.506332,-0.111221
1185,11.85,-0.274914,0.629274,0.450113,-0.243851,-0.48182700000000006,-0.09843400000000001
1186,11.86,-0.546227,0.375933,0.9953700000000001,-0.300308,-0.516983,-0.092041
1187,11.87,-0.746001,0.042289999999999967,1.479435,-0.29284699999999997,-0.603271,-0.07713300000000001
1188,11.88,-0.917277,-0.142236,1.749945,-0.22148099999999998,-0.702332,-0.059021000000000004
1189,11.89,-0.871347,-0.251665,1.718433,-0.100037,-0.796082,-0.026001
1190,11.9,-0.578425,-0.243479,1.404714,0.040573000000000005,-0.834427,0.008087
1191,11.91,-0.167768,-0.304753,0.796142,0.169479,-0.8078,0.013412
1192,11.92,0.141786,-0.293589,0.08715299999999998,0.242981,-0.726837,-0.008957
1193,11.93,0.41011400000000003,-0.219167,-0.532445,0.24937399999999998,-0.636292,-0.046234
1194,11.94,0.5316850000000001,0.012040000000000007,-1.00065,0.203568,-0.537216,-0.093109
1195,11.95,0.320927,0.114202,-1.2865209999999998,0.09277300000000001,-0.43708800000000003,-0.12294000000000001
1196,11.96,0.260653,0.378787,-1.292253,-0.076599,-0.36891199999999996,-0.118683
1197,11.97,0.17491700000000002,0.330906,-1.186886,-0.293915,-0.379562,-0.10908499999999999
1198,11.98,-0.012548000000000005,0.155155,-0.697604,-0.529343,-0.474365,-0.111221
1199,11.99,-0.063929,0.031264,0.02630100000000002,-0.708298,-0.616058,-0.125076
1200,12.0,-0.261698,-0.415511,0.776605,-0.795654,-0.7417600000000001,-0.144241
1201,12.01,-0.328881,-0.5998220000000001,1.450043,-0.781799,-0.828033,-0.16661099999999998
1202,12.02,-0.39215900000000004,-0.812593,1.934334,-0.6646270000000001,-0.87384,-0.19751
1203,12.03,-0.355594,-0.866309,2.115891,-0.45903,-0.850403,-0.234787
1204,12.04,-0.348384,-0.8265540000000001,1.9867419999999998,-0.216156,-0.7556,-0.256104
1205,12.05,-0.241815,-0.782331,1.4584270000000001,0.018204,-0.622437,-0.259293
1206,12.06,-0.17852,-0.797236,0.8248359999999999,0.196106,-0.516983,-0.256104
1207,12.07,0.015587999999999998,-0.695447,0.165377,0.286652,-0.467987,-0.252899
1208,12.08,0.103683,-0.645401,-0.356148,0.311157,-0.479691,-0.262482
1209,12.09,0.147653,-0.694983,-0.752155,0.276001,-0.516983,-0.259293
1210,12.1,0.190689,-0.704603,-0.898116,0.21101399999999998,-0.551071,-0.257156
1211,12.11,0.142457,-0.707124,-0.9677180000000001,0.151367,-0.584091,-0.250763
1212,12.12,0.09953,-0.671473,-1.0051780000000001,0.102371,-0.6149899999999999,-0.236923
1213,12.13,0.06982200000000001,-0.631373,-0.989822,0.060822,-0.630966,-0.214554
1214,12.14,0.1545,-0.615149,-0.97539,0.027801999999999997,-0.638428,-0.195374
1215,12.15,0.25644,-0.629848,-0.954741,0.006485000000000001,-0.652267,-0.193253
1216,12.16,0.354448,-0.570443,-0.9284620000000001,-0.010559,-0.668243,-0.20815999999999998
1217,12.17,0.482307,-0.467699,-0.799696,-0.023331,-0.679962,-0.23053
1218,12.18,0.46014700000000003,-0.42618199999999995,-0.68871,-0.022278,-0.6863560000000001,-0.26355
1219,12.19,0.365789,-0.29656,-0.48294799999999993,-0.01268,-0.68103,-0.284851
1220,12.2,0.299587,-0.12290799999999999,-0.327185,0.02034,-0.675705,-0.29870599999999997
1221,12.21,0.194933,-0.016737000000000002,-0.163943,0.064011,-0.666122,-0.30191
1222,12.22,0.220112,0.077988,-0.078064,0.10981800000000001,-0.666122,-0.30509899999999995
1223,12.23,0.280196,0.198293,0.0038090000000000003,0.16095,-0.676773,-0.313614
1224,12.24,0.301607,0.26060700000000003,-0.015646,0.20463599999999998,-0.688492,-0.33705100000000005
1225,12.25,0.318914,0.381339,-0.027991000000000002,0.237656,-0.6874239999999999,-0.34558099999999997
1226,12.26,0.394783,0.49308100000000005,-0.243267,0.266418,-0.6863560000000001,-0.34983800000000004
1227,12.27,0.426518,0.69425,-0.376562,0.253632,-0.6426850000000001,-0.342377
1228,12.28,0.365958,0.838583,-0.365085,0.200363,-0.616058,-0.321075
1229,12.29,0.26921799999999996,0.866771,-0.21477600000000002,0.11941500000000001,-0.643753,-0.299774
1230,12.3,0.25354,0.8805459999999999,0.055875,0.025664999999999997,-0.725769,-0.272079
1231,12.31,0.250076,0.822248,0.432357,-0.067017,-0.833359,-0.243317
1232,12.32,0.404524,0.816451,0.680509,-0.12561,-0.944153,-0.217743
1233,12.33,0.534596,0.881193,0.822197,-0.155426,-1.015533,-0.203903
1234,12.34,0.773238,0.977033,0.7291350000000001,-0.17886400000000002,-1.036835,-0.185791
1235,12.35,1.101618,1.0751600000000001,0.5679770000000001,-0.2332,-1.0080719999999999,-0.192184
1236,12.36,1.33013,1.17327,0.5862350000000001,-0.34079,-0.9484100000000001,-0.21134899999999998
1237,12.37,1.3373059999999999,1.0996629999999998,1.012284,-0.468613,-0.888763,-0.252899
1238,12.38,1.085072,0.786281,1.6872220000000002,-0.564499,-0.8525389999999999,-0.291245
1239,12.39,0.662161,0.254308,2.460401,-0.587921,-0.864258,-0.330658
1240,12.4,0.27313899999999997,-0.383914,3.0616220000000003,-0.521881,-0.942017,-0.372208
1241,12.41,0.105369,-0.795362,3.3942730000000005,-0.35783400000000004,-1.053879,-0.41268900000000003
1242,12.42,0.067875,-1.0184819999999999,3.3384489999999998,-0.10643,-1.163605,-0.46488999999999997
1243,12.43,0.19311099999999998,-0.908751,2.734422,0.21208200000000002,-1.199814,-0.505371
1244,12.44,0.586561,-0.719986,1.577364,0.505035,-1.105011,-0.502167
1245,12.45,1.1622350000000001,-0.451347,0.26855500000000004,0.694656,-0.9196469999999999,-0.496841
1246,12.46,1.536789,-0.11617100000000001,-0.778874,0.778809,-0.716187,-0.505371
1247,12.47,1.825971,0.23706500000000005,-1.8284470000000002,0.731934,-0.5361630000000001,-0.5011140000000001
1248,12.48,1.825634,0.46375,-2.4050740000000004,0.549774,-0.400864,-0.496841
1249,12.49,1.516787,0.44759399999999994,-2.55205,0.248306,-0.33482399999999995,-0.48407
1250,12.5,1.157678,0.26522399999999996,-2.2128669999999997,-0.11389200000000001,-0.36891199999999996,-0.461685
1251,12.51,0.679074,0.044657000000000016,-1.4701629999999999,-0.45156899999999994,-0.513794,-0.44358800000000004
1252,12.52,0.264608,-0.261712,-0.48265399999999997,-0.697647,-0.676773,-0.404175
1253,12.53,-0.0074930000000000005,-0.598537,0.39777399999999996,-0.828674,-0.828033,-0.35197399999999995
1254,12.54,-0.054184,-0.912781,1.0176290000000001,-0.8595729999999999,-0.944153,-0.297638
1255,12.55,-0.006116999999999997,-1.139553,1.484115,-0.807373,-1.016586,-0.253967
1256,12.56,0.14077,-1.177342,1.727987,-0.679535,-1.0272370000000002,-0.22094699999999998
1257,12.57,0.312542,-1.257871,1.712539,-0.517624,-0.96759,-0.195374
1258,12.58,0.5610470000000001,-1.339101,1.492743,-0.343979,-0.890884,-0.187912
1259,12.59,0.6960609999999999,-1.497616,1.19661,-0.193787,-0.844025,-0.209229
1260,12.6,0.852549,-1.463861,0.8832549999999999,-0.077667,-0.8450780000000001,-0.256104
1261,12.61,0.9434969999999999,-1.369111,0.539582,0.02247600000000001,-0.8770450000000001,-0.31575
1262,12.62,0.969708,-1.287248,0.167061,0.09491000000000001,-0.867447,-0.365814
1263,12.63,1.038529,-1.164117,-0.158249,0.14711,-0.815262,-0.398834
1264,12.64,1.044772,-1.105599,-0.538755,0.187592,-0.737488,-0.420151
1265,12.65,1.033658,-0.9352530000000001,-0.816346,0.20675700000000002,-0.665054,-0.432938
1266,12.66,1.0972620000000002,-0.670922,-1.021482,0.20463599999999998,-0.6011350000000001,-0.43399
1267,12.67,1.0684639999999999,-0.569983,-1.1811450000000001,0.1716,-0.537216,-0.427597
1268,12.68,1.069626,-0.47621499999999994,-1.272429,0.11514300000000001,-0.480759,-0.416946
1269,12.69,0.91779,-0.378304,-1.115086,0.04377700000000001,-0.441345,-0.40097
1270,12.7,0.876007,-0.316664,-0.8553129999999999,-0.03186,-0.417908,-0.380737
1271,12.71,0.6903729999999999,-0.27562,-0.459941,-0.084061,-0.40618899999999997,-0.363693
1272,12.72,0.5437890000000001,-0.178372,-0.093447,-0.11389200000000001,-0.432831,-0.346649
1273,12.73,0.370175,-0.146829,0.201573,-0.112823,-0.48289499999999996,-0.316818
1274,12.74,0.33160100000000003,-0.03938,0.404762,-0.09045399999999999,-0.530838,-0.277405
1275,12.75,0.498381,0.079435,0.493195,-0.04676799999999999,-0.5681149999999999,-0.23266599999999998
1276,12.76,0.6805760000000001,0.191901,0.425379,0.004364,-0.5681149999999999,-0.207092
1277,12.77,0.9188290000000001,0.313381,0.325982,0.038452,-0.531891,-0.186859
1278,12.78,1.082134,0.367408,0.27149,0.057616999999999995,-0.48396300000000003,-0.192184
1279,12.79,1.140069,0.543802,0.343073,0.050171,-0.40618899999999997,-0.20602399999999998
1280,12.8,1.048059,0.592787,0.48367,0.042709,-0.342285,-0.22094699999999998
1281,12.81,0.918132,0.663533,0.7091069999999999,0.035248,-0.29541,-0.23905900000000002
1282,12.82,0.643075,0.670863,0.913947,0.033127,-0.24639899999999998,-0.247574
1283,12.83,0.382573,0.614035,1.150741,0.045898,-0.21444699999999997,-0.24224899999999996
1284,12.84,0.22820500000000002,0.55984,1.277874,0.079987,-0.211258,-0.236923
1285,12.85,0.044361000000000005,0.5863079999999999,1.201824,0.11514300000000001,-0.233627,-0.226273
1286,12.86,0.018697,0.684366,0.878423,0.12579300000000002,-0.251724,-0.199631
1287,12.87,0.12501900000000002,0.753981,0.411628,0.079987,-0.23468000000000003,-0.15809600000000001
1288,12.88,0.19959000000000002,0.7869470000000001,0.092917,-0.036118,-0.20059200000000002,-0.132523
1289,12.89,0.14360699999999998,0.813964,0.17316800000000002,-0.19165,-0.218704,-0.124008
1290,12.9,-0.056654999999999976,0.81765,0.563733,-0.35783400000000004,-0.281555,-0.12187200000000001
1291,12.91,-0.401937,0.5569149999999999,1.207709,-0.470749,-0.36038200000000004,-0.11335799999999999
1292,12.92,-0.633812,0.262223,1.90045,-0.488861,-0.441345,-0.08992
1293,12.93,-0.69075,-0.061667999999999994,2.345161,-0.391922,-0.5201720000000001,-0.065414
1294,12.94,-0.563507,-0.285987,2.3809080000000002,-0.22254899999999997,-0.587296,-0.056885000000000005
1295,12.95,-0.361203,-0.292569,2.08905,-0.01907300000000001,-0.6022029999999999,-0.054764
1296,12.96,-0.06903599999999999,-0.182751,1.456806,0.181198,-0.547882,-0.051559
1297,12.97,0.192269,-0.015958,0.5817869999999999,0.316483,-0.429626,-0.052627999999999994
1298,12.98,0.412969,0.208004,-0.203759,0.349503,-0.282623,-0.050506999999999996
1299,12.99,0.464819,0.409765,-0.664238,0.283463,-0.146271,-0.064346
1300,13.0,0.25487600000000005,0.463136,-0.860576,0.131119,-0.04614300000000001,-0.072876
1301,13.01,-0.006014999999999993,0.5032939999999999,-0.732849,-0.071274,-0.045074,-0.069672
1302,13.02,-0.31080399999999997,0.302234,-0.30994499999999997,-0.282196,-0.12176500000000001,-0.066483
1303,13.03,-0.650315,0.11043,0.253201,-0.454773,-0.240021,-0.049438
1304,13.04,-0.829868,-0.238375,0.761695,-0.559158,-0.384888,-0.027069
1305,13.05,-0.933362,-0.471933,1.15805,-0.5868680000000001,-0.545746,-0.012145999999999999
1306,13.06,-0.772641,-0.7070930000000001,1.30621,-0.554901,-0.6607970000000001,0.0038299999999999996
1307,13.07,-0.519588,-0.817208,1.318439,-0.464355,-0.710861,-0.013213999999999998
1308,13.08,-0.221844,-0.800874,1.1307209999999999,-0.334396,-0.672516,-0.039841
1309,13.09,0.062142000000000024,-0.785301,0.926551,-0.196976,-0.551071,-0.080322
1310,13.1,0.154494,-0.723953,0.723094,-0.06488,-0.391281,-0.130402
1311,13.11,0.038536,-0.7743869999999999,0.5677180000000001,0.03952,-0.252792,-0.179398
1312,13.12,-0.28360799999999997,-0.8260850000000001,0.580375,0.111954,-0.175034,-0.223068
1313,13.13,-0.615833,-0.8849090000000001,0.6197550000000001,0.1716,-0.186752,-0.25183099999999997
1314,13.14,-0.883192,-0.908633,0.57377,0.239777,-0.225098,-0.25822399999999995
1315,13.15,-1.062338,-0.848326,0.328585,0.311157,-0.251724,-0.243317
1316,13.16,-1.058713,-0.776367,-0.002767999999999993,0.371872,-0.24427800000000002,-0.213486
1317,13.17,-0.996801,-0.69985,-0.484171,0.415558,-0.23149099999999997,-0.184723
1318,13.18,-0.9027709999999999,-0.615536,-0.912841,0.41874700000000004,-0.21019000000000002,-0.154892
1319,13.19,-0.7345510000000001,-0.494228,-1.238546,0.380402,-0.171829,-0.11441
1320,13.2,-0.609598,-0.352502,-1.415306,0.31967199999999996,-0.14413499999999999,-0.086716
1321,13.21,-0.6554760000000001,-0.353038,-1.40476,0.23445100000000002,-0.143082,-0.063278
1322,13.22,-0.8570110000000001,-0.378819,-1.247041,0.144974,-0.178223,-0.035583
1323,13.23,-0.8956270000000001,-0.37038000000000004,-0.9165120000000001,0.068268,-0.251724,-0.0014949999999999998
1324,13.24,-0.931975,-0.38721300000000003,-0.614926,0.013946999999999998,-0.34333800000000003,0.029388
1325,13.25,-0.821166,-0.46325900000000003,-0.345724,-0.003098,-0.42430100000000004,0.058151
1326,13.26,-0.669875,-0.439518,-0.191867,0.008621,-0.47224399999999994,0.073074
1327,13.27,-0.5417810000000001,-0.399149,-0.121379,0.050171,-0.497803,0.064545
1328,13.28,-0.39776100000000003,-0.348057,-0.075396,0.095978,-0.48396300000000003,0.058151
1329,13.29,-0.288211,-0.155696,-0.088713,0.151367,-0.430695,0.044312
1330,13.3,-0.190456,-0.058475,-0.143763,0.200363,-0.357193,0.028336
1331,13.31,-0.054886999999999984,0.071434,-0.21969899999999998,0.227005,-0.28369099999999997,0.009155
1332,13.32,-0.008571999999999995,0.265899,-0.255361,0.227005,-0.21444699999999997,-0.018539
1333,13.33,-0.100591,0.396808,-0.197537,0.19503800000000002,-0.164383,-0.041977
1334,13.34,-0.26855300000000004,0.522775,-0.009236999999999995,0.134323,-0.167572,-0.051559
1335,13.35,-0.403429,0.6820689999999999,0.250742,0.066147,-0.211258,-0.053696
1336,13.36,-0.5001220000000001,0.643634,0.566731,0.008620999999999997,-0.263443,-0.040909
1337,13.37,-0.547097,0.6020439999999999,0.816639,-0.028671,-0.32203699999999996,-0.031326
1338,13.38,-0.53833,0.473282,1.081075,-0.032928,-0.37316900000000003,-0.020676
1339,13.39,-0.390534,0.44236499999999995,1.198482,-0.01268,-0.408325,-0.018539
1340,13.4,-0.348315,0.39397600000000005,1.136974,0.030991,-0.40725700000000004,-0.030257999999999997
1341,13.41,-0.180222,0.445668,0.926531,0.068268,-0.36998000000000003,-0.045181
1342,13.42,-0.077551,0.501808,0.6192340000000001,0.081055,-0.319916,-0.067551
1343,13.43,-0.039938999999999995,0.49712399999999995,0.37493899999999997,0.043776999999999996,-0.30499299999999996,-0.094177
1344,13.44,-0.041507,0.424979,0.322856,-0.03504900000000001,-0.33056599999999997,-0.115479
1345,13.45,-0.100475,0.339291,0.45967299999999994,-0.13945,-0.38382,-0.125076
1346,13.46,-0.146517,0.030087000000000006,0.897593,-0.21934499999999998,-0.45094300000000004,-0.137848
1347,13.47,-0.360619,-0.407047,1.721632,-0.182068,-0.49140900000000004,-0.190048
1348,13.48,-0.390761,-0.619629,1.909729,-0.028671,-0.476501,-0.231598
1349,13.49,-0.37285,-0.594073,1.7382900000000001,0.187592,-0.38063,-0.25822399999999995
1350,13.5,-0.23459899999999997,-0.5243,1.082532,0.423004,-0.265579,-0.26355
1351,13.51,0.16598800000000002,-0.280891,0.031335,0.590256,-0.14094500000000001,-0.24543800000000002
1352,13.52,0.615614,0.08097200000000003,-1.041655,0.647781,-0.01738,-0.235855
1353,13.53,1.0158459999999998,0.48400200000000004,-1.865486,0.590256,0.111526,-0.223068
1354,13.54,1.155075,0.718167,-2.5268639999999998,0.395309,0.23190300000000003,-0.198578
1355,13.55,1.0641479999999999,0.8488760000000001,-2.696611,0.08319100000000001,0.31073,-0.181534
1356,13.56,0.696277,0.7744310000000001,-2.344668,-0.288589,0.317123,-0.157028
1357,13.57,0.217993,0.487588,-1.54197,-0.634796,0.23402399999999998,-0.132523
1358,13.58,-0.36144,0.09736899999999997,-0.5549270000000001,-0.8787379999999999,0.085953,-0.086716
1359,13.59,-0.7559279999999999,-0.313206,0.21940199999999999,-0.9980620000000001,-0.057846,-0.006821000000000001
1360,13.6,-0.777853,-0.729302,0.748051,-1.010834,-0.202728,0.076263
1361,13.61,-0.602412,-0.98331,1.037791,-0.92775,-0.315643,0.13378900000000002
1362,13.62,-0.279735,-1.14719,0.9503,-0.777542,-0.375305,0.17108199999999998
1363,13.63,0.030083999999999996,-1.096747,0.728974,-0.610306,-0.32629400000000003,0.178528
1364,13.64,0.27719699999999997,-1.034027,0.41636599999999996,-0.45689399999999997,-0.22723400000000002,0.17213399999999998
1365,13.65,0.45080699999999996,-0.926847,0.19668,-0.33653299999999997,-0.134552,0.13378900000000002
1366,13.66,0.485439,-0.950148,0.108275,-0.261963,-0.10153200000000001,0.068802
1367,13.67,0.31443499999999996,-0.9890450000000001,0.15469000000000002,-0.202301,-0.115372,-0.007889000000000005
1368,13.68,0.23251100000000002,-0.857856,0.238841,-0.136261,-0.151596,-0.069672
1369,13.69,0.110797,-0.809449,0.247906,-0.044647000000000006,-0.14094500000000001,-0.11335799999999999
1370,13.7,0.029179,-0.691712,0.226041,0.054428,-0.036545,-0.134659
1371,13.71,-0.047943,-0.599115,0.085783,0.165207,0.107269,-0.143173
1372,13.72,-0.169666,-0.5225609999999999,-0.167206,0.24937399999999998,0.23934899999999998,-0.147446
1373,13.73,-0.407075,-0.293846,-0.36635999999999996,0.286652,0.345886,-0.13677999999999998
1374,13.74,-0.5360560000000001,-0.144294,-0.458901,0.28772,0.38316300000000003,-0.102692
1375,13.75,-0.806415,-0.031032000000000007,-0.532844,0.256821,0.35972600000000005,-0.046234
1376,13.76,-0.863641,0.121147,-0.51076,0.200363,0.272385,0.028336
1377,13.77,-0.8480850000000001,0.176681,-0.510324,0.144974,0.153076,0.105026
1378,13.78,-0.703646,0.161499,-0.385746,0.090652,0.050797,0.182785
1379,13.79,-0.46296099999999996,0.04123800000000001,-0.285003,0.07147200000000001,-0.014175,0.241379
1380,13.8,-0.25635399999999997,-0.017657,-0.149062,0.09703099999999999,-0.030151,0.274399
1381,13.81,-0.056877,-0.0021930000000000005,-0.09489700000000001,0.149231,-0.0003359999999999995,0.294647
1382,13.82,0.082946,0.010590999999999998,-0.12795,0.220612,0.07637000000000001,0.298904
1383,13.83,0.17289200000000002,0.089199,-0.22198400000000001,0.276001,0.17012,0.287186
1384,13.84,0.223321,0.223266,-0.351879,0.31541399999999997,0.260666,0.270142
1385,13.85,0.176215,0.356158,-0.48201700000000003,0.316483,0.337357,0.253098
1386,13.86,0.141964,0.499337,-0.552754,0.27813699999999997,0.39913899999999997,0.24563600000000002
1387,13.87,0.11135899999999999,0.590942,-0.567768,0.20675700000000002,0.44068900000000005,0.247772
1388,13.88,0.054673,0.624911,-0.426721,0.10981800000000001,0.457733,0.24563600000000002
1389,13.89,-0.0008879999999999998,0.574141,-0.17897999999999994,0.01181,0.45133999999999996,0.241379
1390,13.9,-0.106521,0.498069,0.20727600000000002,-0.068085,0.43536400000000003,0.23393200000000003
1391,13.91,-0.297023,0.544215,0.662673,-0.107498,0.411926,0.22007800000000002
1392,13.92,-0.36339299999999997,0.606427,0.9393239999999999,-0.096848,0.381042,0.210495
1393,13.93,-0.308578,0.8235469999999999,0.953569,-0.051041,0.379974,0.21261599999999997
1394,13.94,-0.095264,0.9589549999999999,0.640055,-0.01268,0.43110699999999996,0.210495
1395,13.95,0.13781,0.9811780000000001,0.252233,-0.030792,0.531235,0.195572
1396,13.96,0.105274,0.9450120000000001,0.050240000000000014,-0.114944,0.637772,0.164688
1397,13.97,-0.152121,0.8856930000000001,0.238053,-0.23425300000000002,0.7059479999999999,0.1306
1398,13.98,-0.628811,0.720905,0.592171,-0.33972199999999997,0.728317,0.112488
1399,13.99,-1.152204,0.446218,1.131926,-0.408966,0.7240449999999999,0.127396
1400,14.0,-1.50091,0.349663,1.524518,-0.41535900000000003,0.684631,0.168945
1401,14.01,-1.71872,0.07159100000000003,1.799728,-0.366348,0.606873,0.226471
1402,14.02,-1.760441,0.015618,1.823466,-0.285385,0.524841,0.30636599999999997
1403,14.03,-1.4425729999999999,0.070389,1.642367,-0.171402,0.442825,0.387329
1404,14.04,-1.034926,0.036752999999999994,1.238736,-0.05741899999999999,0.39913899999999997,0.45336899999999997
1405,14.05,-0.611603,-0.002527,0.742912,0.021408000000000003,0.43855299999999997,0.49278299999999997
1406,14.06,-0.321737,-0.010078999999999998,0.29349200000000003,0.057616999999999995,0.501404,0.495987
1407,14.07,-0.248671,-0.014750999999999998,-0.134818,0.054428,0.582367,0.478943
1408,14.08,-0.290912,0.104546,-0.37144699999999997,0.007553000000000005,0.69635,0.465088
1409,14.09,-0.400152,0.15978499999999998,-0.46370200000000006,-0.080856,0.806076,0.461899
1410,14.1,-0.592032,0.10935999999999998,-0.447845,-0.21188400000000002,0.851883,0.45976300000000003
1411,14.11,-0.834666,-0.024752,-0.11184200000000001,-0.372742,0.8348389999999999,0.45869399999999994
1412,14.12,-1.121579,-0.175094,0.3038120000000001,-0.506973,0.74855,0.45018
