,ts,ax,ay,az,wx,wy,wz
0,0.0,-0.015000999999999999,0.024206000000000002,-0.0028899999999999998,-0.0052640000000000004,-0.024796000000000002,-0.005661
1,0.01,-0.03934,0.018489,0.027712,-0.007384999999999999,-0.021606,-0.005661
2,0.02,-0.01707,0.024072,0.028397000000000002,-0.0063170000000000006,-0.022675,-0.0035399999999999997
3,0.03,0.004013,0.048729,-0.012024999999999996,-0.00206,-0.023727,-0.0035399999999999997
4,0.04,-0.020199,0.005494,0.058994000000000005,-0.00206,-0.023727,-0.002472
5,0.05,-0.027701,-0.005509,0.028988999999999997,0.001129,-0.025863999999999998,-0.002472
6,0.06,-0.004806,0.005154,-0.018378,0.0032649999999999997,-0.025863999999999998,-0.002472
7,0.07,0.005723,0.017042999999999996,-0.00013200000000000017,0.0032649999999999997,-0.025863999999999998,0.000717
8,0.08,-0.007614,9.699999999999986e-05,-0.0044,0.004333,-0.024796000000000002,-0.000336
9,0.09,-0.015576,-0.014277000000000001,0.0077909999999999984,0.0054020000000000006,-0.023727,-0.002472
10,0.1,-7.899999999999921e-05,-0.001816,0.0038410000000000015,0.007523,-0.022675,-0.0035399999999999997
11,0.11,0.002003999999999999,0.019886,-0.004029,0.010727,-0.021606,-0.004608
12,0.12,-0.005998,0.000621,-0.00162,0.010727,-0.020538,-0.005661
13,0.13,-0.003946999999999999,-0.00969,-0.013500999999999999,0.009659000000000001,-0.019469999999999998,-0.005661
14,0.14,-0.0042120000000000005,-0.009091,-0.031431,0.008591,-0.014145,-0.0035399999999999997
15,0.15,-0.020959000000000002,-0.016747,0.0039499999999999995,0.008591,-0.013077000000000002,-0.005661
16,0.16,0.006224,-0.011264,-0.011635,0.0064540000000000005,-0.013077000000000002,-0.004608
17,0.17,-0.007761,-0.046716,-0.033260000000000005,0.007523,-0.010956,-0.0035399999999999997
18,0.18,-0.01715,-0.027995999999999997,-0.040305,0.0032649999999999997,-0.006683,-0.005661
19,0.19,-0.028219,-0.039973,-0.043042000000000004,6.100000000000007e-05,-0.0034939999999999997,-0.004608
20,0.2,-0.01617,-0.025817000000000003,-0.042355000000000004,6.100000000000007e-05,-0.002426,-0.004608
21,0.21,-0.0020210000000000002,-0.030686,-0.021307,-0.003128,-0.001358,-0.0035399999999999997
22,0.22,0.006434,-0.024737000000000002,-0.009444,-0.003128,0.001831,-0.004608
23,0.23,-0.000231,-0.016013,0.014890000000000004,-0.00206,0.005035,-0.004608
24,0.24,0.0044659999999999995,0.003105,0.0045969999999999995,-0.0009920000000000005,0.003967,-0.006729000000000001
25,0.25,-0.018163,0.013184999999999999,-0.007942,0.001129,0.003967,-0.006729000000000001
26,0.26,-0.011872,0.025313,-0.0010699999999999998,0.0032649999999999997,0.010361,-0.006729000000000001
27,0.27,-0.008684,0.046227,-0.0035549999999999996,0.0064540000000000005,0.008223999999999999,-0.004608
28,0.28,-0.003769,0.009840000000000002,-0.038769,0.007523,0.009293000000000001,-0.005661
29,0.29,-0.007176999999999999,0.031555,-0.042233,0.008591,0.007156,-0.004608
30,0.3,-0.014444000000000004,-0.010032,-0.029955000000000002,0.010727,0.008223999999999999,-0.0035399999999999997
31,0.31,-0.020914,-0.030614,-0.031062,0.008591,0.009293000000000001,-0.0035399999999999997
32,0.32,0.002668,-0.037379,-0.015407999999999996,0.008591,0.011414,-0.002472
33,0.33,0.012622,-0.025534,-0.061473,0.0064540000000000005,0.01355,-0.0035399999999999997
34,0.34,0.024176,-0.017138,-0.024180000000000004,0.008591,0.012482,-0.005661
35,0.35,0.009997999999999995,0.012172000000000002,-0.041908999999999995,0.0054020000000000006,0.015686000000000002,-0.0035399999999999997
36,0.36,0.019953,-0.004521,-0.055428,0.0011290000000000002,0.014618,-0.004608
37,0.37,-0.013869999999999999,-0.009729999999999999,-0.027938000000000004,6.1e-05,0.017807,-0.007797
38,0.38,-0.011134,0.014161000000000003,-0.05499400000000001,-0.003128,0.016738999999999997,-0.005661
39,0.39,-0.013505000000000001,0.014663999999999998,-0.041386,-0.0009920000000000005,0.017807,-0.008865000000000001
40,0.4,-0.020187,-0.004045,-0.056354999999999995,-0.004196,0.017807,-0.004608
41,0.41,0.012944999999999998,0.0059570000000000005,-0.07026900000000001,-0.004196,0.015686000000000002,-0.004607999999999999
42,0.42,0.026477999999999998,-0.020137000000000002,-0.042457,-0.0052640000000000004,0.017807,-0.007797
43,0.43,0.024536000000000002,-0.028556,-0.047458999999999994,-0.009521,0.015686000000000002,-0.004608
44,0.44,-0.006854000000000001,-0.010043999999999999,-0.033425,-0.008453,0.016738999999999997,-0.006729000000000001
45,0.45,0.017834,-0.006272,-0.054026,-0.009521,0.018875,-0.006729000000000001
46,0.46,0.027751000000000005,0.005242999999999999,-0.037997,-0.01059,0.017807,-0.011002
47,0.47,0.016899,0.003985,-0.06607400000000001,-0.008453,0.016738999999999997,-0.006729000000000001
48,0.48,0.011445,0.014048,-0.056865,-0.009521,0.019943000000000002,-0.007797
49,0.49,-0.0027300000000000002,0.013202,-0.06650299999999999,-0.011658,0.015686000000000002,-0.008865000000000001
50,0.5,0.015043,0.018925,-0.04707,-0.011658,0.018875,-0.007797
51,0.51,-0.012295000000000006,-0.021533,-0.043301,-0.011658,0.016738999999999997,-0.006729000000000001
52,0.52,0.003515000000000001,-0.011693,-0.02538,-0.01059,0.01355,-0.005661
53,0.53,0.0018629999999999999,-0.010941,-0.029467,-0.01059,0.016738999999999997,-0.006729000000000001
54,0.54,0.016842,-0.007013999999999999,-0.041925,-0.011658,0.016738999999999997,-0.005661
55,0.55,0.003282,-0.010387,-0.006220000000000003,-0.011658,0.017807,-0.007797
56,0.56,0.003503,-0.029110000000000007,0.009202,-0.012711,0.015686000000000002,-0.007797
57,0.57,-0.010104999999999996,-0.017422999999999998,-0.026366000000000004,-0.013779,0.016738999999999997,-0.006729000000000001
58,0.58,0.006447999999999999,0.002407,-0.010172,-0.013779,0.014618,-0.007797
59,0.59,-0.011773000000000002,0.018022999999999997,0.011643,-0.014846999999999999,0.012482,-0.007797
60,0.6,0.024652,-0.010466,0.011099,-0.015915000000000002,0.01355,-0.005661
61,0.61,0.026076,0.009956,0.039633999999999996,-0.015915000000000002,0.014618,-0.005661
62,0.62,-0.035045,0.031338,0.031785,-0.012711,0.012482,-0.006729000000000001
63,0.63,-0.007974,0.018359999999999998,0.027986,-0.009521,0.011414,-0.0035399999999999997
64,0.64,-0.020457,0.025824,0.0005739999999999981,-0.0063170000000000006,0.01355,-0.004608
65,0.65,0.014024000000000002,0.051564,0.014237,-0.00206,0.009293000000000001,-0.0035399999999999997
66,0.66,0.008957,0.045706000000000004,0.012179,6.099999999999986e-05,0.007156,-0.0014040000000000005
67,0.67,0.027474000000000002,0.018241,-0.018434,0.0054020000000000006,0.008223999999999999,-0.0035399999999999997
68,0.68,0.037797000000000004,0.043952000000000005,-0.007724999999999998,0.007523,0.0060880000000000005,-0.000336
69,0.69,0.020491,-0.019156,-0.053106000000000014,0.010727,0.0018310000000000012,-0.000336
70,0.7,0.05467999999999999,0.0008510000000000012,-0.042889,0.01178,0.003967,-0.0014039999999999999
71,0.71,0.049676,-0.037000000000000005,-0.05273099999999999,0.009659000000000001,-0.0003050000000000001,0.000717
72,0.72,0.044947,-0.036426,-0.076413,0.0054020000000000006,-0.00563,-0.002472
73,0.73,0.019306,-0.024672,-0.065826,0.0021969999999999997,-0.006683,-0.0014039999999999999
74,0.74,0.004788000000000001,-0.0005359999999999984,-0.064061,-0.003128,-0.00882,-0.002472
75,0.75,0.008811,0.00659,-0.045721,-0.0052640000000000004,-0.010956,-0.0014040000000000005
76,0.76,-0.002952,0.013956,0.026788,-0.0052640000000000004,-0.012024,-0.0014039999999999999
77,0.77,-0.015602,0.025602999999999997,-7.0000000000004946e-06,-0.004196,-0.012024,-0.006729000000000001
78,0.78,-0.01796,-0.0009349999999999984,0.052398,-0.00206,-0.010956,-0.004608
79,0.79,-0.045041000000000005,-0.0071540000000000015,0.030618,0.0011289999999999994,-0.007751000000000001,-0.005661
80,0.8,0.002480000000000003,-0.038078,0.029262,0.004333,-0.00563,-0.006729000000000001
81,0.81,-0.022545,-0.013903,-0.0009249999999999988,0.0054020000000000006,-0.0013580000000000005,-0.004608
82,0.82,-0.022954,-0.018852,0.01114,0.0011290000000000002,0.000763,-0.004608
83,0.83,-0.024678,0.018644,-0.009840999999999999,-0.000992,0.001831,-0.002472
84,0.84,-0.013831,0.035385,0.023316,-0.000992,0.0028989999999999997,-0.002472
85,0.85,-0.035792000000000004,0.061344,0.022494999999999998,6.1e-05,0.005035,-0.004608
86,0.86,-0.036459,0.046629000000000004,0.059976999999999996,0.008591,0.007156,-0.004608
87,0.87,-0.021266999999999998,0.032717,0.049795,0.014984,0.008223999999999999,-0.005661
88,0.88,-0.041027999999999995,0.00373,0.0033909999999999947,0.019241,0.008223999999999999,-0.004608
89,0.89,-0.021806,-0.03505,-0.028605,0.020309,0.0060880000000000005,-0.0014039999999999999
90,0.9,-0.019456,-0.025588,-0.046804000000000005,0.016052,0.003967,-0.0014039999999999999
91,0.91,0.0025970000000000003,-0.024622,-0.007349000000000001,0.012847999999999998,0.003967,-0.000336
92,0.92,-0.0031379999999999997,-0.00011700000000000078,-0.034470999999999995,0.01178,0.007156,-0.0014039999999999999
93,0.93,0.009495,-0.008448,-0.027001,0.012847999999999998,0.008223999999999999,-0.00033599999999999993
94,0.94,0.03665,0.017636000000000002,-0.014329,0.012847999999999998,0.0060880000000000005,-0.002472
95,0.95,0.042894,-0.006914,-0.026427999999999997,0.013916,0.010361,-0.0035399999999999997
96,0.96,0.055026,-0.02415,-0.026924000000000003,0.01178,0.007156,-0.00354
97,0.97,0.0066730000000000044,0.000981000000000001,-0.008523000000000001,0.0064540000000000005,0.007156,-0.005661
98,0.98,0.013912,-0.015116999999999997,0.010993000000000001,0.004333,0.005035,-0.004608
99,0.99,0.041342000000000004,-0.018394,-0.025034999999999998,0.0032649999999999997,0.005035,-0.004608
100,1.0,0.010514,-0.021187,0.009087,6.099999999999986e-05,0.0028989999999999997,-0.005661
101,1.01,-0.002153,-0.008051000000000003,0.055151,0.001129,0.003967,-0.0035399999999999997
102,1.02,-0.022413,0.0022159999999999992,0.046113999999999995,6.1e-05,0.0060880000000000005,-0.004608
103,1.03,-0.054535,0.0023390000000000012,0.009371000000000004,0.0021969999999999997,0.009293000000000001,-0.0035399999999999997
104,1.04,-0.105175,-0.020979,0.010956,0.001129,0.014618,-0.005661
105,1.05,-0.05575499999999999,0.002468,0.013092,-0.00206,0.014618,-0.002472
106,1.06,-0.052084000000000005,-0.030063,-0.008066,-0.003128,0.011414,-0.0014039999999999999
107,1.07,-0.021417,-0.030326,0.012631999999999999,-0.004196,0.011414,-0.0014039999999999999
108,1.08,-0.039197,-0.0060810000000000005,-0.008816,-0.007384999999999999,0.009293000000000001,-0.002472
109,1.09,-0.00634,-0.028807999999999997,-0.038140000000000014,-0.009521,0.01355,-0.0035399999999999997
110,1.1,-0.017207,-0.013375,-0.037174,-0.016983,0.011414,-0.0035399999999999997
111,1.11,0.007217999999999999,-0.002773000000000001,-0.05152,-0.019104,0.005035,-0.004608
112,1.12,0.013589999999999998,0.006292,-0.018298,-0.021240000000000002,0.001831,-0.0035399999999999997
113,1.13,0.013425999999999999,-0.010103000000000001,-0.019275999999999998,-0.025497,-0.00563,-0.002472
114,1.14,0.011922,-0.009956999999999999,1.3000000000000858e-05,-0.022308,-0.009888,-0.007797
115,1.15,0.035235,-0.025539,-0.039112,-0.021240000000000002,-0.013077000000000002,-0.005661
116,1.16,0.024002,-0.028895999999999998,-0.062588,-0.022308,-0.015212999999999999,-0.0035399999999999997
117,1.17,-0.005446,-0.021847,-0.070255,-0.021240000000000002,-0.019469999999999998,-0.004608
118,1.18,0.0001929999999999996,-0.024428000000000002,-0.09675800000000001,-0.022308,-0.023727,-0.005661
119,1.19,0.027494,0.019066,-0.057113,-0.024429,-0.029068,-0.0035399999999999997
120,1.2,-0.004541,0.025927999999999996,-0.003525000000000001,-0.026566000000000003,-0.031188999999999998,-0.007797
121,1.21,-0.009637999999999999,0.023368,0.044552999999999995,-0.024429,-0.026931999999999998,-0.005661
122,1.22,-0.027263,0.049635000000000006,0.035462,-0.024429,-0.025863999999999998,-0.006729000000000001
123,1.23,-0.069035,0.025268000000000002,0.08371,-0.020172,-0.025863999999999998,-0.007797
124,1.24,-0.073298,0.049171,0.058778,-0.016983,-0.026931999999999998,-0.006729000000000001
125,1.25,-0.08014299999999999,0.038556,0.078487,-0.01059,-0.024796000000000002,-0.0035399999999999997
126,1.26,-0.11059200000000001,0.011941,0.07471599999999999,-0.007384999999999999,-0.024796000000000002,-0.004608
127,1.27,-0.092524,0.050825999999999996,0.093868,-0.00206,-0.023727,-0.0035399999999999997
128,1.28,-0.080075,0.083686,0.081663,0.0021969999999999997,-0.019469999999999998,-0.002472
129,1.29,-0.094901,0.044498,0.054463,0.009659000000000001,-0.020538,-0.00033599999999999993
130,1.3,-0.077013,0.033576,0.074792,0.018172999999999998,-0.018402,0.000717
131,1.31,-0.046683999999999996,0.030715,0.057777999999999996,0.020309,-0.017349,0.002853
132,1.32,-0.007615,0.039773,0.005568,0.025635,-0.019469999999999998,0.00499
133,1.33,-0.020041,0.002818000000000001,-0.015768000000000004,0.026702999999999998,-0.019469999999999998,0.007111
134,1.34,-0.040546,-0.037860000000000005,-0.001104,0.026702999999999998,-0.016281,0.003922
135,1.35,-0.04735099999999999,-0.017425,-0.012636,0.025635,-0.016281,0.00499
136,1.36,-0.025107,-0.015512,-0.011170000000000001,0.025635,-0.015212999999999999,0.008179
137,1.37,-0.035501,-0.084236,-0.052388,0.023499000000000003,-0.014145,0.006058
138,1.38,-0.048713,-0.058336,-0.052185,0.021378,-0.012024,0.00499
139,1.39,-0.012939,-0.035015,-0.045987,0.017105000000000002,-0.00882,0.00499
140,1.4,-0.034774,-0.040530000000000004,-0.0065800000000000025,0.01178,-0.006683,0.003922
141,1.41,-0.028308999999999997,0.012001999999999999,0.013096,0.0064540000000000005,-0.0013579999999999998,0.003922
142,1.42,-0.03279,0.004920000000000001,0.013338,0.0021969999999999997,0.001831,0.003922
143,1.43,-0.053860000000000005,0.018538,0.025362,0.0054020000000000006,0.003967,0.002853
144,1.44,-0.015183000000000004,-0.008423,0.020123,0.004333,0.008223999999999999,0.002853
145,1.45,-0.05003,-0.002997,0.034791,0.0021969999999999997,0.015686000000000002,0.003922
146,1.46,-0.035741,0.0004959999999999999,0.032066000000000004,0.0032649999999999997,0.016738999999999997,0.003922
147,1.47,-0.036427,-0.003827000000000001,-0.0045750000000000105,0.001129,0.022078999999999998,0.003922
148,1.48,-0.029087000000000002,-0.015455000000000002,0.025099,0.001129,0.022078999999999998,0.008179
149,1.49,-0.003566,0.013028,0.050824,0.001129,0.028457999999999997,0.006058
150,1.5,-0.007306999999999999,0.009172,0.039012,0.0021969999999999997,0.029526,0.00499
151,1.51,-0.034062,0.027527,0.040816000000000005,0.001129,0.031662,0.007111
152,1.52,0.012056,0.0017060000000000005,0.011535,0.0054020000000000006,0.033783,0.007111
153,1.53,0.013397999999999995,0.008922,0.042072000000000005,0.0032649999999999997,0.040175999999999996,0.00499
154,1.54,0.02478,-0.0061790000000000005,0.05379,0.0064540000000000005,0.044449,0.006058
155,1.55,0.06515,0.012766,0.010781,0.0064540000000000005,0.044449,0.00499
156,1.56,0.042085000000000004,-0.007079,-0.034538,0.0064540000000000005,0.043381,0.003922
157,1.57,0.069671,-0.0037040000000000016,0.0031389999999999994,0.007523,0.041245,0.00499
158,1.58,0.052235000000000004,0.01236,-0.019868,0.0054020000000000006,0.040175999999999996,0.0017850000000000001
159,1.59,0.067389,-0.027473,-0.003048000000000002,0.0054020000000000006,0.035919,0.003922
160,1.6,0.061780999999999996,0.0007329999999999992,-0.014029999999999996,0.0054020000000000006,0.028457999999999997,0.000717
161,1.61,0.048212,-0.029113,0.021053,0.0064540000000000005,0.026337,-0.000336
162,1.62,0.062395000000000006,-0.008224000000000002,0.026874000000000002,0.008591,0.022078999999999998,0.002853
163,1.63,0.08758400000000001,-0.009396999999999999,-0.015174000000000002,0.010727,0.022078999999999998,0.0017850000000000001
164,1.64,0.080665,0.015965,0.007248,0.010727,0.017807,0.0017850000000000001
165,1.65,0.082729,0.042789999999999995,0.019611000000000003,0.010727,0.010361,0.002853
166,1.66,0.05214,0.055562,0.018238,0.013916,0.008223999999999999,0.002853
167,1.67,0.064157,0.032138,0.04609,0.017105000000000002,0.007156,0.001785
168,1.68,0.048797,-0.005941000000000003,0.037893,0.022446,0.008223999999999999,-0.0003360000000000001
169,1.69,0.044774000000000015,-0.005566,0.001722000000000001,0.025635,0.005035,0.0017850000000000001
170,1.7,0.029651,-0.05469500000000001,-0.031363,0.027770999999999997,-0.003494000000000001,-0.00033599999999999993
171,1.71,0.002891000000000001,-0.057694,-0.08214099999999999,0.024567,-0.010956,-0.0003360000000000001
172,1.72,0.038171,-0.059972000000000004,-0.048333999999999995,0.021378,-0.021606,0.000717
173,1.73,0.020591,-0.027241,-0.041161,0.020309,-0.027999999999999997,-0.000336
174,1.74,-0.013110999999999998,-0.002088000000000003,0.017235,0.017105000000000002,-0.034393,-0.002472
175,1.75,0.002043,-0.001419,0.025784999999999995,0.016052,-0.036514,0.0017850000000000001
176,1.76,0.020718,0.047964,0.008960999999999997,0.021378,-0.039719,0.003922
177,1.77,0.058911,0.048409,-0.0033739999999999985,0.021378,-0.039719,0.0017850000000000001
178,1.78,0.043579,0.026608,-0.031314,0.026702999999999998,-0.035446,0.002853
179,1.79,0.025415,0.022003,-0.033963,0.029892000000000002,-0.036514,0.002853
180,1.8,0.023150999999999998,0.011292,-0.028401,0.033096,-0.034393,0.000717
181,1.81,-0.009333,0.05268,-0.010709999999999999,0.038422000000000005,-0.034393,-0.000336
182,1.82,-0.03246,0.038866000000000005,-0.010157,0.041611,-0.026931999999999998,0.000717
183,1.83,-0.07863099999999999,0.057067999999999994,1.5000000000000256e-05,0.041611,-0.022675,0.000717
184,1.84,-0.10998,0.014619999999999998,-0.025404,0.041611,-0.017349,-0.0014039999999999999
185,1.85,-0.140895,-0.016200999999999997,-0.010615,0.037354000000000005,-0.007751000000000001,0.0017850000000000001
186,1.86,-0.155612,-0.015008,-0.033908,0.036285000000000005,-0.0013580000000000005,-0.0014039999999999999
187,1.87,-0.168724,-0.032306,-0.05597100000000001,0.032027999999999994,0.008223999999999999,-0.00033599999999999993
188,1.88,-0.13450299999999998,-0.034352999999999995,-0.054227,0.03096,0.018875,-0.000336
189,1.89,-0.097235,-0.076426,-0.105511,0.027770999999999997,0.031662,0.000717
190,1.9,-0.083486,-0.029952999999999997,-0.12224600000000001,0.023499000000000003,0.036987,-0.0003360000000000001
191,1.91,-0.053782,-0.056777,-0.155906,0.016052,0.044449,-0.00354
192,1.92,-0.015026999999999997,-0.027438000000000004,-0.14222100000000001,0.008591,0.047638,-0.002472
193,1.93,0.00011299999999999983,-0.039475,-0.129152,0.0032650000000000005,0.047638,-0.004608
194,1.94,0.030370999999999995,-0.0014969999999999983,-0.11531300000000001,-0.009521,0.048706,-0.007797
195,1.95,0.018539,-0.021259,-0.084373,-0.01059,0.044449,-0.007797
196,1.96,0.022828,0.005340000000000001,-0.050069999999999996,-0.012711,0.04657,-0.006729000000000001
197,1.97,0.021705000000000002,-0.012985,-0.029875,-0.01059,0.044449,-0.006729000000000001
198,1.98,0.024731,-0.014481,-0.012102,-0.01059,0.045502,-0.006729000000000001
199,1.99,0.047784,-0.017172,-0.02661,-0.011658,0.045502,-0.004608
200,2.0,0.04142,-0.0037450000000000005,-0.033119,-0.015915000000000002,0.047638,-0.005661
201,2.01,0.047746,-0.020675,-0.025817000000000003,-0.016983,0.048706,-0.006729000000000001
202,2.02,0.0586,-0.017819,0.0068359999999999975,-0.022308,0.051895000000000004,-0.007797
203,2.03,0.060171,0.023313999999999998,0.003633000000000001,-0.019104,0.054030999999999996,-0.008865000000000001
204,2.04,0.064804,0.019813,0.012734,-0.019104,0.055099,-0.009932999999999999
205,2.05,0.053318,0.010176000000000001,0.01743,-0.014846999999999999,0.052962999999999996,-0.006729000000000001
206,2.06,0.068252,0.004706,0.057035,-0.012711,0.051895000000000004,-0.006729000000000001
207,2.07,0.044891,0.025842,0.036369,-0.012711,0.04657,-0.005661
208,2.08,0.064802,0.040272,0.043680000000000004,-0.008453,0.044449,-0.0035399999999999997
209,2.09,0.068377,0.042851,0.048326999999999995,-0.0009919999999999998,0.039124,0.0007169999999999998
210,2.1,0.078275,0.021493,0.029162999999999998,0.001129,0.038055,0.000717
211,2.11,0.100427,-0.0032140000000000016,0.02435,0.0054020000000000006,0.036987,0.000717
212,2.12,0.065085,0.027037000000000002,0.011921,0.0064540000000000005,0.033783,-0.000336
213,2.13,0.068499,-0.0012659999999999998,-0.011753,0.008591,0.030594,0.000717
214,2.14,0.08895700000000001,0.006512,0.004386000000000001,0.008591,0.028457999999999997,0.000717
215,2.15,0.079916,-0.014837999999999999,0.006314999999999999,0.008591,0.026337,-0.00033599999999999993
216,2.16,0.07157999999999999,-0.015650999999999998,-0.042044,0.004333,0.023132,0.0017850000000000003
217,2.17,0.087125,-0.011254,-0.012365000000000001,0.0021969999999999997,0.0242,-0.00033599999999999993
218,2.18,0.06122999999999999,0.00029200000000000065,0.003218,6.099999999999986e-05,0.0242,-0.0014039999999999999
219,2.19,0.024507,0.027358999999999998,0.015267,0.0021969999999999997,0.027405000000000002,-0.0014039999999999999
220,2.2,0.026784,-0.011836,-0.0016460000000000001,0.0054020000000000006,0.025269,-0.0035399999999999997
221,2.21,0.019754,-0.011765000000000001,0.012454999999999999,0.0064540000000000005,0.026337,-0.0014039999999999999
222,2.22,-0.007409999999999999,0.0013189999999999999,0.003476,0.0054020000000000006,0.025269,-0.002472
223,2.23,-0.019786,0.001233,0.026037,0.0054020000000000006,0.026337,-0.002472
224,2.24,-0.017783,0.012508,-0.005896,0.004333,0.027405000000000002,-0.002472
225,2.25,-0.022507,-0.038491000000000004,-0.00372,0.0032649999999999997,0.029526,-0.00033599999999999993
226,2.26,-0.015844999999999998,-0.023318000000000002,-0.0034180000000000013,0.0021969999999999997,0.028457999999999997,0.0028530000000000005
227,2.27,-0.00192,-0.023587,-0.036293,6.100000000000007e-05,0.025269,0.0017850000000000001
228,2.28,-0.0024729999999999995,-0.008440000000000001,-0.005226999999999999,-0.004196,0.025269,0.000717
229,2.29,0.020662,-0.014659,-0.014683000000000002,-0.0052640000000000004,0.026337,0.0017850000000000001
230,2.3,0.013106,-0.006651000000000001,-0.005685,-0.0063170000000000006,0.025269,-0.002472
231,2.31,-0.007937999999999999,-0.005809,-0.009801,-0.0063170000000000006,0.0242,-0.0014039999999999999
232,2.32,0.010922,-0.0104,-0.0323,-0.007384999999999999,0.023132,-0.0035399999999999997
233,2.33,0.032579000000000004,0.031167,0.005275,-0.0052640000000000004,0.022078999999999998,-0.0014039999999999999
234,2.34,0.02253,-0.006711999999999999,-0.025235,-0.004196,0.019943000000000002,-0.0014039999999999999
235,2.35,0.027711000000000003,0.040802,0.021584,-0.003128,0.017807,-0.0014039999999999999
236,2.36,-0.003136,-0.011728000000000002,-0.001444,-0.00206,0.017807,-0.00033599999999999993
237,2.37,0.022616,-0.003928999999999999,0.012638,6.100000000000007e-05,0.012482,-0.0035399999999999997
238,2.38,-0.009547,-0.018661,-0.044401,6.100000000000007e-05,0.012482,0.000717
239,2.39,0.028277999999999998,0.005285000000000001,-0.039189,-0.00206,0.009293000000000001,-0.002472
240,2.4,0.032926,-0.024373,-0.02635,-0.0052640000000000004,0.0060880000000000005,-0.002472
241,2.41,0.040302,-0.024631,-0.034315,-0.009521,0.005035,-0.0035399999999999997
242,2.42,0.018888,-0.032537,-0.038416000000000006,-0.012711,0.005035,-0.004608
243,2.43,0.009678,-0.032019,-0.025181,-0.014846999999999999,0.003967,-0.005661
244,2.44,-0.003360000000000002,0.007050000000000002,0.0016080000000000018,-0.015915000000000002,0.003967,-0.005661
245,2.45,-0.009877,-0.014282,-0.012593,-0.016983,0.0007629999999999997,-0.005661
246,2.46,-0.030827999999999998,-0.013968000000000001,-0.009922,-0.016983,-0.0034939999999999997,-0.006729000000000001
247,2.47,-0.022456999999999998,-0.028881999999999998,-0.004247000000000001,-0.018036,-0.002426,-0.007797
248,2.48,-0.064639,0.021381999999999998,-0.007851,-0.019104,-0.006683,-0.007797
249,2.49,-0.032773000000000004,-0.004538,-0.028145999999999997,-0.019104,-0.006683,-0.005661
250,2.5,-0.019029,-0.008644000000000002,-0.021639,-0.023361,-0.007751000000000001,-0.006729000000000001
251,2.51,-0.04582,0.029631,-0.008532000000000001,-0.021240000000000002,-0.007751000000000001,-0.006729000000000001
252,2.52,-0.050985,0.016354,0.023874,-0.021240000000000002,-0.00882,-0.007797
253,2.53,-0.017955000000000002,0.035275,0.011148,-0.018036,-0.007751000000000001,-0.008865000000000001
254,2.54,-0.055941,0.00019699999999999929,-0.010918999999999998,-0.015915000000000002,-0.009888,-0.008865000000000001
255,2.55,-0.019116,-0.042841000000000004,0.0037970000000000018,-0.018036,-0.010956,-0.005661
256,2.56,-0.047299,-0.007833,-0.00376,-0.018036,-0.013077000000000002,-0.002472
257,2.57,-0.044289999999999996,0.017913,-0.028063,-0.021240000000000002,-0.010956,-0.005661
258,2.58,-0.011663,0.019527000000000003,-0.023088,-0.020172,-0.009888,-0.004608
259,2.59,-0.049243,0.019801,0.02444,-0.020172,-0.007751000000000001,-0.005661
260,2.6,-0.052864,0.024213,0.013053,-0.015915000000000002,-0.007751000000000001,-0.005661
261,2.61,-0.039859,-0.0056619999999999995,-0.005196,-0.015915000000000002,-0.00563,-0.0035399999999999997
262,2.62,-0.035994,-0.0014960000000000008,-0.006283,-0.016983,-0.004562,-0.002472
263,2.63,-0.027155000000000002,0.009948,-0.007195999999999999,-0.015915000000000002,-0.004562,0.0007170000000000006
264,2.64,-0.028168000000000002,0.023063,0.052173000000000004,-0.014846999999999999,-0.004562,0.002853
265,2.65,-0.022257,0.047292,0.025578,-0.0063170000000000006,-0.0034939999999999997,0.00499
266,2.66,-0.045646,0.041865,0.033987,0.0011289999999999994,-0.002426,0.007111
267,2.67,-0.026625,0.042732,0.032362,0.008591,-0.001358,0.006058
268,2.68,-0.007429999999999998,0.02777,0.033921,0.008591,-0.002426,0.008179
269,2.69,-0.034933999999999986,0.021809000000000002,0.018504,0.01178,-0.0034939999999999997,0.007111
270,2.7,-0.036224,0.014279,0.033382999999999996,0.009659000000000001,-0.0013580000000000005,0.007111
271,2.71,-0.048686,-0.017417,0.041658,0.01178,0.0028989999999999997,0.007111
272,2.72,-0.046883999999999995,-0.010159,0.046255000000000004,0.01178,0.0060880000000000005,0.007111
273,2.73,-0.068004,-0.052259,-0.0005469999999999989,0.013916,0.007156,0.008179
274,2.74,-0.062543,-0.005342,-0.022637,0.013916,0.01355,0.003922
275,2.75,-0.048614,0.0005780000000000004,-0.052327,0.01178,0.01355,0.003922
276,2.76,-0.046792,0.001667,-0.004912,0.009659000000000001,0.015686000000000002,0.007110999999999998
277,2.77,-0.07059,0.023985,-0.000916,0.009659000000000001,0.015686000000000002,0.00499
278,2.78,-0.036639,0.027030000000000002,0.020861,0.007523,0.021011000000000002,0.003922
279,2.79,-0.009198999999999999,-0.004358999999999997,-0.0026920000000000004,0.01178,0.021011000000000002,0.00499
280,2.8,-0.019444,0.012777,0.012184,0.016052,0.025269,0.007110999999999998
281,2.81,0.028377,0.007679999999999999,0.018285,0.018172999999999998,0.026337,0.00499
282,2.82,0.026646,-0.016274000000000004,-0.003501000000000001,0.01178,0.023132,0.002853
283,2.83,0.0032840000000000005,-0.054422000000000005,0.0009460000000000008,0.0064540000000000005,0.025269,-0.0014040000000000005
284,2.84,0.043095999999999995,-0.033454000000000005,-0.011796,-0.004196,0.023132,0.000717
285,2.85,0.052032,-0.013792,-0.019643,-0.011658,0.021011000000000002,-0.002472
286,2.86,0.079434,-0.020568,-0.04015,-0.020172,0.019943000000000002,-0.002472
287,2.87,0.07362300000000001,0.006121999999999996,-0.01945,-0.024429,0.018875,-0.002472
288,2.88,0.068641,-0.019714,-0.032228,-0.026566000000000003,0.017807,-0.002472
289,2.89,0.086658,-0.061831,-0.044618,-0.027634,0.015686000000000002,-0.0014039999999999999
290,2.9,0.085685,-0.06754600000000001,-0.040639999999999996,-0.03508,0.014618,-0.002472
291,2.91,0.11554500000000001,-0.059365,-0.066263,-0.048935,0.017807,-0.004608
292,2.92,0.120005,-0.054274,-0.01625,-0.059586,0.023132,-0.002472
293,2.93,0.127002,-0.030304,0.057211,-0.065979,0.025269,-0.0014039999999999999
294,2.94,0.122125,-0.018187000000000002,0.064376,-0.060654,0.023132,0.000717
295,2.95,0.117431,-0.015512,0.029826,-0.057449,0.017807,-0.002472
296,2.96,0.10887000000000001,-0.065608,0.012007999999999998,-0.05426,0.018875,-0.005661
297,2.97,0.125377,-0.077085,-0.011995,-0.055327999999999995,0.014618,-0.002472
298,2.98,0.147607,-0.044466000000000006,-0.089166,-0.056396,0.015686000000000002,-0.004608
299,2.99,0.138546,0.018362,-0.211127,-0.056396,0.01355,0.011382999999999999
300,3.0,0.158303,0.028118,-0.228422,-0.063843,0.014618,0.018829
301,3.01,0.123356,0.039916,-0.296034,-0.07344099999999999,0.01355,0.026291000000000002
302,3.02,0.17243499999999998,0.07019,-0.342292,-0.077698,0.008223999999999999,0.033752
303,3.03,0.20313900000000001,0.05499299999999999,-0.324436,-0.077698,0.0028989999999999997,0.032684
304,3.04,0.220347,0.028253000000000007,-0.275062,-0.07662999999999999,-0.000305,0.029480000000000003
305,3.05,0.23458600000000002,-0.023409,-0.24951700000000002,-0.077698,-0.006683,0.018829
306,3.06,0.29472,-0.077584,-0.25249499999999997,-0.079834,-0.004562,0.009247
307,3.07,0.378195,-0.080164,-0.330262,-0.081955,-0.009888,0.001785
308,3.08,0.448696,-0.13173900000000002,-0.402886,-0.084091,-0.023727,-0.005661
309,3.09,0.47725500000000004,-0.177732,-0.420883,-0.092606,-0.036514,-0.011002
310,3.1,0.454795,-0.22111399999999998,-0.45085699999999995,-0.10539200000000001,-0.048233,-0.015259
311,3.11,0.369347,-0.248113,-0.505424,-0.11817899999999999,-0.055695,-0.022705
312,3.12,0.212437,-0.230444,-0.503934,-0.130966,-0.061020000000000005,-0.033371
313,3.13,0.06603300000000001,-0.170651,-0.5378539999999999,-0.136292,-0.050369,-0.03656
314,3.14,-0.12801400000000002,-0.09195700000000001,-0.586417,-0.132019,-0.037582,-0.053604
315,3.15,-0.35073499999999996,0.006199000000000003,-0.5419189999999999,-0.127762,-0.014145,-0.065323
316,3.16,-0.525066,0.092081,-0.540551,-0.121368,0.012482,-0.080231
317,3.17,-0.634219,0.193228,-0.513227,-0.11711099999999999,0.043381,-0.09088099999999999
318,3.18,-0.6393449999999999,0.288666,-0.466222,-0.11071800000000001,0.070007,-0.096222
319,3.19,-0.477307,0.333683,-0.42001000000000005,-0.103256,0.091309,-0.09088099999999999
320,3.2,-0.25398899999999996,0.292468,-0.42736899999999994,-0.09367400000000001,0.099838,-0.08343500000000001
321,3.21,-0.056472,0.29370799999999997,-0.350113,-0.084091,0.100906,-0.077042
322,3.22,0.061962,0.303807,-0.368875,-0.07449299999999999,0.094513,-0.06639099999999999
323,3.23,0.136124,0.254083,-0.286497,-0.06704700000000001,0.084915,-0.067459
324,3.24,0.200147,0.155392,-0.195276,-0.05426,0.076401,-0.062134
325,3.25,0.24224299999999999,0.050211,-0.16376500000000002,-0.038284,0.06681799999999999,-0.062134
326,3.26,0.18723499999999998,-0.074557,-0.11278699999999998,-0.030823000000000003,0.054030999999999996,-0.068512
327,3.27,0.186696,-0.155448,-0.06577899999999999,-0.029755,0.049774,-0.074905
328,3.28,0.098884,-0.231354,0.069609,-0.026566000000000003,0.052962999999999996,-0.081299
329,3.29,-0.048232,-0.292195,0.157301,-0.022308,0.06575,-0.08769199999999999
330,3.3,-0.23181999999999997,-0.383932,0.23203600000000002,-0.025497,0.095581,-0.082367
331,3.31,-0.427277,-0.5178050000000001,0.286519,-0.027634,0.141388,-0.072784
332,3.32,-0.650305,-0.74079,0.199036,-0.039352,0.194641,-0.05146799999999999
333,3.33,-0.8609879999999999,-0.920673,0.11345899999999999,-0.053191999999999996,0.240448,-0.024841
334,3.34,-1.0212860000000001,-1.053827,0.016064,-0.063843,0.26921100000000003,0.01564
335,3.35,-1.1530280000000002,-1.015662,-0.143004,-0.07449299999999999,0.28625500000000004,0.061447
336,3.36,-1.2102389999999998,-0.82204,-0.28641300000000003,-0.079834,0.29904200000000003,0.113647
337,3.37,-1.064838,-0.497997,-0.446162,-0.078766,0.292648,0.161575
338,3.38,-0.41034,0.633083,-0.568775,-0.04361,0.24151599999999998,0.199936
339,3.39,0.0017250000000000045,1.139325,-0.515518,-0.024429,0.20636,0.178619
340,3.4,0.408524,1.500162,-0.36549499999999996,-0.021240000000000002,0.187195,0.125366
341,3.41,0.626571,1.588839,-0.185159,-0.026566000000000003,0.185059,0.052917
342,3.42,0.681636,1.520485,-0.151027,-0.013779,0.187195,-0.026978
343,3.43,0.571604,1.2774219999999998,-0.22581199999999998,0.021378,0.191452,-0.097275
344,3.44,0.427371,0.864727,-0.533968,0.054398,0.18399000000000001,-0.1548
345,3.45,0.249058,0.509706,-0.885417,0.060791,0.162689,-0.18676800000000002
346,3.46,0.135389,0.124153,-1.063393,0.033096,0.130722,-0.20700100000000002
347,3.47,0.006434999999999996,-0.10762200000000001,-1.171251,-0.010589999999999995,0.084915,-0.21446199999999999
348,3.48,0.0004070000000000011,-0.250954,-1.199749,-0.05851699999999999,0.043381,-0.21553000000000003
349,3.49,0.086724,-0.27507600000000004,-1.0789,-0.107529,0.008224000000000002,-0.21446199999999999
350,3.5,0.225272,-0.260862,-0.948548,-0.15545699999999998,-0.021606,-0.211258
351,3.51,0.325052,-0.137976,-0.782221,-0.199142,-0.042908,-0.21446199999999999
352,3.52,0.400863,-0.031598,-0.585935,-0.234283,-0.058884000000000006,-0.218719
353,3.53,0.37314400000000003,0.089115,-0.431123,-0.241745,-0.07380700000000001,-0.228302
354,3.54,0.2804,0.183864,-0.375132,-0.230026,-0.087646,-0.23683200000000001
355,3.55,0.199241,0.198717,-0.392256,-0.2034,-0.10043300000000001,-0.24429299999999998
356,3.56,-0.08865199999999998,0.16426,-0.445457,-0.172501,-0.112152,-0.257065
357,3.57,-0.30545900000000004,0.154128,-0.509847,-0.143738,-0.108963,-0.261337
358,3.58,-0.6095689999999999,0.11329700000000001,-0.551463,-0.1203,-0.09724400000000001,-0.26239
359,3.59,-0.841983,0.032204,-0.5829439999999999,-0.089417,-0.07486,-0.26026900000000003
360,3.6,-1.080527,-0.076387,-0.689735,-0.069168,-0.054626,-0.25387600000000005
361,3.61,-1.197704,-0.190899,-0.7543350000000001,-0.050003,-0.031188999999999998,-0.245346
362,3.62,-1.303382,-0.339253,-0.87974,-0.041473,-0.014145,-0.233627
363,3.63,-1.277377,-0.45379899999999995,-0.947997,-0.042542,-0.004562,-0.219788
364,3.64,-1.143252,-0.477738,-0.9969049999999999,-0.052124000000000004,0.019943000000000002,-0.197418
365,3.65,-0.9792120000000001,-0.441722,-1.065855,-0.06279,0.04657,-0.178238
366,3.66,-0.783842,-0.34718699999999997,-1.088111,-0.069168,0.074265,-0.158005
367,3.67,-0.639057,-0.20996900000000002,-1.1873120000000001,-0.069168,0.087051,-0.13989300000000002
368,3.68,-0.39961399999999997,-0.132891,-1.223701,-0.06279,0.08812,-0.118591
369,3.69,-0.17761400000000002,-0.11941500000000001,-1.289213,-0.064911,0.08812,-0.099411
370,3.7,-0.009762000000000009,-0.15677,-1.367721,-0.06279,0.07959,-0.08343500000000001
371,3.71,0.16437100000000002,-0.254968,-1.478944,-0.064911,0.072144,-0.070648
372,3.72,0.320076,-0.32600300000000004,-1.547593,-0.07449299999999999,0.072144,-0.065323
373,3.73,0.318063,-0.31066,-1.719282,-0.085159,0.067871,-0.070648
374,3.74,0.296175,-0.204894,-1.7660080000000002,-0.102203,0.062546,-0.077042
375,3.75,0.203655,-0.061501,-1.788413,-0.11604300000000001,0.05722000000000001,-0.081299
376,3.76,0.12554500000000002,0.08707000000000001,-1.7344330000000001,-0.121368,0.047638,-0.086624
377,3.77,0.049595,0.24114499999999997,-1.7262,-0.112854,0.03273,-0.082367
378,3.78,-0.019819,0.46410799999999997,-1.6937529999999998,-0.079834,0.008223999999999999,-0.065323
379,3.79,-0.127295,0.5835140000000001,-1.7381779999999998,-0.051071,-0.012024,-0.052536
380,3.8,-0.183705,0.594625,-1.74632,-0.029755,-0.037582,-0.037627999999999995
381,3.81,-0.257148,0.637232,-1.726816,-0.025497,-0.056763,-0.023773
382,3.82,-0.278449,0.647471,-1.7131439999999998,-0.031891,-0.067413,-0.006729000000000001
383,3.83,-0.31588499999999997,0.65169,-1.7619919999999998,-0.030823000000000003,-0.083389,0.010315000000000001
384,3.84,-0.23188499999999998,0.739196,-1.8539740000000002,-0.009521000000000002,-0.09724400000000001,0.025223
385,3.85,-0.10788699999999998,0.830933,-1.9729720000000002,0.009659000000000001,-0.103622,0.031616000000000005
386,3.86,0.017328999999999997,0.860749,-2.078984,0.020309,-0.095108,0.027358999999999998
387,3.87,0.102693,0.876217,-2.131207,0.013916,-0.068481,0.016708
388,3.88,0.162116,0.9151040000000001,-2.215457,0.008591,-0.034393,0.002853
389,3.89,0.19797599999999999,0.9574870000000001,-2.2442349999999998,0.01178,-0.009888,-0.011002
390,3.9,0.351154,1.002045,-2.305534,0.028824000000000002,-0.002426,-0.024841
391,3.91,0.304881,0.924472,-2.276825,0.041611,-0.006683,-0.034424
392,3.92,0.168129,0.853785,-2.018287,0.027770999999999997,-0.006683,-0.041885000000000006
393,3.93,-0.012351,0.8353010000000001,-1.409465,-0.025497,0.025269,-0.054672000000000005
394,3.94,-0.331716,0.8788940000000001,-0.593486,-0.107529,0.085983,-0.080231
395,3.95,-0.606013,1.356585,0.244105,-0.21405,0.152039,-0.12498499999999998
396,3.96,-0.44188599999999995,2.053847,0.749292,-0.298203,0.138184,-0.19635
397,3.97,-0.260092,2.236421,1.658679,-0.3078,0.064682,-0.25387600000000005
398,3.98,0.16281600000000002,2.122588,2.656695,-0.242813,0.019943000000000002,-0.295425
399,3.99,0.675012,1.823362,3.1817889999999998,-0.14694200000000002,-0.007750999999999998,-0.334839
400,4.0,1.2352290000000001,1.061842,3.3686279999999997,-0.037216,-0.055695,-0.36039699999999997
401,4.01,1.543472,0.05421799999999999,3.117923,0.056534,-0.11108399999999999,-0.35827600000000004
402,4.02,1.519426,-0.941169,2.4636099999999996,0.11511199999999999,-0.189911,-0.335907
403,4.03,1.2747,-1.6297139999999999,1.6761099999999998,0.132156,-0.293243,-0.327377
404,4.04,0.812116,-1.90888,1.0384,0.12043800000000002,-0.42215,-0.331635
405,4.05,0.28980300000000003,-1.887012,0.603909,0.089554,-0.53186,-0.33056599999999997
406,4.06,-0.196024,-1.6757520000000001,0.42695600000000006,0.036285000000000005,-0.55423,-0.31459000000000004
407,4.07,-0.8224870000000001,-1.015156,0.339723,-0.07449299999999999,-0.453033,-0.265594
408,4.08,-1.253124,-0.48256000000000004,0.241062,-0.14694200000000002,-0.351837,-0.21553000000000003
409,4.09,-1.525384,-0.032723,0.140235,-0.20233199999999998,-0.27833600000000003,-0.14415
410,4.1,-1.5819590000000001,0.26318800000000003,0.135017,-0.241745,-0.228271,-0.056792999999999996
411,4.11,-1.6106340000000001,0.518995,0.148642,-0.256668,-0.20163,0.048660000000000016
412,4.12,-1.404536,0.7148479999999999,0.29611,-0.259857,-0.18779,0.163712
413,4.13,-0.990726,0.6728609999999999,0.441,-0.259857,-0.16860999999999998,0.272369
414,4.14,-0.450506,0.501153,0.549599,-0.246002,-0.140915,0.367172
415,4.15,-0.014886000000000009,0.26991,0.526958,-0.212982,-0.136658,0.437485
416,4.16,0.4373469999999999,0.010220000000000009,0.33361999999999997,-0.16185,-0.159027,0.482224
417,4.17,0.7807470000000001,-0.394225,0.07085599999999999,-0.10646099999999999,-0.202698,0.5045930000000001
418,4.18,1.204456,-0.926789,-0.10369400000000001,-0.05426,-0.247437,0.507797
419,4.19,1.7616669999999999,-1.341785,-0.185425,-0.023361,-0.28578200000000004,0.500336
420,4.2,2.366286,-1.461173,-0.34016599999999997,-0.013779,-0.323074,0.49501000000000006
421,4.21,2.646122,-1.490061,-0.421418,-0.038284,-0.352905,0.48754899999999995
422,4.22,2.561058,-1.443856,-0.502239,-0.07662999999999999,-0.363556,0.479034
423,4.23,2.1173669999999998,-1.297642,-0.653107,-0.111786,-0.360352,0.460922
424,4.24,1.444574,-1.054118,-0.767977,-0.140549,-0.34970100000000004,0.422562
425,4.25,0.737173,-0.754847,-0.881863,-0.165054,-0.33158899999999997,0.372498
426,4.26,0.08811800000000003,-0.46435,-0.9298270000000001,-0.169312,-0.301773,0.325623
427,4.27,-0.40207,-0.213948,-1.059122,-0.153336,-0.260223,0.281952
428,4.28,-0.631895,-0.020175,-1.168509,-0.11392200000000001,-0.20483400000000002,0.253189
429,4.29,-0.6258229999999999,0.147651,-1.380625,-0.019104000000000003,-0.112152,0.218033
430,4.3,-0.47753500000000004,0.160475,-1.409878,0.041611,-0.043976,0.196732
431,4.31,-0.29335700000000003,0.080328,-1.4214360000000001,0.09062200000000001,0.014618000000000003,0.173294
432,4.32,-0.09269,-0.079689,-1.345472,0.126831,0.068939,0.15625
433,4.33,0.05935600000000001,-0.25404899999999997,-1.384965,0.150269,0.113678,0.138138
434,4.34,0.197755,-0.39421300000000004,-1.525219,0.16731300000000002,0.15097,0.130692
435,4.35,0.219298,-0.410553,-1.6757900000000001,0.181168,0.18399000000000001,0.12216199999999999
436,4.36,0.117335,-0.29780999999999996,-1.885652,0.177963,0.210617,0.113647
437,4.37,0.055999,-0.004168000000000005,-1.957887,0.166245,0.240448,0.109375
438,4.38,-0.05778099999999999,0.317363,-1.9315799999999999,0.132156,0.276672,0.110443
439,4.39,-0.10358900000000001,0.781043,-1.804659,0.085281,0.32566799999999996,0.11683699999999998
440,4.4,-0.23551100000000003,1.3082559999999999,-1.6447580000000002,0.044815,0.398117,0.12216199999999999
441,4.41,-0.427404,1.8273650000000001,-1.554035,0.026702999999999998,0.483337,0.113647
442,4.42,-0.751983,2.270944,-1.455154,0.041611,0.568558,0.092331
443,4.43,-0.9286049999999999,2.60232,-1.334633,0.084229,0.651642,0.067841
444,4.44,-1.0611469999999998,2.707088,-1.297233,0.163055,0.723022,0.060378999999999995
445,4.45,-1.132357,2.527327,-1.289579,0.27915999999999996,0.761368,0.068893
446,4.46,-1.003079,2.196307,-1.268304,0.395279,0.7645569999999999,0.09553500000000001
447,4.47,-0.598346,1.8423779999999998,-1.097613,0.460266,0.725143,0.12004100000000001
448,4.48,-0.173248,1.379181,-0.5768340000000001,0.42297399999999996,0.677216,0.16583299999999998
449,4.49,0.39062199999999997,0.8175020000000001,0.30877200000000005,0.272781,0.660172,0.247864
450,4.5,0.790203,0.11789299999999996,1.513678,0.079956,0.649506,0.359711
451,4.51,0.5868369999999999,-0.46101499999999995,2.5959790000000003,-0.11604300000000001,0.642059,0.48754899999999995
452,4.52,-0.010384999999999978,-0.667141,3.241302,-0.268372,0.635666,0.6026
453,4.53,-0.877843,-0.843008,3.47911,-0.315247,0.568558,0.693146
454,4.54,-1.454919,-0.8417549999999999,3.5279629999999997,-0.276901,0.49717700000000004,0.773041
455,4.55,-1.522936,-1.003185,3.3766589999999996,-0.167175,0.49505600000000005,0.80394
456,4.56,-1.296746,-1.113602,2.985668,-0.03508,0.529144,0.7954100000000001
457,4.57,-0.8462139999999999,-1.032806,2.3812919999999997,0.07357799999999999,0.541916,0.763458
458,4.58,-0.305419,-0.678357,1.71323,0.128967,0.521683,0.69101
459,4.59,0.30799,-0.17767100000000002,1.165433,0.131088,0.476944,0.577026
460,4.6,1.136943,0.5008819999999999,0.903084,0.087418,0.44604499999999997,0.42469799999999996
461,4.61,2.023145,1.1664809999999999,0.781011,0.019241,0.423676,0.252121
462,4.62,2.918631,1.7249729999999999,0.87836,-0.031891,0.4077,0.05718999999999999
463,4.63,3.480147,1.988516,1.101293,-0.059586,0.394913,-0.131363
464,4.64,3.570677,1.8524,1.224898,-0.045745999999999995,0.376801,-0.291153
465,4.65,3.011731,1.2381149999999999,1.075433,-0.012711,0.329941,-0.401947
466,4.66,2.076167,0.31681,0.861333,0.027771000000000004,0.26814299999999996,-0.469055
467,4.67,1.058346,-0.505225,0.47860699999999995,0.055465999999999994,0.180801,-0.49356099999999997
468,4.68,-0.172966,-1.1687379999999998,0.100009,0.07251,0.068939,-0.480774
469,4.69,-1.1225969999999998,-1.658391,-0.309736,0.085281,-0.046112,-0.43710299999999996
470,4.7,-2.2412360000000002,-2.099288,-0.43933599999999995,0.093811,-0.145172,-0.372116
471,4.71,-2.830459,-2.213309,-0.464272,0.102341,-0.184586,-0.319916
472,4.72,-3.208885,-2.125513,-0.646411,0.099136,-0.167542,-0.301819
473,4.73,-3.293471,-1.9969860000000001,-0.802189,0.082092,-0.108963,-0.31459000000000004
474,4.74,-3.073718,-1.829013,-1.037735,0.062912,-0.040770999999999995,-0.342285
475,4.75,-2.458742,-1.699329,-1.307625,0.043747,0.0007629999999999997,-0.376373
476,4.76,-1.5769950000000001,-1.4881229999999999,-1.502729,0.008590999999999998,-0.0003049999999999997,-0.395554
477,4.77,-0.610548,-1.382995,-1.558838,-0.039352,-0.019469999999999998,-0.394485
478,4.78,0.3413419999999999,-1.351213,-1.6098350000000001,-0.09367400000000001,-0.067413,-0.36999499999999996
479,4.79,1.282733,-1.4212360000000002,-1.500586,-0.149063,-0.148376,-0.325241
480,4.8,1.874536,-1.4461600000000001,-1.476802,-0.183151,-0.247437,-0.275177
481,4.81,2.2181330000000004,-1.271175,-1.4085379999999998,-0.190613,-0.34225500000000003,-0.226181
482,4.82,2.2332650000000003,-1.011458,-1.4122139999999999,-0.156525,-0.414688,-0.192093
483,4.83,1.858424,-0.730783,-1.308288,-0.075562,-0.476471,-0.17717
484,4.84,1.3393709999999999,-0.519392,-1.173497,0.035217,-0.53186,-0.17717
485,4.85,0.663046,-0.358135,-1.062894,0.154526,-0.575546,-0.175049
486,4.86,0.006433000000000022,-0.312909,-1.062367,0.24827600000000002,-0.604309,-0.180374
487,4.87,-0.613223,-0.360823,-1.236826,0.343079,-0.644791,-0.208069
488,4.88,-0.473321,-0.368478,-1.28593,0.354797,-0.6437229999999999,-0.203812
489,4.89,-0.146263,-0.292308,-1.314309,0.348404,-0.609634,-0.194214
490,4.9,0.055337,0.13116499999999998,-1.419432,0.329239,-0.58194,-0.185699
491,4.91,0.261098,0.773375,-1.64625,0.294083,-0.571274,-0.180374
492,4.92,0.27265,1.489208,-1.8076599999999998,0.252533,-0.552109,-0.175049
493,4.93,0.290563,2.065819,-1.8552,0.217377,-0.508423,-0.155869
494,4.94,0.383181,2.429863,-1.841432,0.19181800000000002,-0.447708,-0.12071199999999999
495,4.95,0.3872,2.707135,-1.799136,0.18222,-0.39231900000000003,-0.081299
496,4.96,0.292272,2.78671,-1.7023560000000002,0.179031,-0.358231,-0.058928999999999995
497,4.97,0.165256,2.836323,-1.2631459999999999,0.165176,-0.34863299999999997,-0.070648
498,4.98,0.09865499999999999,2.809796,-0.47198900000000005,0.127899,-0.352905,-0.128174
499,4.99,0.18829400000000002,2.7589799999999998,0.596863,0.076767,-0.363556,-0.216583
500,5.0,0.12130999999999999,2.600218,1.885018,0.038422000000000005,-0.336929,-0.344421
501,5.01,0.28318899999999997,2.290165,3.30818,0.010727,-0.24531599999999998,-0.504211
502,5.02,0.649989,2.019078,4.3940209999999995,-0.029755,-0.132385,-0.6767880000000001
503,5.03,1.720247,1.862325,4.781867,-0.064911,-0.062088,-0.848297
504,5.04,1.866787,1.2103190000000001,4.191157,-0.009521000000000002,-0.166473,-1.0123440000000001
505,5.05,1.348156,0.14577099999999998,3.640826,0.12470999999999999,-0.34118699999999996,-1.042175
506,5.06,0.607658,-0.929644,3.186778,0.26745599999999997,-0.425339,-0.972931
507,5.07,0.08946199999999999,-1.590126,2.591567,0.37397800000000003,-0.5148159999999999,-0.8568120000000001
508,5.08,-0.624581,-1.8203259999999999,1.942294,0.42404200000000003,-0.672485,-0.7236630000000001
509,5.09,-1.254599,-1.55215,1.455184,0.387817,-0.81842,-0.5713199999999999
510,5.1,-1.897666,-0.842304,1.073386,0.282364,-0.882339,-0.429642
511,5.11,-2.7743279999999997,0.21820399999999995,0.767313,0.137482,-0.8429260000000001,-0.302872
512,5.12,-3.762164,1.139838,0.704481,-0.012711,-0.7086939999999999,-0.18249500000000002
513,5.13,-4.678176000000001,1.612608,0.785317,-0.134155,-0.53186,-0.056793
514,5.14,-5.09358,1.514483,1.000132,-0.198074,-0.344376,0.092331
515,5.15,-4.575381,0.975284,1.323986,-0.20233199999999998,-0.198441,0.244675
516,5.16,-3.526742,0.410762,1.656238,-0.145874,-0.088715,0.378891
517,5.17,-2.349125,-0.04447200000000001,1.703193,-0.048935,-0.001357999999999998,0.516312
518,5.18,-0.8732700000000001,-0.5018640000000001,1.59741,0.053329,0.055099,0.647339
519,5.19,0.6802060000000001,-1.0402280000000002,1.240353,0.13536099999999998,0.091309,0.744278
520,5.2,2.074725,-1.765306,0.71519,0.176895,0.123276,0.796478
521,5.21,3.103812,-2.622518,0.032725000000000004,0.170517,0.125397,0.807129
522,5.22,3.79567,-3.367576,-0.600929,0.11617999999999999,0.08812,0.786896
523,5.23,4.160728,-3.8514769999999996,-1.038701,0.026703000000000005,0.015686000000000002,0.738953
524,5.24,4.272892,-4.060937,-1.2296280000000002,-0.079834,-0.06848100000000001,0.663315
525,5.25,3.8781730000000003,-3.893301,-1.145059,-0.187424,-0.137711,0.568512
526,5.26,3.1382849999999998,-3.417819,-0.930502,-0.28862,-0.16860999999999998,0.465179
527,5.27,2.077847,-2.780719,-0.812867,-0.374908,-0.157959,0.35759
528,5.28,0.9756969999999999,-2.0966970000000003,-0.8057529999999999,-0.452667,-0.10043300000000001,0.25106799999999996
529,5.29,-0.022992000000000068,-1.544142,-0.775662,-0.502731,-0.019469999999999998,0.162643
530,5.3,-0.8660620000000001,-0.96372,-0.7934100000000001,-0.511261,0.072144,0.109375
531,5.31,-1.369738,-0.37302399999999997,-0.773342,-0.455872,0.165878,0.089142
532,5.32,-1.54277,0.160553,-0.73683,-0.33868400000000004,0.24897800000000003,0.093399
533,5.33,-1.439247,0.473753,-0.690919,-0.169312,0.311829,0.112579
534,5.34,-1.252321,0.488458,-0.705358,0.010727,0.368286,0.140274
535,5.35,-1.072079,0.271967,-0.817761,0.170517,0.41835,0.170105
536,5.36,-0.830034,-0.160688,-0.927941,0.27597,0.480133,0.20845
537,5.37,-0.632759,-0.670018,-1.109424,0.315384,0.542984,0.236145
538,5.38,-0.463978,-1.047612,-1.292608,0.301544,0.5856020000000001,0.23934899999999998
539,5.39,-0.255897,-1.069836,-1.637627,0.244019,0.5983729999999999,0.21270799999999998
540,5.4,-0.032601999999999985,-0.42903800000000003,-1.981493,0.169449,0.5856020000000001,0.195663
541,5.41,0.21146399999999999,0.664605,-2.069807,0.09487899999999999,0.587723,0.200989
542,5.42,0.373214,1.936611,-2.037644,0.049072000000000005,0.622879,0.223358
543,5.43,0.42449,2.9613490000000002,-1.970278,0.033096,0.647385,0.24360700000000002
544,5.44,0.359283,3.586356,-1.766778,0.032027999999999994,0.6378020000000001,0.24360700000000002
545,5.45,0.203964,3.868629,-1.5802040000000002,0.037354000000000005,0.610092,0.229752
546,5.46,-0.253125,3.795806,-1.350554,0.053328999999999994,0.612228,0.207382
547,5.47,-0.652273,3.5519300000000005,-1.121918,0.09062200000000001,0.6612239999999999,0.195663
548,5.48,-0.829874,3.15959,-0.8234389999999999,0.11511199999999999,0.710236,0.207382
549,5.49,-0.976297,2.706493,-0.210348,0.070374,0.743256,0.247864
550,5.5,-1.0025389999999998,2.307674,0.623627,-0.025497,0.780533,0.332016
551,5.51,-0.703978,1.6630479999999999,1.42201,-0.089417,0.759232,0.43855299999999997
552,5.52,-0.363245,0.66354,2.117282,-0.11711099999999999,0.651642,0.567444
553,5.53,-0.668212,-0.4178979999999999,2.8040689999999997,-0.20553600000000002,0.524872,0.701675
554,5.54,-1.191965,-1.205094,3.679119,-0.326965,0.5099640000000001,0.826309
555,5.55,-1.9502700000000002,-1.569005,4.166905,-0.371704,0.517426,0.8987430000000001
556,5.56,-2.454255,-1.391046,3.954679,-0.32164,0.517426,0.9828950000000001
557,5.57,-1.745557,-1.107,3.4543589999999997,-0.183151,0.518478,1.046814
558,5.58,-0.5255029999999999,-0.835525,2.653119,-0.02656599999999999,0.49185200000000007,1.0414889999999999
559,5.59,0.5138050000000001,-0.279562,1.895591,0.061859000000000004,0.432205,0.9765010000000001
560,5.6,1.191289,0.226846,1.581212,0.048004000000000005,0.41195699999999996,0.83696
561,5.61,1.744,0.832867,1.595439,-0.026566000000000003,0.431137,0.627106
562,5.62,2.189508,1.522501,1.564168,-0.103256,0.45137,0.36930799999999997
563,5.63,2.612743,2.053363,1.6940819999999999,-0.14161700000000002,0.45030200000000004,0.096603
564,5.64,3.0026,2.277574,1.887075,-0.144806,0.453506,-0.162262
565,5.65,3.249789,1.9822240000000002,2.073155,-0.132019,0.47267200000000004,-0.376373
566,5.66,2.947788,1.27294,1.927501,-0.10006699999999999,0.487595,-0.5404359999999999
567,5.67,2.13658,0.43882899999999997,1.530557,-0.07130399999999999,0.466293,-0.639496
568,5.68,1.058297,-0.359636,1.0102659999999999,-0.040405,0.405563,-0.685303
569,5.69,-0.22499300000000005,-1.1586940000000001,0.517061,0.0054020000000000006,0.317154,-0.678909
570,5.7,-1.3254290000000002,-1.826227,0.03540999999999997,0.060791,0.21595799999999998,-0.635239
571,5.71,-2.189498,-2.48862,-0.37738499999999997,0.11299100000000001,0.101974,-0.5702510000000001
572,5.72,-2.689885,-3.077029,-0.5955560000000001,0.153473,0.0039669999999999974,-0.502075
573,5.73,-2.924991,-3.4128089999999998,-0.699326,0.172638,-0.049301,-0.44455
574,5.74,-2.870604,-3.503027,-0.6620510000000001,0.170517,-0.051437000000000004,-0.40408299999999997
575,5.75,-2.658432,-3.264532,-0.844199,0.156662,-0.020538,-0.374252
576,5.76,-2.341734,-2.861607,-1.0860370000000001,0.11617999999999999,0.019943000000000002,-0.35827600000000004
577,5.77,-1.859518,-2.40083,-1.361438,0.06504800000000001,0.042312999999999996,-0.351883
578,5.78,-1.351429,-2.012485,-1.5533620000000001,0.003264999999999997,0.03273,-0.34761
579,5.79,-0.811265,-1.677302,-1.655678,-0.046799,-0.00563,-0.33056599999999997
580,5.8,-0.230823,-1.379923,-1.6606470000000002,-0.077698,-0.078064,-0.298615
581,5.81,0.196187,-1.102019,-1.6885720000000002,-0.08728,-0.171799,-0.257065
582,5.82,0.49526800000000004,-0.8820709999999999,-1.646755,-0.081955,-0.290054,-0.208069
583,5.83,0.8462860000000001,-0.6338050000000001,-1.59585,-0.038284,-0.40936300000000003,-0.161194
584,5.84,1.042513,-0.36875399999999997,-1.474466,0.053328999999999994,-0.520142,-0.11112999999999999
585,5.85,1.191801,-0.31152199999999997,-1.364586,0.176895,-0.624542,-0.068512
586,5.86,1.3146360000000001,-0.459826,-1.34625,0.295151,-0.7332,-0.032303
587,5.87,1.408046,-0.802488,-1.351067,0.378235,-0.843994,-0.015259
588,5.88,1.382447,-1.170397,-1.386151,0.404861,-0.939865,-0.029099
589,5.89,1.304946,-1.456859,-1.352425,0.36972,-0.9995120000000001,-0.06318700000000001
590,5.9,1.2068510000000001,-1.4225649999999999,-1.4216360000000001,0.281296,-0.994186,-0.106873
591,5.91,0.756482,-0.965256,-1.4450450000000001,0.177963,-0.9483799999999999,-0.138824
592,5.92,0.11656400000000001,0.07317799999999998,-1.533505,0.109787,-0.855713,-0.168655
593,5.93,-0.683702,1.371582,-1.6496259999999998,0.09062200000000001,-0.7374569999999999,-0.201675
594,5.94,-1.384723,2.482481,-1.810298,0.10766600000000001,-0.6149600000000001,-0.243225
595,5.95,-1.810993,3.066957,-1.782454,0.136429,-0.516953,-0.28157
596,5.96,-1.803781,3.3043660000000004,-1.671504,0.170517,-0.42215,-0.298615
597,5.97,-1.4598719999999998,3.356361,-1.7077229999999999,0.20565799999999998,-0.323074,-0.289032
598,5.98,-1.1380430000000001,3.334459,-1.707442,0.24295,-0.24531599999999998,-0.261337
599,5.99,-0.5822649999999999,3.308355,-1.535185,0.257858,-0.20483400000000002,-0.26345799999999997
600,6.0,0.15620999999999996,3.1473970000000002,-0.973526,0.159851,-0.208023,-0.31033299999999997
601,6.01,-0.07614599999999999,3.010211,0.21641799999999997,-0.005264000000000005,-0.23465,-0.350815
602,6.02,-0.32477399999999995,2.994264,1.5470129999999995,-0.111786,-0.184586,-0.41046099999999996
603,6.03,-0.23246,2.718107,2.82409,-0.152267,-0.071671,-0.507401
604,6.04,0.20023,2.13813,3.908943,-0.18103,0.041245,-0.63205
605,6.05,0.375386,1.515849,4.577065,-0.208725,0.073212,-0.768402
606,6.06,0.704282,1.045598,4.858224,-0.199142,0.008224000000000002,-0.917542
607,6.07,1.644194,0.565238,4.9979059999999995,-0.135223,-0.07380700000000001,-1.040039
608,6.08,1.014998,-0.3160259999999999,4.590726999999999,0.02456699999999999,-0.164352,-1.126328
609,6.09,0.16705699999999998,-0.881907,3.988516,0.220581,-0.195236,-1.10289
610,6.1,-0.680703,-1.193577,3.341729,0.39314299999999996,-0.228271,-0.986771
611,6.11,-1.3511819999999999,-1.151094,2.54279,0.483704,-0.312424,-0.820602
612,6.12,-1.7503400000000002,-0.835492,1.7655450000000001,0.46984899999999996,-0.424271,-0.608612
613,6.13,-2.088127,-0.274588,1.15536,0.37397800000000003,-0.49777200000000005,-0.382767
614,6.14,-2.574735,0.3867,0.773953,0.233368,-0.502045,-0.18144200000000002
615,6.15,-3.323486,0.721827,0.818775,0.078903,-0.414688,-0.006728999999999999
616,6.16,-4.154877,0.8302799999999999,0.9842540000000001,-0.045745999999999995,-0.267685,0.15199300000000002
617,6.17,-4.3993199999999995,0.687064,1.195531,-0.125641,-0.116409,0.297928
618,6.18,-3.4828879999999995,0.404513,1.49461,-0.166107,0.0039669999999999974,0.41511499999999996
619,6.19,-2.323633,0.03246200000000002,1.635956,-0.152267,0.097702,0.491806
620,6.2,-1.100444,-0.383814,1.60723,-0.08728,0.170151,0.567444
621,6.21,0.2728780000000001,-0.802709,1.458351,0.003264999999999997,0.234055,0.6302949999999999
622,6.22,1.400506,-1.346334,1.071891,0.09274299999999999,0.30862399999999995,0.656921
623,6.23,2.178745,-2.205486,0.49784300000000004,0.141754,0.364029,0.645203
624,6.24,2.728466,-3.052991,-0.1963169999999999,0.131088,0.36189299999999996,0.617508
625,6.25,2.931157,-3.6941089999999996,-0.747663,0.079956,0.303299,0.577026
626,6.26,2.9462040000000003,-3.9307870000000005,-1.074829,-0.0009919999999999998,0.22554000000000002,0.5418850000000001
627,6.27,2.816666,-3.780154,-1.043215,-0.09687799999999999,0.139252,0.5152439999999999
628,6.28,2.646922,-3.3064339999999994,-0.8886629999999999,-0.198074,0.074265,0.488617
629,6.29,2.231433,-2.741717,-0.754445,-0.28862,0.045502,0.454529
630,6.3,1.6280729999999999,-2.199221,-0.637373,-0.36425799999999997,0.054030999999999996,0.41723599999999994
631,6.31,0.9809450000000001,-1.71193,-0.635758,-0.421783,0.109421,0.378891
632,6.32,0.355096,-1.4381959999999998,-0.713869,-0.46438599999999997,0.196777,0.32456999999999997
633,6.33,-0.29869,-1.249215,-0.7789659999999999,-0.49101300000000003,0.311829,0.26597600000000005
634,6.34,-0.886863,-1.03226,-0.757265,-0.47929399999999994,0.432205,0.220169
635,6.35,-1.311582,-0.773871,-0.801012,-0.405792,0.5440520000000001,0.183945
636,6.36,-1.3837,-0.46933,-0.890244,-0.26411399999999996,0.623947,0.163712
637,6.37,-1.2271530000000002,-0.224606,-0.937053,-0.08728,0.6740109999999999,0.162643
638,6.38,-0.8716370000000001,0.045196,-1.015683,0.085281,0.69426,0.167969
639,6.39,-0.41017,0.118075,-1.074569,0.22164899999999998,0.697449,0.176498
640,6.4,0.090446,0.013945,-1.133753,0.301544,0.691055,0.18927
641,6.41,0.54462,-0.268336,-1.189945,0.333496,0.687866,0.186081
642,6.42,0.779786,-0.500051,-1.23511,0.30687,0.6835939999999999,0.162643
643,6.43,0.897408,-0.44533,-1.480676,0.24295,0.6835939999999999,0.126419
644,6.44,0.9301510000000001,-0.125882,-1.8314080000000001,0.192886,0.668686,0.108322
645,6.45,0.8408260000000001,0.7416739999999999,-2.314191,0.163055,0.625015,0.128555
646,6.46,0.783737,1.800772,-2.7890040000000003,0.142807,0.5579069999999999,0.191406
647,6.47,0.8452770000000001,2.506167,-2.892933,0.12470999999999999,0.476944,0.257446
648,6.48,0.902033,2.810398,-2.74078,0.109787,0.41088900000000006,0.292603
649,6.49,0.585878,2.958161,-2.524666,0.09699999999999999,0.36189299999999996,0.303253
650,6.5,-0.10513800000000006,3.0251330000000003,-2.3473580000000003,0.086349,0.373611,0.297928
651,6.51,-0.7961929999999999,2.983915,-2.211598,0.087418,0.45562700000000006,0.276627
652,6.52,-0.913911,2.6165279999999997,-1.825655,0.09487899999999999,0.524872,0.247864
653,6.53,-0.9768979999999999,1.8997169999999999,-0.990333,0.051193,0.540863,0.24572800000000003
654,6.54,-1.0029,1.43133,0.174742,-0.126694,0.562164,0.311783
655,6.55,-0.369016,0.9655040000000001,1.56686,-0.277969,0.540863,0.421509
656,6.56,0.286656,0.15467399999999998,2.786987,-0.289688,0.464157,0.547211
657,6.57,0.342058,-0.727633,3.708493,-0.286484,0.342712,0.665451
658,6.58,-0.721773,-1.324885,4.3504879999999995,-0.349335,0.24684099999999998,0.781555
659,6.59,-1.782054,-1.3021,4.581708,-0.40260300000000004,0.228729,0.907257
660,6.6,-2.225069,-0.943441,4.5321050000000005,-0.334427,0.188248,1.002075
661,6.61,-2.488203,-7.900000000005125e-05,4.081558,-0.195938,0.114746,1.121384
662,6.62,-1.6563720000000002,1.09391,3.683121,-0.02124,0.101974,1.2129969999999999
663,6.63,-0.494745,1.7098659999999999,3.3549279999999997,0.13536099999999998,0.12646500000000002,1.2023469999999998
664,6.64,0.420175,1.994086,3.130445,0.189682,0.176529,1.076645
665,6.65,0.864088,2.386266,2.976844,0.20565799999999998,0.243652,0.8380280000000001
666,6.66,1.424339,2.6302119999999998,2.8080950000000002,0.233368,0.35549899999999995,0.529099
667,6.67,2.1937290000000003,2.672271,2.439666,0.268509,0.486526,0.21270799999999998
668,6.68,2.8930439999999997,2.505738,2.0981259999999997,0.300476,0.57814,-0.080231
669,6.69,3.629226,2.265678,1.7543520000000001,0.297272,0.60051,-0.334839
670,6.7,3.840731,1.752086,1.453058,0.26532,0.550446,-0.523392
671,6.71,3.3183620000000005,0.8898959999999999,1.211224,0.22697399999999998,0.462021,-0.627777
672,6.72,2.3076939999999997,-0.002707000000000015,0.8670399999999999,0.203537,0.37040700000000004,-0.659744
673,6.73,0.9598,-0.7150529999999999,0.355056,0.193939,0.272415,-0.655472
674,6.74,-0.337575,-1.4070120000000002,-0.30694499999999997,0.185425,0.145645,-0.625656
675,6.75,-1.5012219999999998,-1.964332,-0.704266,0.16731300000000002,0.002898999999999999,-0.589432
676,6.76,-2.423779,-2.715866,-0.859247,0.133224,-0.12387100000000001,-0.555344
677,6.77,-3.062569,-3.3616900000000003,-0.759115,0.084229,-0.214417,-0.528717
678,6.78,-3.4166790000000002,-3.8345089999999997,-0.5354399999999999,0.028824000000000002,-0.23571799999999998,-0.507401
679,6.79,-3.3664980000000004,-3.9753800000000004,-0.38108000000000003,-0.022308,-0.210159,-0.491425
680,6.8,-2.964867,-3.762023,-0.40055,-0.070236,-0.155823,-0.476517
681,6.81,-2.457565,-3.3476980000000003,-0.616071,-0.108597,-0.088715,-0.47119099999999997
682,6.82,-1.8984029999999998,-2.9438619999999998,-0.855352,-0.145874,-0.045044,-0.460541
683,6.83,-1.40611,-2.538024,-1.1012520000000001,-0.176773,-0.038651,-0.45094300000000004
684,6.84,-0.8952209999999999,-2.187551,-1.273684,-0.20553600000000002,-0.057816,-0.42112700000000003
685,6.85,-0.4177,-1.966914,-1.3251600000000001,-0.233231,-0.11322,-0.36999499999999996
686,6.86,0.014896999999999994,-1.8592330000000001,-1.41476,-0.251328,-0.211227,-0.301819
687,6.87,0.450525,-1.6503729999999999,-1.4334639999999998,-0.261993,-0.336929,-0.219788
688,6.88,0.804917,-1.365459,-1.289294,-0.241745,-0.471146,-0.13456700000000002
689,6.89,0.975561,-0.9164770000000001,-1.022476,-0.16185,-0.570221,-0.061065999999999995
690,6.9,1.058707,-0.5340550000000001,-0.6893819999999999,-0.025496999999999992,-0.63945,-0.0035400000000000006
691,6.91,0.963791,-0.314713,-0.511618,0.13961800000000002,-0.685257,0.030548000000000002
692,6.92,0.6869569999999999,-0.257865,-0.46847700000000003,0.277039,-0.720413,0.040146
693,6.93,0.357669,-0.4794040000000001,-0.6694939999999999,0.346283,-0.744919,0.026291000000000002
694,6.94,0.09140700000000003,-0.8301209999999999,-0.931702,0.348404,-0.775818,-0.002472
695,6.95,0.032074,-1.118376,-1.242018,0.291946,-0.788589,-0.016327
696,6.96,0.105343,-1.07151,-1.478304,0.210983,-0.776871,-0.014191
697,6.97,0.027413999999999997,-0.329701,-1.61956,0.14068599999999998,-0.735336,-0.021652
698,6.98,-0.22925,0.800154,-1.6564349999999999,0.103394,-0.6564939999999999,-0.067459
699,6.99,-0.456808,1.714533,-1.6232959999999999,0.08316,-0.58194,-0.132431
700,7.0,-0.778313,2.427681,-1.607913,0.081024,-0.513763,-0.19528199999999998
701,7.01,-0.904134,2.791268,-1.618817,0.086349,-0.415756,-0.224045
702,7.02,-0.8205290000000001,2.941843,-1.782773,0.102341,-0.304962,-0.20060699999999998
703,7.03,-0.616753,2.892267,-2.095623,0.141754,-0.21867399999999998,-0.14840699999999998
704,7.04,-0.316535,2.648324,-2.400851,0.18649300000000002,-0.210159,-0.084503
705,7.05,-0.310787,2.3361240000000003,-2.47503,0.215256,-0.279404,-0.039749
706,7.06,-0.405905,2.130455,-1.9185560000000002,0.20993,-0.353973,-0.03656
707,7.07,-0.09629,1.876484,-0.8641260000000001,0.09806799999999999,-0.39018200000000003,-0.085556
708,7.08,-0.067118,2.075656,0.4913839999999999,-0.069168,-0.426407,-0.162262
709,7.09,-0.281825,2.1665419999999997,1.9873779999999999,-0.168243,-0.384857,-0.279434
710,7.1,-0.22082600000000002,1.5255239999999999,3.8871339999999996,-0.187424,-0.137711,-0.513794
711,7.11,-0.187883,0.87254,4.7123550000000005,-0.220444,0.015686000000000002,-0.684235
712,7.12,0.23221100000000006,0.671121,5.2076709999999995,-0.28862,0.08065800000000001,-0.916473
713,7.13,0.74884,0.372983,5.4107449999999995,-0.275833,0.074265,-1.159348
714,7.14,-0.7040270000000001,-0.051347,4.923533,-0.06279000000000001,0.01355,-1.335114
715,7.15,-2.236927,0.032923,3.9822290000000002,0.23016399999999998,0.06149299999999999,-1.3148799999999998
716,7.16,-2.977855,-0.056108000000000005,3.259759,0.44534300000000004,0.16375699999999999,-1.134842
717,7.17,-2.991198,-0.164253,2.70807,0.547607,0.141388,-0.8749239999999999
718,7.18,-2.750652,-0.19029000000000001,2.164591,0.533768,0.036987,-0.5713199999999999
719,7.19,-2.941422,0.2852259999999999,1.751887,0.44641099999999995,-0.06102000000000001,-0.279434
720,7.2,-3.550936,1.026894,1.249272,0.332428,-0.066345,-0.031235000000000002
721,7.21,-4.386003,1.659704,0.830076,0.220581,0.017807000000000003,0.176498
722,7.22,-5.076288,1.772398,0.83772,0.109787,0.181854,0.360779
723,7.23,-4.981047,1.395214,1.0996860000000002,0.017104999999999995,0.41195699999999996,0.514175
724,7.24,-3.809078,0.77874,1.4683540000000002,-0.028702,0.631409,0.61644
725,7.25,-2.505819,0.13736499999999996,1.76216,-0.016983,0.8125,0.678238
726,7.26,0.07914800000000022,0.190253,1.586496,0.049072000000000005,0.925415,0.709122
727,7.27,1.712994,0.0061180000000000114,1.218885,0.137482,0.9488530000000001,0.667572
728,7.28,2.799662,-0.696146,0.783101,0.22164899999999998,1.006378,0.619644
729,7.29,3.519387,-2.066757,0.269397,0.245071,1.080948,0.575974
730,7.3,3.0285860000000002,-3.903371,0.013110999999999998,0.208862,1.14592,0.580231
731,7.31,2.061438,-4.939853,-0.133199,0.13003499999999998,1.215164,0.599396
732,7.32,1.673471,-5.161999,-0.393839,0.01178,1.233276,0.606857
733,7.33,1.6823560000000002,-4.725786,-0.560979,-0.101135,1.138474,0.610062
734,7.34,1.744348,-3.817614,-0.738682,-0.183151,0.988266,0.606857
735,7.35,1.542661,-2.683216,-0.8322,-0.26518200000000003,0.8625639999999999,0.566376
736,7.36,0.9713629999999999,-1.6455110000000002,-0.808315,-0.369583,0.8519129999999999,0.49713100000000005
737,7.37,0.2934300000000001,-1.079106,-0.49642200000000003,-0.498474,0.9541780000000001,0.42363
738,7.38,-0.249198,-0.603599,-0.21161799999999997,-0.58902,1.12355,0.35226399999999997
739,7.39,-0.463355,-0.17097800000000002,0.025451000000000012,-0.603943,1.274826,0.284088
740,7.4,-0.633415,0.265378,0.188779,-0.42923,1.385605,0.20951799999999998
741,7.41,-0.770841,0.35252100000000003,0.189475,-0.21830700000000003,1.393066,0.18927
742,7.42,-0.854182,0.24896,0.11099000000000002,-0.010590000000000002,1.37709,0.1978
743,7.43,-0.7346239999999999,0.038666000000000006,-0.04433599999999998,0.146011,1.3451229999999998,0.21270799999999998
744,7.44,-0.315668,-0.270124,-0.307575,0.23123200000000002,1.296127,0.231888
745,7.45,0.15654200000000001,-0.534147,-0.529613,0.24720799999999998,1.246063,0.247864
746,7.46,0.454492,-0.8230149999999999,-0.734295,0.228027,1.19812,0.235077
747,7.47,0.597533,-1.0634299999999999,-1.0455290000000002,0.179031,1.138474,0.215912
748,7.48,0.780417,-0.8037850000000001,-1.3607049999999998,0.123642,1.069229,0.21698
749,7.49,0.7680520000000001,-0.13509900000000002,-1.700967,0.087418,1.031937,0.242538
750,7.5,0.585901,0.517103,-2.011882,0.082092,1.004242,0.294739
751,7.51,0.17438,0.8433129999999999,-2.078854,0.091675,0.969086,0.340546
752,7.52,-0.256135,1.032162,-2.0360869999999998,0.086349,0.962708,0.373566
753,7.53,-0.617267,1.107316,-2.01422,0.061859000000000004,0.990402,0.385284
754,7.54,-0.9169799999999999,1.014182,-1.9996619999999998,0.023499000000000003,1.033005,0.375702
755,7.55,-1.165662,0.8511549999999999,-1.9656740000000001,-0.0009919999999999998,1.0937350000000001,0.36930799999999997
756,7.56,-1.445649,0.7205020000000001,-1.916321,-0.020172,1.181076,0.367172
757,7.57,-1.480905,0.544982,-1.694993,-0.040405,1.281219,0.359711
758,7.58,-1.425349,0.391276,-1.306851,-0.09367400000000001,1.371765,0.354385
759,7.59,-1.414341,0.41079499999999997,-0.760792,-0.174637,1.428223,0.360779
760,7.6,-1.599867,0.583607,0.18082999999999996,-0.263046,1.4580540000000002,0.392746
761,7.61,-1.764666,0.9955649999999999,1.29911,-0.341888,1.445267,0.451324
762,7.62,-2.278727,1.530378,2.466098,-0.42923,1.397324,0.5504
763,7.63,-2.509321,2.108099,3.863694,-0.503799,1.293991,0.7250979999999999
764,7.64,-3.501042,2.379322,4.828612000000001,-0.5655819999999999,1.187469,0.981827
765,7.65,-3.65409,2.367868,5.72122,-0.563461,1.178955,1.3035430000000001
766,7.66,-3.275845,1.8466599999999997,5.8693919999999995,-0.378098,1.25885,1.497421
767,7.67,-3.563187,1.1019299999999999,5.343989,-0.06279000000000001,1.318497,1.527252
768,7.68,-3.967478,0.191032,4.628762999999999,0.244019,1.385605,1.421783
769,7.69,-4.0090699999999995,-0.5751970000000001,4.147684,0.45387299999999997,1.5251620000000001,1.2268370000000002
770,7.7,-3.132873,-0.910007,3.544855,0.5572050000000001,1.740341,0.991425
771,7.71,-1.596329,-0.551045,2.4854849999999997,0.562531,1.921432,0.74321
772,7.72,-0.01746800000000004,0.12568900000000002,1.272867,0.465591,2.025833,0.503525
773,7.73,2.607923,1.520975,0.06300100000000003,0.101273,1.895874,0.118973
774,7.74,4.160888,2.07112,0.08329800000000001,-0.081955,1.683884,-0.044022000000000006
775,7.75,4.24599,1.772275,1.056919,-0.178894,1.4718930000000001,-0.150543
776,7.76,4.519801,1.735659,1.49227,-0.221512,1.367508,-0.26345799999999997
777,7.77,2.760329,0.3838130000000001,1.472189,-0.083023,1.312103,-0.42112700000000003
778,7.78,1.7611830000000002,0.04439400000000002,0.591095,0.008591000000000001,1.253525,-0.486099
779,7.79,0.195554,-0.605256,-0.08518299999999998,0.088486,1.1416629999999999,-0.5404359999999999
780,7.8,-1.356701,-1.333005,-0.563487,0.160919,1.00531,-0.554276
781,7.81,-2.593356,-1.8991220000000002,-0.926651,0.20565799999999998,0.873215,-0.5393680000000001
782,7.82,-3.3964440000000002,-2.368387,-1.0862370000000001,0.21311999999999998,0.781601,-0.494629
783,7.83,-3.577657,-2.726762,-1.189777,0.18649300000000002,0.756042,-0.43603500000000006
784,7.84,-3.382908,-2.94732,-1.295923,0.143875,0.77095,-0.372116
785,7.85,-2.820361,-2.976649,-1.55208,0.084229,0.80397,-0.317795
786,7.86,-2.1372299999999997,-2.746427,-1.788819,0.007523000000000002,0.832733,-0.286896
787,7.87,-1.574559,-2.398902,-1.957584,-0.079834,0.815689,-0.273056
788,7.88,-1.0199209999999999,-2.034336,-1.950248,-0.158661,0.7603,-0.269852
789,7.89,-0.561397,-1.59841,-1.8158459999999998,-0.221512,0.6867979999999999,-0.26026900000000003
790,7.9,-0.19012200000000004,-1.27916,-1.6373389999999999,-0.268372,0.629272,-0.246414
791,7.91,0.13160900000000006,-0.994699,-1.4679799999999998,-0.296082,0.57814,-0.21553000000000003
792,7.92,0.282014,-0.8490790000000001,-1.389424,-0.303528,0.529144,-0.165451
793,7.93,0.33014,-0.781924,-1.435986,-0.28862,0.470551,-0.104736
794,7.94,0.184896,-0.7325649999999999,-1.496751,-0.24706999999999998,0.405563,-0.044022000000000006
795,7.95,-0.052206000000000016,-0.689922,-1.53805,-0.187424,0.343781,0.010314999999999998
796,7.96,-0.27487,-0.651399,-1.531333,-0.11071800000000001,0.272415,0.049727999999999994
797,7.97,-0.444679,-0.572299,-1.55158,-0.032958999999999995,0.198914,0.07423400000000001
798,7.98,-0.406358,-0.4812,-1.4934379999999998,0.020309,0.13711500000000001,0.089142
799,7.99,-0.227086,-0.4129,-1.481571,0.046936,0.08065800000000001,0.10405
800,8.0,-0.030991000000000005,-0.32800999999999997,-1.434135,0.043747,0.055099,0.125366
801,8.01,0.114545,-0.283053,-1.279225,0.019241,0.07746900000000001,0.133881
802,8.02,0.321848,-0.17191800000000002,-1.208849,-0.013779,0.122208,0.141342
803,8.03,0.414891,0.011768,-1.182217,-0.041473,0.144577,0.155182
804,8.04,0.407469,0.487422,-1.221107,-0.051071,0.155228,0.16583299999999998
805,8.05,0.158022,1.207911,-1.333747,-0.038284,0.16375699999999999,0.158386
806,8.06,-0.127256,1.847825,-1.5259340000000001,-0.005263999999999998,0.16375699999999999,0.130692
807,8.07,-0.35867899999999997,2.406521,-1.8057400000000001,0.036285000000000005,0.147766,0.102997
808,8.08,-0.387506,2.674639,-1.95826,0.068237,0.12646500000000002,0.07423400000000001
809,8.09,-0.406104,2.737333,-1.9550169999999998,0.09274299999999999,0.11581400000000001,0.046524
810,8.1,-0.42598800000000003,2.777289,-1.6932490000000002,0.114044,0.110489,-0.0035399999999999976
811,8.11,-0.343686,2.9891900000000002,-1.25536,0.13855,0.11155699999999999,-0.086624
812,8.12,-0.137251,3.0088049999999997,-0.864425,0.14494300000000002,0.062546,-0.203812
813,8.13,-0.22634200000000002,2.455875,-0.12553800000000004,0.131088,-0.042908,-0.30714400000000003
814,8.14,-0.477522,1.689372,0.97326,0.123642,-0.040770999999999995,-0.380646
815,8.15,-0.643216,1.038513,1.975057,0.086349,0.074265,-0.49888599999999994
816,8.16,-0.42590900000000004,0.39162399999999997,2.491287,-0.01803600000000001,0.177597,-0.666138
817,8.17,-0.539387,-0.384422,2.464789,-0.11392200000000001,0.16908299999999998,-0.8280489999999999
818,8.18,-0.93747,-1.1671610000000001,2.326563,-0.098999,0.123276,-0.9292450000000001
819,8.19,-1.588539,-1.634044,2.25661,-0.0009919999999999998,0.129669,-0.9431
820,8.2,-2.212339,-1.414194,1.9738209999999998,0.12150599999999999,0.204239,-0.883438
821,8.21,-2.5834099999999998,-0.754872,1.491606,0.20033299999999998,0.283066,-0.772659
822,8.22,-2.863059,0.010257000000000016,1.165922,0.201401,0.31501799999999996,-0.63205
823,8.23,-3.3167190000000004,0.9806889999999999,0.95565,0.14813199999999999,0.33206199999999997,-0.47544899999999995
824,8.24,-3.917435,2.0944380000000002,0.847692,0.06930499999999999,0.401306,-0.286896
825,8.25,-4.465521,2.939088,0.80892,0.0011290000000000015,0.530197,-0.07811
826,8.26,-4.879827,3.130666,0.866284,-0.051071000000000005,0.687866,0.14666700000000002
827,8.27,-5.044944999999999,2.612193,1.132372,-0.09687799999999999,0.849777,0.359711
828,8.28,-4.372953,1.688959,1.473574,-0.119247,0.9925229999999999,0.553589
829,8.29,-3.096155,0.799739,1.667089,-0.104324,1.072418,0.694214
830,8.3,-1.700464,-0.061698000000000024,1.6997959999999999,-0.051071,1.106506,0.774109
831,8.31,-0.27009700000000003,-0.782515,1.362005,0.016051999999999997,1.128876,0.812454
832,8.32,1.201902,-1.573965,0.803723,0.044815,1.143799,0.808197
833,8.33,2.2688610000000002,-2.396137,0.20236099999999999,0.014984000000000003,1.189606,0.76239
834,8.34,2.7903,-3.2886330000000004,-0.285351,-0.06704700000000001,1.2662959999999999,0.693146
835,8.35,2.723974,-3.93614,-0.48265,-0.186356,1.338745,0.626038
836,8.36,2.356292,-4.138942,-0.543338,-0.299271,1.3664399999999999,0.578094
837,8.37,1.7997319999999999,-3.834024,-0.7162470000000001,-0.38449099999999997,1.352585,0.5525359999999999
838,8.38,0.992402,-3.1556439999999997,-1.0502719999999999,-0.45799300000000004,1.30571,0.522705
839,8.39,0.072963,-2.163859,-1.2128219999999998,-0.532562,1.259903,0.490738
840,8.4,-0.711904,-1.2846600000000001,-1.226877,-0.606064,1.237534,0.457718
841,8.41,-1.124881,-0.569505,-1.033574,-0.643356,1.275894,0.437485
842,8.42,-1.1205450000000001,-0.07313700000000001,-0.8359719999999999,-0.640152,1.343002,0.42895500000000003
843,8.43,-0.812707,0.275537,-0.686295,-0.597549,1.4069209999999999,0.435349
844,8.44,-0.344548,0.42162,-0.623259,-0.51445,1.434616,0.437485
845,8.45,-0.012904999999999972,0.452138,-0.555948,-0.40473899999999996,1.4250180000000001,0.436417
846,8.46,0.284339,0.37632600000000005,-0.513501,-0.26944,1.395203,0.437485
847,8.47,0.5805899999999999,0.214352,-0.532155,-0.12243700000000003,1.352585,0.433228
848,8.48,0.781479,-0.029522000000000007,-0.643835,0.023499000000000003,1.299332,0.41937299999999994
849,8.49,0.995607,-0.39668400000000004,-0.8336879999999999,0.153473,1.232208,0.405518
850,8.5,1.1032110000000002,-0.748219,-1.113162,0.252533,1.144867,0.39913899999999997
851,8.51,1.078228,-1.008458,-1.409137,0.291946,1.053253,0.398071
852,8.52,0.9971530000000001,-1.117537,-1.6774220000000002,0.255737,0.964828,0.394867
853,8.53,0.777753,-1.001519,-1.822874,0.18649300000000002,0.890259,0.388474
854,8.54,0.39816599999999996,-0.543447,-1.938795,0.127899,0.8614959999999999,0.374634
855,8.55,-0.11326799999999998,0.079623,-1.9582580000000003,0.100204,0.8604280000000001,0.346939
856,8.56,-0.5861930000000001,0.671825,-1.8751189999999998,0.109787,0.894531,0.318176
857,8.57,-1.061128,1.089965,-1.8397430000000001,0.137482,0.968033,0.29580700000000004
858,8.58,-1.466038,1.373494,-1.857202,0.153473,1.052185,0.287277
859,8.59,-1.756589,1.613939,-1.90592,0.151337,1.128876,0.286209
860,8.6,-1.821723,1.9935990000000001,-2.117311,0.153473,1.190674,0.290482
861,8.61,-1.480703,2.406691,-2.323595,0.176895,1.2173,0.28941300000000003
862,8.62,-0.92405,2.5773669999999997,-2.359097,0.20672600000000002,1.210907,0.27449
863,8.63,-0.33851099999999995,2.590198,-2.01784,0.222702,1.180008,0.264908
864,8.64,0.26597,2.673238,-1.620185,0.198212,1.137405,0.26384
865,8.65,0.684693,2.8209470000000003,-1.074406,0.136429,1.083069,0.291534
866,8.66,0.674053,2.9599189999999997,-0.501264,0.086349,1.014893,0.341614
867,8.67,0.435692,2.787616,0.07390199999999998,0.057587,0.910507,0.41723599999999994
868,8.68,-0.168051,2.335675,0.674743,0.046936,0.782669,0.506729
869,8.69,-0.8675200000000001,1.709487,1.416687,0.037354000000000005,0.6835939999999999,0.620712
870,8.7,-1.320362,0.997519,2.060395,0.028824000000000002,0.609039,0.7304229999999999
871,8.71,-2.25549,0.344629,2.632709,-0.026566000000000003,0.61116,0.8422850000000001
872,8.72,-2.516521,-0.306208,3.098783,-0.07662999999999999,0.741119,0.939224
873,8.73,-2.617362,-1.017674,3.312918,-0.023361,0.906235,0.948807
874,8.74,-2.795429,-1.7248720000000002,3.208581,0.10766600000000001,1.035141,0.8955540000000001
875,8.75,-2.642234,-2.1794279999999997,2.6161,0.237625,1.116104,0.8049930000000001
876,8.76,-1.589216,-2.02126,1.701468,0.295151,1.140594,0.686752
877,8.77,-0.304492,-1.465911,0.7429299999999999,0.225906,1.113968,0.5418850000000001
878,8.78,0.824606,-0.607577,0.22957800000000003,0.077835,1.040466,0.385284
879,8.79,1.7823189999999998,0.469066,0.25402199999999997,-0.084091,0.942459,0.220169
880,8.8,2.5232189999999997,1.4156959999999998,0.760393,-0.197006,0.859375,0.049728
881,8.81,3.140544,1.9300080000000002,1.4227,-0.238556,0.8114319999999999,-0.100479
882,8.82,3.478303,2.182864,1.809239,-0.208725,0.7634890000000001,-0.224045
883,8.83,3.3453699999999995,2.017184,1.7043419999999998,-0.12883,0.731537,-0.325241
884,8.84,2.555952,1.411601,1.278565,-0.030823,0.701706,-0.41046099999999996
885,8.85,1.3716059999999999,0.75042,0.628598,0.058655,0.676147,-0.48503100000000005
886,8.86,-0.19319399999999987,-0.13152199999999994,0.051750999999999985,0.10766600000000001,0.648453,-0.5383
887,8.87,-1.623821,-0.968087,-0.48649899999999996,0.134293,0.622879,-0.554276
888,8.88,-2.811502,-1.8482330000000002,-0.827783,0.13961800000000002,0.597321,-0.534042
889,8.89,-3.474399,-2.564923,-0.981483,0.143875,0.5930479999999999,-0.490356
890,8.9,-3.733032,-2.990613,-1.0482870000000002,0.146011,0.599442,-0.433899
891,8.91,-3.501674,-2.996454,-1.0541690000000001,0.13855,0.626083,-0.38169899999999995
892,8.92,-2.909966,-2.702769,-1.1204020000000001,0.110855,0.65271,-0.34016399999999997
893,8.93,-2.194725,-2.3126,-1.215317,0.06504800000000001,0.6835939999999999,-0.308197
894,8.94,-1.3727479999999999,-1.931254,-1.26885,0.009659,0.697449,-0.29435700000000004
895,8.95,-0.64537,-1.60158,-1.34004,-0.055327999999999995,0.677216,-0.296478
896,8.96,0.04577799999999999,-1.463343,-1.365996,-0.10965,0.634598,-0.30394
897,8.97,0.6030989999999999,-1.27209,-1.474077,-0.140549,0.5568390000000001,-0.31033299999999997
898,8.98,0.8995569999999999,-1.186617,-1.571413,-0.156525,0.45883199999999996,-0.31140100000000004
899,8.99,1.039242,-1.081417,-1.684691,-0.158661,0.358688,-0.301819
900,9.0,1.080755,-0.982298,-1.8487529999999999,-0.156525,0.25109899999999996,-0.28370700000000004
901,9.01,0.9844959999999999,-0.8971379999999999,-1.9641419999999998,-0.150131,0.138184,-0.26239
902,9.02,0.901964,-0.825615,-1.976707,-0.12350499999999999,0.011413999999999994,-0.241089
903,9.03,0.623394,-0.522265,-1.729977,-0.023361,-0.170746,-0.21232600000000001
904,9.04,0.477217,-0.289058,-1.535911,0.089554,-0.290054,-0.192093
905,9.05,0.359552,-0.185823,-1.422023,0.20565799999999998,-0.41362,-0.165451
906,9.06,0.3036,-0.11023699999999999,-1.4185510000000001,0.299408,-0.5371859999999999,-0.136688
907,9.07,0.446292,-0.13491,-1.472392,0.332428,-0.627747,-0.122849
908,9.08,0.5152260000000001,-0.130412,-1.627475,0.304733,-0.684204,-0.12391700000000001
909,9.09,0.507308,0.027307999999999985,-1.792888,0.25892600000000005,-0.695923,-0.12178
910,9.1,0.20897900000000005,0.438762,-2.01495,0.210983,-0.663956,-0.12391700000000001
911,9.11,-0.363804,1.052033,-2.24916,0.158798,-0.604309,-0.128174
912,9.12,-0.9838110000000001,1.982414,-2.347521,0.114044,-0.524414,-0.1548
913,9.13,-1.45691,2.641068,-2.518948,0.07357799999999999,-0.411484,-0.20488
914,9.14,-1.6460419999999998,2.9783720000000002,-2.681991,0.051193,-0.309219,-0.25387600000000005
915,9.15,-1.405528,2.8838619999999997,-2.66343,0.033096,-0.200562,-0.289032
916,9.16,-0.796391,2.70223,-2.6789099999999997,0.017105000000000002,-0.103622,-0.308197
917,9.17,-0.275775,2.621123,-2.499429,0.004333,-0.032257,-0.32311999999999996
918,9.18,0.18431900000000004,2.675046,-1.9133080000000002,-0.016983,0.012482000000000002,-0.36146500000000004
919,9.19,0.46858299999999997,2.665252,-1.2391860000000001,-0.065979,0.027405000000000002,-0.406204
920,9.2,0.312716,2.580895,-0.45569799999999994,-0.086212,-0.018402,-0.42431599999999997
921,9.21,-0.136757,2.1480669999999997,0.5211720000000001,-0.038284,-0.047165,-0.433899
922,9.22,-0.38884,1.422593,1.577297,-0.008453,-0.017349,-0.45201099999999994
923,9.23,-0.43361099999999997,0.535248,2.7326259999999998,-0.085159,0.031662,-0.503143
924,9.24,-0.380187,0.157356,3.6678949999999997,-0.242813,0.04657,-0.6181949999999999
925,9.25,0.315309,0.31346599999999997,4.215158,-0.38555900000000004,0.011414,-0.779053
926,9.26,0.093287,0.626365,4.309899,-0.351471,-0.072739,-0.942032
927,9.27,-0.449459,0.887993,4.206702,-0.13308699999999998,-0.07486,-1.004883
928,9.28,-0.9940129999999999,0.8545729999999999,3.9223879999999998,0.159851,0.045502,-0.9707950000000001
929,9.29,-1.365882,0.49001300000000003,3.4413300000000002,0.414459,0.125397,-0.881317
930,9.3,-1.563487,0.193743,2.9220200000000003,0.556137,0.114746,-0.740707
931,9.31,-1.7855849999999998,0.14176,2.3995490000000004,0.599808,0.093445,-0.556412
932,9.32,-2.007485,0.406097,1.7775419999999997,0.5987399999999999,0.112625,-0.34549
933,9.33,-2.618554,0.8415229999999999,1.049821,0.5582729999999999,0.16480999999999998,-0.132431
934,9.34,-3.4021529999999998,0.9470780000000001,0.56145,0.463455,0.256424,0.069962
935,9.35,-4.0686089999999995,0.643203,0.262251,0.328171,0.377869,0.24679600000000002
936,9.36,-4.212467,0.230863,0.247738,0.17157,0.487595,0.384216
937,9.37,-3.458193,-0.205783,0.465793,0.028824,0.5579069999999999,0.492874
938,9.38,-2.527006,-0.652501,0.87005,-0.060654,0.622879,0.573837
939,9.39,-1.39117,-0.9132450000000001,1.21128,-0.065979,0.682541,0.670776
940,9.4,-0.04925199999999996,-1.0574860000000001,1.2470620000000001,-0.0020599999999999998,0.716629,0.755997
941,9.41,1.256106,-1.462982,1.09812,0.07463099999999999,0.746445,0.812454
942,9.42,2.328824,-2.026207,0.632263,0.12150599999999999,0.7762760000000001,0.8220370000000001
943,9.43,3.1765790000000003,-2.626105,-0.02055200000000001,0.11192300000000001,0.7762760000000001,0.7954100000000001
944,9.44,3.750405,-3.173223,-0.627627,0.043747,0.734741,0.733627
945,9.45,3.808298,-3.5361550000000004,-0.995683,-0.070236,0.662292,0.651596
946,9.46,3.5120080000000002,-3.630378,-0.9807959999999999,-0.19487000000000002,0.579208,0.575974
947,9.47,3.123638,-3.504258,-0.854979,-0.29180900000000004,0.505707,0.50885
948,9.48,2.5777669999999997,-3.163518,-0.751051,-0.35893200000000003,0.436462,0.450272
949,9.49,2.0318669999999996,-2.7369790000000003,-0.761321,-0.400467,0.388519,0.397003
950,9.5,1.540567,-2.30182,-0.8312860000000001,-0.421783,0.36296100000000003,0.353333
951,9.51,1.1417030000000001,-1.8880000000000001,-1.000476,-0.43136599999999997,0.357635,0.303253
952,9.52,0.7932859999999999,-1.478413,-1.101067,-0.427109,0.36615,0.25106799999999996
953,9.53,0.5241640000000001,-1.058396,-1.0795190000000001,-0.403671,0.390656,0.199936
954,9.54,0.330764,-0.639423,-0.9997379999999999,-0.34081999999999996,0.427933,0.155182
955,9.55,0.365651,-0.210387,-0.9411879999999999,-0.230026,0.474808,0.12322999999999999
956,9.56,0.316814,-0.011744000000000004,-0.820674,-0.070236,0.5206149999999999,0.10192899999999999
957,9.57,0.285202,-0.044123,-0.996294,0.108719,0.55896,0.09765599999999999
958,9.58,0.21681399999999998,-0.262965,-1.219419,0.255737,0.569611,0.108322
959,9.59,0.312961,-0.579597,-1.519798,0.337753,0.540863,0.127487
960,9.6,0.47028000000000003,-0.939975,-1.594754,0.344147,0.498245,0.133881
961,9.61,0.581387,-1.070392,-1.571525,0.290878,0.47267200000000004,0.117905
962,9.62,0.473602,-1.0031219999999998,-1.54529,0.202469,0.487595,0.075287
963,9.63,0.255421,-0.500101,-1.6211010000000001,0.10553,0.533401,0.033752
964,9.64,0.06478700000000001,0.3091820000000001,-1.7643900000000001,0.051193,0.5909270000000001,0.01564
965,9.65,0.0010759999999999997,1.402908,-2.0889349999999998,0.034149,0.599442,0.041199
966,9.66,0.041298,2.350964,-2.301094,0.037354000000000005,0.535522,0.094467
967,9.67,0.13387000000000002,3.076691,-2.357334,0.03096,0.46096800000000004,0.143463
968,9.68,0.189382,3.4816849999999997,-2.2489209999999997,0.013916,0.419418,0.176498
969,9.69,0.057055,3.6353809999999998,-2.2385080000000004,0.019241,0.427933,0.200989
970,9.7,-0.156668,3.4567069999999998,-2.355359,0.056534,0.488663,0.20951799999999998
971,9.71,-0.24595100000000003,3.1356330000000003,-2.635767,0.114044,0.5919949999999999,0.211639
972,9.72,0.089336,2.6711009999999997,-2.5642970000000003,0.176895,0.669754,0.215912
973,9.73,0.110838,1.8944779999999999,-2.0529669999999998,0.176895,0.6867979999999999,0.23081999999999997
974,9.74,-0.185616,1.4397739999999999,-1.327169,0.021377999999999998,0.7208859999999999,0.292603
975,9.75,0.097595,1.2558799999999999,-0.3027770000000001,-0.18528699999999998,0.72728,0.403397
976,9.76,0.6506029999999999,0.814009,0.634822,-0.260925,0.621811,0.532288
977,9.77,0.847967,-0.005753999999999981,1.458453,-0.259857,0.44604499999999997,0.656921
978,9.78,0.600982,-1.114659,2.552439,-0.31098899999999996,0.31608600000000003,0.774109
979,9.79,-0.3651099999999999,-2.076191,3.51776,-0.43243400000000004,0.273468,0.885956
980,9.8,-1.06809,-2.32533,4.023480999999999,-0.52298,0.24791,0.991425
981,9.81,-2.023524,-1.8335669999999997,3.914607,-0.52298,0.16375699999999999,1.080902
982,9.82,-1.590559,-0.448996,3.615925,-0.452667,0.085983,1.215118
983,9.83,-0.08671499999999999,1.1235110000000001,3.143253,-0.304596,0.051895000000000004,1.2566680000000001
984,9.84,1.100334,2.2598540000000003,3.011693,-0.144806,0.017807,1.17038
985,9.85,1.508185,2.91804,3.031781,-0.032958999999999995,-0.027999999999999997,0.9583889999999999
986,9.86,1.706009,3.231215,3.433693,0.024567,-0.030121,0.679291
987,9.87,2.113552,3.390978,3.6669089999999995,0.103394,0.035919,0.371429
988,9.88,2.7115240000000003,3.4324739999999996,3.6013319999999998,0.21844499999999997,0.130722,0.069962
989,9.89,3.636107,3.175925,3.093439,0.34201,0.17866500000000002,-0.209137
990,9.9,4.67689,2.610562,2.322515,0.420853,0.138184,-0.454147
991,9.91,4.721493,1.235158,1.256673,0.396347,-0.036514,-0.7236630000000001
992,9.92,3.803151,0.20596199999999992,0.799495,0.354797,-0.16860999999999998,-0.831253
993,9.93,2.621104,-0.62997,0.31619899999999995,0.330307,-0.287918,-0.881317
994,9.94,1.334233,-1.414667,-0.262768,0.31858800000000004,-0.41362,-0.899429
995,9.95,0.04187200000000002,-2.102611,-0.8242290000000001,0.30899,-0.5297390000000001,-0.881317
996,9.96,-1.051268,-2.743267,-1.297863,0.27064499999999997,-0.654373,-0.8376459999999999
997,9.97,-2.00421,-3.373464,-1.381224,0.202469,-0.7971189999999999,-0.79184
998,9.98,-2.7770080000000004,-3.8579160000000003,-1.110935,0.12150599999999999,-0.905777,-0.738571
999,9.99,-3.185075,-4.082647,-0.802879,0.052261,-0.946259,-0.692764
1000,10.0,-3.326393,-4.0796470000000005,-0.688258,-0.010590000000000002,-0.919617,-0.650146
1001,10.01,-3.186775,-3.887204,-0.8914059999999999,-0.065979,-0.855713,-0.62352
1002,10.02,-2.964517,-3.571743,-1.165615,-0.112854,-0.77475,-0.603287
1003,10.03,-2.546722,-3.156886,-1.415188,-0.165054,-0.693787,-0.58197
1004,10.04,-2.060203,-2.763486,-1.52699,-0.220444,-0.637329,-0.551086
1005,10.05,-1.5652780000000002,-2.4369509999999996,-1.599988,-0.279037,-0.601105,-0.502075
1006,10.06,-0.8887420000000001,-2.20514,-1.6273229999999999,-0.335495,-0.6309359999999999,-0.438171
1007,10.07,-0.307842,-2.068078,-1.643945,-0.377029,-0.718292,-0.352951
1008,10.08,0.316473,-1.7912720000000002,-1.524455,-0.38555900000000004,-0.822678,-0.25174
1009,10.09,0.930552,-1.339443,-1.299658,-0.33868400000000004,-0.923889,-0.152679
1010,10.1,1.4469049999999999,-0.814462,-1.088719,-0.22790500000000002,-1.016556,-0.070648
1011,10.11,1.6644830000000002,-0.398364,-0.8605379999999999,-0.077698,-1.089005,-0.009932999999999999
1012,10.12,1.6784540000000001,-0.20549099999999998,-0.651471,0.060791,-1.119888,0.022034
1013,10.13,1.506664,-0.139176,-0.5736100000000001,0.168381,-1.132675,0.0007169999999999988
1014,10.14,1.134167,-0.271322,-0.6644720000000001,0.234421,-1.125214,-0.054672000000000005
1015,10.15,0.834018,-0.417041,-0.756146,0.237625,-1.091125,-0.112198
1016,10.16,0.604588,-0.42916099999999996,-0.969572,0.201401,-1.016556,-0.149475
1017,10.17,0.34573000000000004,0.02068500000000001,-1.1237700000000002,0.160919,-0.914291,-0.164398
1018,10.18,-0.10795799999999996,0.8190580000000001,-1.2209079999999999,0.155594,-0.776871,-0.189957
1019,10.19,-0.784301,1.706078,-1.3770799999999999,0.179031,-0.6309359999999999,-0.24429299999999998
1020,10.2,-1.321479,2.36764,-1.752471,0.219513,-0.523346,-0.338028
1021,10.21,-1.6726590000000001,2.791969,-2.098117,0.249344,-0.46368400000000004,-0.42112700000000003
1022,10.22,-1.536826,2.891676,-2.267893,0.24614,-0.382721,-0.453079
1023,10.23,-0.693121,2.731207,-2.440386,0.220581,-0.296448,-0.42645299999999997
1024,10.24,0.107373,2.553116,-2.7156290000000003,0.18649300000000002,-0.24850500000000003,-0.35827600000000004
1025,10.25,0.500865,2.3429919999999997,-2.7046930000000002,0.160919,-0.26873800000000003,-0.30075100000000005
1026,10.26,0.811178,2.306136,-2.358336,0.087418,-0.31454499999999996,-0.28157
1027,10.27,1.000415,2.2570419999999998,-1.629679,-0.079834,-0.358231,-0.31033299999999997
1028,10.28,0.363249,2.470469,-0.410184,-0.238556,-0.37953200000000004,-0.35720799999999997
1029,10.29,-0.113945,2.716445,0.677216,-0.29180900000000004,-0.290054,-0.447754
1030,10.3,-0.454255,2.240091,1.6968450000000002,-0.27050799999999997,-0.159027,-0.559601
1031,10.31,-0.379485,1.159096,2.893104,-0.246002,-0.062088,-0.644821
1032,10.32,-0.315904,0.300656,3.80671,-0.273712,0.010361,-0.719391
1033,10.33,0.919694,0.290545,4.397444,-0.375977,0.018875,-0.8514860000000001
1034,10.34,1.9073849999999999,0.331534,4.741621,-0.41218599999999994,-0.072739,-1.010208
1035,10.35,1.400942,0.255914,4.760438,-0.252396,-0.176071,-1.121002
1036,10.36,0.6217689999999999,0.13884000000000002,4.434517,0.03096,-0.157959,-1.099701
1037,10.37,-0.10785500000000008,-0.06886400000000001,3.8363739999999997,0.297272,-0.0802,-0.986771
1038,10.38,-0.554582,-0.171992,2.924611,0.45387299999999997,-0.103622,-0.840836
1039,10.39,-1.126183,-0.083882,2.139107,0.473038,-0.199509,-0.652283
1040,10.4,-1.582379,0.369381,1.444636,0.41658,-0.280457,-0.43710299999999996
1041,10.41,-2.201545,0.994609,0.9716290000000001,0.33563200000000004,-0.313492,-0.220856
1042,10.42,-3.0635,1.382264,0.851902,0.238693,-0.26236,-0.01738000000000001
1043,10.43,-3.951118,1.497408,0.880315,0.131088,-0.132385,0.16477999999999998
1044,10.44,-4.33108,1.1601,1.030825,0.023499000000000003,0.011414,0.323502
1045,10.45,-3.642149,0.696483,1.184036,-0.051070999999999984,0.145645,0.45665
1046,10.46,-2.43582,0.27058699999999997,1.22213,-0.07449299999999999,0.256424,0.5504
1047,10.47,-1.20005,-0.11953499999999999,1.1438270000000001,-0.036148,0.329941,0.639877
1048,10.48,0.204727,-0.518137,0.940686,0.05014,0.357635,0.714447
1049,10.49,1.581446,-1.0549959999999998,0.625413,0.12470999999999999,0.389587,0.757065
1050,10.5,2.78107,-1.822012,0.190666,0.159851,0.42048599999999997,0.7698520000000001
1051,10.51,3.653777,-2.648972,-0.280817,0.14068599999999998,0.42581199999999997,0.744278
1052,10.52,3.960136,-3.298229,-0.6509149999999999,0.070374,0.388519,0.693146
1053,10.53,3.779054,-3.762753,-0.809179,-0.016983,0.326736,0.637756
1054,10.54,3.4866040000000003,-3.850664,-0.9034549999999999,-0.116043,0.26921100000000003,0.5855560000000001
1055,10.55,3.07505,-3.6835169999999997,-0.921797,-0.223633,0.205292,0.52803
1056,10.56,2.305532,-3.5462279999999997,-0.8388959999999999,-0.324844,0.153107,0.46624799999999994
1057,10.57,1.6027559999999998,-3.161956,-0.7157180000000001,-0.40260300000000004,0.130722,0.41191099999999997
1058,10.58,1.065488,-2.614761,-0.678892,-0.45373500000000005,0.143509,0.355453
1059,10.59,0.518886,-2.149754,-0.652251,-0.47717299999999996,0.187195,0.300064
1060,10.6,0.12759,-1.647723,-0.707244,-0.470779,0.259628,0.247864
1061,10.61,-0.160121,-1.120034,-0.693318,-0.435623,0.364029,0.199936
1062,10.62,-0.306039,-0.598608,-0.581059,-0.35466,0.483337,0.15945399999999998
1063,10.63,-0.289955,-0.06608199999999997,-0.467893,-0.206589,0.594116,0.131744
1064,10.64,-0.17717,0.310983,-0.437204,-0.011658000000000002,0.6921229999999999,0.12322999999999999
1065,10.65,-0.1078,0.41673699999999997,-0.49705699999999997,0.18222,0.756042,0.126419
1066,10.66,-0.067548,0.189878,-0.7254520000000001,0.32710300000000003,0.7922520000000001,0.13708499999999998
1067,10.67,0.048585,-0.34426999999999996,-0.992159,0.396347,0.8199620000000001,0.157318
1068,10.68,0.10268699999999999,-0.888497,-1.239034,0.391022,0.832733,0.163712
1069,10.69,-0.024534999999999998,-1.117228,-1.6591349999999998,0.32603499999999996,0.8423309999999999,0.139206
1070,10.7,-0.07347200000000001,-0.8578629999999999,-2.125684,0.207794,0.859375,0.10192899999999999
1071,10.71,0.141002,-0.21255700000000005,-2.396029,0.09806799999999999,0.8508450000000001,0.083817
1072,10.72,0.387729,1.10004,-2.627196,0.05014,0.8231510000000001,0.10192899999999999
1073,10.73,0.7394430000000001,2.5566619999999998,-2.751127,0.054398,0.769882,0.166901
1074,10.74,1.155865,3.362557,-2.496375,0.084229,0.689987,0.227631
1075,10.75,1.498566,3.615735,-2.208859,0.109787,0.589859,0.264908
1076,10.76,1.415965,3.629165,-1.977783,0.12470999999999999,0.49505600000000005,0.29580700000000004
1077,10.77,0.9853540000000001,3.457546,-1.7942060000000002,0.15240499999999998,0.46308900000000003,0.330963
1078,10.78,0.654351,3.009816,-1.669656,0.20033299999999998,0.483337,0.36930799999999997
1079,10.79,0.445537,2.3293049999999997,-1.323649,0.21311999999999998,0.502502,0.414047
1080,10.8,0.282277,1.676373,-0.549221,0.141754,0.505707,0.47369399999999995
1081,10.81,0.697092,1.038918,0.687413,0.035217,0.47373999999999994,0.5525359999999999
1082,10.82,1.0597729999999999,0.20779099999999998,2.064638,-0.053191999999999996,0.37040700000000004,0.6302949999999999
1083,10.83,0.901933,-0.378395,3.400571,-0.20553600000000002,0.262817,0.732559
1084,10.84,0.19562,-0.765602,4.468737,-0.377029,0.19252,0.8678440000000001
1085,10.85,-1.081617,-0.52775,5.030759,-0.47184799999999993,0.155228,1.052139
1086,10.86,-1.232373,-0.176277,4.908144999999999,-0.35893200000000003,0.152039,1.2268370000000002
1087,10.87,-0.9115200000000001,0.089149,4.112518,-0.046799000000000035,0.08065800000000001,1.289688
1088,10.88,-0.382449,0.21580100000000002,3.01448,0.257858,-0.07913200000000001,1.280106
1089,10.89,-0.0023410000000000093,0.35939699999999997,2.15693,0.387817,-0.200562,1.179977
1090,10.9,0.32374400000000003,0.745953,1.6939919999999997,0.366516,-0.22399899999999998,0.9946139999999999
1091,10.91,1.081475,1.447311,1.315166,0.274902,-0.167542,0.732559
1092,10.92,2.746686,2.391872,1.1225450000000001,0.141754,-0.053558,0.24572800000000003
1093,10.93,3.918875,2.734653,1.391276,0.087418,-0.019469999999999998,-0.072784
1094,10.94,4.897218,2.718987,1.609043,0.06504800000000001,-0.002426,-0.35720799999999997
1095,10.95,5.325756,2.309093,1.6710369999999999,0.053328999999999994,-0.032257,-0.58197
1096,10.96,4.713086,1.291548,1.5353649999999999,0.056534,-0.099365,-0.749222
1097,10.97,3.40407,0.292735,1.1338549999999998,0.075699,-0.165421,-0.84935
1098,10.98,1.645993,-0.59119,0.542181,0.088486,-0.261292,-0.886642
1099,10.99,-0.06383099999999997,-1.441835,-0.15034300000000006,0.089554,-0.401901,-0.869598
1100,11.0,-1.500691,-2.245833,-0.611661,0.089554,-0.5872649999999999,-0.81633
1101,11.01,-2.4826799999999998,-3.010942,-0.785222,0.081024,-0.773682,-0.744965
1102,11.02,-3.107502,-3.7008650000000003,-0.736297,0.053328999999999994,-0.921753,-0.677856
1103,11.03,-3.35014,-4.117253,-0.470772,0.01178,-0.98674,-0.625656
1104,11.04,-3.221084,-4.076982,-0.337929,-0.032958999999999995,-0.972885,-0.5905
1105,11.05,-2.745931,-3.6816379999999995,-0.342358,-0.07662999999999999,-0.916428,-0.56813
1106,11.06,-2.03461,-3.1592439999999997,-0.42609300000000006,-0.11604300000000001,-0.849319,-0.5521550000000001
1107,11.07,-1.241793,-2.5562650000000002,-0.594371,-0.137344,-0.804581,-0.542557
1108,11.08,-0.481889,-2.084043,-0.862597,-0.151199,-0.7960510000000001,-0.531906
1109,11.09,0.0009019999999999859,-1.8228349999999998,-1.108364,-0.171432,-0.81842,-0.5052800000000001
1110,11.1,0.350632,-1.7487580000000003,-1.360188,-0.19381700000000002,-0.857834,-0.467987
1111,11.11,0.548758,-1.702863,-1.593639,-0.235352,-0.8961790000000001,-0.425385
1112,11.12,0.563689,-1.609098,-1.707845,-0.287552,-0.9430540000000001,-0.37851
1113,11.13,0.543292,-1.287887,-1.661341,-0.315247,-0.9814,-0.329514
1114,11.14,0.530645,-0.7359399999999999,-1.35297,-0.272644,-1.0112299999999999,-0.28476
1115,11.15,0.371861,-0.159545,-0.938959,-0.135223,-1.031479,-0.249619
1116,11.16,0.164563,0.149776,-0.644516,0.06930499999999999,-1.039993,-0.216583
1117,11.17,-0.13056500000000001,0.23375900000000002,-0.49849099999999996,0.26745599999999997,-1.0485229999999999,-0.180374
1118,11.18,-0.377919,0.159435,-0.6011890000000001,0.413391,-1.0463870000000002,-0.161194
1119,11.19,-0.494828,-0.204799,-0.779492,0.467712,-1.04213,-0.15373199999999998
1120,11.2,-0.39061999999999997,-0.7026939999999999,-0.9799829999999999,0.427246,-1.015503,-0.150543
1121,11.21,-0.19250499999999998,-0.8508530000000001,-1.138469,0.32603499999999996,-0.9537049999999999,-0.142029
1122,11.22,-0.203493,-0.403904,-1.205041,0.217377,-0.856766,-0.14415
1123,11.23,-0.295606,0.446137,-1.313842,0.153473,-0.7332,-0.164398
1124,11.24,-0.47376999999999997,1.252062,-1.507448,0.128967,-0.6085659999999999,-0.21232600000000001
1125,11.25,-0.531614,1.733027,-1.797178,0.125763,-0.509491,-0.26239
1126,11.26,-0.498975,2.10304,-2.0409490000000003,0.12150599999999999,-0.429596,-0.287964
1127,11.27,-0.155452,2.255007,-2.197723,0.093811,-0.33905,-0.27731300000000003
1128,11.28,0.367767,2.316255,-2.320451,0.046935999999999985,-0.266617,-0.240021
1129,11.29,0.696817,2.529109,-2.2897819999999998,-0.0020599999999999998,-0.244247,-0.217651
1130,11.3,1.186315,2.9864290000000002,-1.9800849999999999,-0.05851699999999999,-0.265549,-0.254944
1131,11.31,1.245463,3.315287,-1.337736,-0.151199,-0.29538000000000003,-0.32311999999999996
1132,11.32,0.56604,3.5280160000000005,-0.244011,-0.207657,-0.304962,-0.391296
1133,11.33,-0.202549,3.4215839999999997,1.033807,-0.184219,-0.21548499999999998,-0.48291000000000006
1134,11.34,-0.52662,2.956583,2.064305,-0.145874,-0.0802,-0.595825
1135,11.35,-0.655058,2.1297770000000003,3.223489,-0.151199,-0.008820000000000005,-0.687439
1136,11.36,-0.23428800000000002,1.7462490000000002,4.028372,-0.188477,-0.00882,-0.792892
1137,11.37,0.854561,1.4371770000000001,4.5088040000000005,-0.228958,-0.09724400000000001,-0.906876
1138,11.38,1.255854,0.7597149999999999,4.765668,-0.171432,-0.244247,-1.004883
1139,11.39,1.530831,-0.24940300000000004,4.851408,-0.019104,-0.335861,-1.011276
1140,11.4,1.555032,-1.223814,4.517764,0.170517,-0.318817,-0.947357
1141,11.41,1.260753,-1.800384,3.613796,0.344147,-0.33158899999999997,-0.8514860000000001
1142,11.42,0.41996,-1.976912,2.541616,0.409134,-0.41255200000000003,-0.744965
1143,11.43,-0.46346499999999996,-1.6424439999999998,1.616782,0.353729,-0.502045,-0.63205
1144,11.44,-1.425568,-0.868139,1.000804,0.23123200000000002,-0.519089,-0.516998
1145,11.45,-2.316792,0.13527,0.655436,0.09062200000000001,-0.44451899999999994,-0.385971
1146,11.46,-3.3854839999999995,0.96239,0.624034,-0.040405,-0.312424,-0.246414
1147,11.47,-4.465574,1.33168,0.752,-0.144806,-0.13238499999999995,-0.086624
1148,11.48,-5.0236019999999995,1.2107700000000001,0.8868659999999999,-0.22258000000000003,0.043381,0.094467
1149,11.49,-4.610276,0.6829310000000001,0.9945209999999999,-0.272644,0.180801,0.27769499999999997
1150,11.5,-3.302457,0.217507,1.094278,-0.28009,0.25856,0.43428
1151,11.51,-2.097471,-0.219398,1.181215,-0.233231,0.31501799999999996,0.568512
1152,11.52,-0.656251,-0.585241,1.0301850000000001,-0.152267,0.36296100000000003,0.693146
1153,11.53,0.7160810000000001,-1.0613629999999998,0.848298,-0.069168,0.405563,0.780502
1154,11.54,1.95478,-1.598663,0.559298,-0.009521000000000002,0.44072,0.8177800000000001
1155,11.55,2.738424,-2.125066,0.093955,0.034149,0.4599,0.801804
1156,11.56,3.238856,-2.605289,-0.369238,0.054398,0.44711300000000004,0.7591859999999999
1157,11.57,3.3793580000000003,-2.8938900000000003,-0.7307319999999999,0.042679,0.393845,0.704865
1158,11.58,3.201751,-2.966439,-0.959916,-0.0020599999999999998,0.338455,0.6430819999999999
1159,11.59,3.076715,-2.8829759999999998,-1.072775,-0.068115,0.271347,0.5866239999999999
1160,11.6,2.880947,-2.654643,-1.0675379999999999,-0.151199,0.21168499999999998,0.524841
1161,11.61,2.513991,-2.342532,-1.057136,-0.234283,0.170151,0.45878599999999997
1162,11.62,2.067104,-2.003849,-1.08507,-0.313126,0.159485,0.392746
1163,11.63,1.601199,-1.809554,-1.1527450000000001,-0.383423,0.18399000000000001,0.323502
1164,11.64,1.13018,-1.5785799999999999,-1.245824,-0.43029799999999996,0.226608,0.255325
1165,11.65,0.745326,-1.387975,-1.213673,-0.44415299999999996,0.279861,0.190338
1166,11.66,0.387253,-1.0858780000000001,-1.2209219999999998,-0.42071499999999995,0.350174,0.140274
1167,11.67,0.252898,-0.727229,-1.2277280000000002,-0.346146,0.42688000000000004,0.102997
1168,11.68,0.11117300000000001,-0.46246099999999996,-1.2830489999999999,-0.221512,0.503571,0.083817
1169,11.69,-0.032639999999999995,-0.262652,-1.335949,-0.080887,0.569611,0.072098
1170,11.7,-0.227095,-0.22494699999999998,-1.523668,0.049072000000000005,0.616486,0.064636
1171,11.71,-0.339591,-0.35382600000000003,-1.6598490000000001,0.13961800000000002,0.629272,0.068893
1172,11.72,-0.21718,-0.523363,-1.7013,0.188614,0.631409,0.084885
1173,11.73,-0.004754000000000005,-0.611861,-1.610274,0.156662,0.626083,0.09021
1174,11.74,0.12347900000000002,-0.191519,-1.5851389999999999,0.075699,0.658035,0.08167999999999999
1175,11.75,0.22383699999999998,0.364537,-1.705296,0.0043330000000000035,0.695312,0.07849099999999999
1176,11.76,0.259861,1.228012,-1.828209,-0.021240000000000002,0.7080989999999999,0.11151099999999999
1177,11.77,0.33956,2.209982,-1.9494919999999998,0.005402000000000004,0.670822,0.191406
1178,11.78,0.46807299999999996,2.6549709999999997,-1.930116,0.057587,0.599442,0.270233
1179,11.79,0.572643,2.934802,-1.8221939999999999,0.110855,0.513153,0.320297
1180,11.8,0.7253649999999999,3.074693,-1.693022,0.14813199999999999,0.43432600000000005,0.351196
1181,11.81,0.622259,3.1439630000000003,-1.613673,0.174774,0.41409300000000004,0.371429
1182,11.82,0.374626,3.086172,-1.559455,0.202469,0.453506,0.386353
1183,11.83,0.029359,2.860147,-1.433476,0.18756099999999998,0.513153,0.405518
1184,11.84,-0.035339999999999996,2.682425,-0.9880110000000001,0.088486,0.573883,0.447067
1185,11.85,0.590043,2.342388,-0.224427,-0.015915000000000002,0.5515140000000001,0.490738
1186,11.86,1.116534,1.7258360000000001,0.8684540000000001,-0.077698,0.419418,0.534424
1187,11.87,0.964458,1.167308,2.0786569999999998,-0.176773,0.29158,0.612183
1188,11.88,1.175556,0.742117,3.269933,-0.287552,0.199966,0.726166
1189,11.89,0.5731310000000001,0.274549,4.261742,-0.362122,0.179733,0.858261
1190,11.9,-0.397907,-0.180367,4.436411,-0.272644,0.30011,1.022308
1191,11.91,-1.0041120000000001,-0.584615,3.646121,-0.031891,0.27774,1.042557
1192,11.92,-1.419989,-1.312147,2.3064400000000003,0.31858800000000004,0.100906,0.9583889999999999
1193,11.93,-1.115591,-1.253197,1.548656,0.41020200000000007,0.021011000000000002,0.86145
1194,11.94,-0.2645830000000001,-0.653125,0.9026120000000001,0.389954,0.002899000000000001,0.714447
1195,11.95,0.713292,0.235666,0.453643,0.30899,-0.012024,0.526962
1196,11.96,1.729528,1.230058,0.351581,0.207794,-0.031188999999999998,0.30538899999999997
1197,11.97,2.898743,1.9423990000000002,0.504783,0.103394,-0.054626,0.08167999999999999
1198,11.98,3.8786370000000003,2.269839,0.815132,0.01178,-0.104691,-0.127106
1199,11.99,4.649554,2.075143,1.090752,-0.051071,-0.165421,-0.317795
1200,12.0,4.792426,1.4259819999999999,1.210648,-0.09581,-0.22399899999999998,-0.480774
1201,12.01,4.038268,0.46086800000000006,1.1404299999999998,-0.11392200000000001,-0.277267,-0.611801
1202,12.02,2.77907,-0.29593699999999995,0.874567,-0.11817899999999999,-0.320938,-0.703415
1203,12.03,1.246264,-0.927733,0.48451099999999997,-0.10965,-0.3806,-0.758804
1204,12.04,-0.2993480000000001,-1.5495299999999999,0.005238999999999994,-0.089417,-0.470078,-0.777985
1205,12.05,-1.529379,-2.1796889999999998,-0.362206,-0.065979,-0.5872649999999999,-0.769455
1206,12.06,-2.437414,-2.807852,-0.580106,-0.061722000000000006,-0.70018,-0.739639
1207,12.07,-2.942864,-3.3384949999999995,-0.552379,-0.089417,-0.763031,-0.69809
1208,12.08,-3.095485,-3.596024,-0.36751999999999996,-0.136292,-0.777939,-0.652283
1209,12.09,-2.9700830000000003,-3.456343,-0.28368899999999997,-0.174637,-0.756638,-0.612869
1210,12.1,-2.595371,-3.102451,-0.286394,-0.190613,-0.71402,-0.578781
1211,12.11,-2.061946,-2.6499080000000004,-0.418572,-0.187424,-0.659698,-0.5383
1212,12.12,-1.516545,-2.090882,-0.6429560000000001,-0.177826,-0.617081,-0.502075
1213,12.13,-1.0032709999999998,-1.706864,-0.868925,-0.182098,-0.597916,-0.465866
1214,12.14,-0.57296,-1.505672,-1.093548,-0.20233199999999998,-0.605362,-0.42645299999999997
1215,12.15,-0.258968,-1.417909,-1.347896,-0.228958,-0.632004,-0.388092
1216,12.16,-0.06739899999999999,-1.4008969999999998,-1.517347,-0.258789,-0.666092,-0.34016399999999997
1217,12.17,0.076028,-1.271731,-1.673509,-0.28329499999999996,-0.687393,-0.299683
1218,12.18,0.22557399999999997,-1.0637860000000001,-1.714648,-0.285416,-0.695923,-0.266663
1219,12.19,0.446316,-0.549632,-1.423168,-0.174637,-0.706573,-0.22192399999999998
1220,12.2,0.44261999999999996,-0.24318,-1.127904,-0.029754999999999986,-0.706573,-0.202744
1221,12.21,0.359763,-0.154135,-0.909748,0.134293,-0.704437,-0.18676800000000002
1222,12.22,0.081514,-0.105859,-0.853039,0.26318400000000003,-0.698044,-0.178238
1223,12.23,-0.155423,-0.176562,-0.835624,0.332428,-0.699112,-0.18676800000000002
1224,12.24,-0.32276,-0.336823,-0.807479,0.324966,-0.672485,-0.18676800000000002
1225,12.25,-0.397692,-0.28775700000000004,-0.8954489999999999,0.252533,-0.605362,-0.17717
1226,12.26,-0.362304,0.09344000000000002,-1.035687,0.173706,-0.53186,-0.13456700000000002
1227,12.27,-0.488316,1.059058,-1.253377,0.1492,-0.45410200000000006,-0.084503
1228,12.28,-0.7398170000000001,2.049302,-1.6077489999999999,0.179031,-0.38911399999999996,-0.048279
1229,12.29,-0.748733,2.6360900000000003,-1.827191,0.22376999999999997,-0.34330700000000003,-0.014191000000000004
1230,12.3,-0.619505,2.829085,-1.96512,0.24295,-0.29856900000000003,0.01564
1231,12.31,-0.302267,2.852599,-2.020279,0.234421,-0.21974200000000002,0.043335000000000005
1232,12.32,0.23357399999999998,2.762793,-2.2279720000000003,0.21418800000000002,-0.118546,0.05719
1233,12.33,0.7534310000000001,2.74282,-2.36522,0.20033299999999998,-0.032257,0.040146
1234,12.34,0.764992,2.6695450000000003,-2.111653,0.18222,0.038055,-0.026978
1235,12.35,0.7875810000000001,2.615133,-1.4240540000000002,0.137482,0.096634,-0.14415
1236,12.36,0.615412,2.537766,-0.6263780000000001,0.055465999999999994,0.093445,-0.289032
1237,12.37,0.196071,2.245158,0.587965,-0.018036000000000003,0.030594,-0.42218
1238,12.38,-0.066888,1.597084,2.19421,-0.040405,0.026337,-0.537231
1239,12.39,0.24801199999999998,0.9057209999999999,3.581665,-0.07130399999999999,0.064682,-0.645889
1240,12.4,0.596553,0.734985,4.480958,-0.168243,0.012482,-0.774796
1241,12.41,1.8190689999999998,1.057942,5.07969,-0.276901,-0.078064,-0.917542
1242,12.42,1.4985700000000002,0.8998799999999999,5.150467,-0.24494899999999997,-0.23999,-1.0602719999999999
1243,12.43,0.20082999999999984,0.540668,4.879556,-0.051071000000000005,-0.311356,-1.081589
1244,12.44,-1.279399,-0.02177800000000002,4.341524,0.175842,-0.226135,-0.9920959999999999
1245,12.45,-2.217502,-0.526546,3.3890839999999995,0.33563200000000004,-0.116409,-0.834442
1246,12.46,-2.690632,-0.838449,2.389134,0.370773,-0.12387100000000001,-0.650146
1247,12.47,-3.042574,-0.766353,1.7760490000000002,0.312195,-0.17819200000000002,-0.44349700000000003
1248,12.48,-3.610931,-0.05305500000000002,1.429813,0.21418800000000002,-0.14624,-0.228302
1249,12.49,-4.346216,0.8499899999999999,1.2650489999999999,0.103394,-0.016281000000000004,-0.018447999999999992
1250,12.5,-4.963225,1.3938629999999999,1.042355,0.001128999999999998,0.16162100000000001,0.17543
1251,12.51,-5.171603,1.433668,1.062632,-0.090485,0.341644,0.362915
1252,12.52,-4.329465,0.8633129999999999,1.2286569999999999,-0.158661,0.506775,0.524841
1253,12.53,-3.0225419999999996,0.190399,1.362511,-0.177826,0.6612239999999999,0.640945
1254,12.54,-1.801084,-0.398233,1.332166,-0.14161700000000002,0.79332,0.736816
1255,12.55,-0.326465,-0.9244950000000001,1.121797,-0.07449299999999999,0.868958,0.819916
1256,12.56,1.847318,-1.866452,0.374519,0.014984000000000003,0.952042,0.864655
1257,12.57,2.97723,-2.643615,-0.216187,0.025635,0.9701540000000001,0.8401489999999999
1258,12.58,3.7710730000000003,-3.504653,-0.7737850000000001,-0.016983,0.950989,0.791153
1259,12.59,4.151366,-4.06285,-0.9924120000000001,-0.127762,0.8487239999999999,0.716583
1260,12.6,4.083979,-3.8088260000000003,-0.958465,-0.188477,0.7603,0.650528
1261,12.61,3.9119099999999998,-3.196212,-0.9701200000000001,-0.22790500000000002,0.648453,0.5823520000000001
1262,12.62,3.3206949999999997,-2.58889,-0.962117,-0.2556,0.533401,0.506729
1263,12.63,2.5252220000000003,-1.993365,-1.088006,-0.290756,0.462021,0.431091
1264,12.64,1.650322,-1.5583360000000002,-1.284517,-0.339752,0.453506,0.34906
1265,12.65,0.873346,-1.2557040000000002,-1.524683,-0.393021,0.480133,0.267044
1266,12.66,0.29785700000000004,-0.991309,-1.650673,-0.405792,0.5206149999999999,0.19886800000000002
1267,12.67,-0.162779,-0.628706,-1.5681829999999999,-0.346146,0.560028,0.16050699999999998
1268,12.68,-0.334152,-0.331488,-1.404984,-0.207657,0.602646,0.14773599999999998
1269,12.69,-0.41826899999999995,-0.230304,-1.244915,-0.014847,0.647385,0.15945399999999998
1270,12.7,-0.49219700000000005,-0.343442,-1.2271299999999998,0.181168,0.682541,0.191406
1271,12.71,-0.47453999999999996,-0.561517,-1.298886,0.321777,0.70491,0.231888
1272,12.72,-0.28079,-0.9720479999999999,-1.500581,0.38356,0.714493,0.273438
1273,12.73,-0.02359600000000001,-1.288419,-1.626315,0.381439,0.715561,0.296875
1274,12.74,0.071339,-1.515719,-1.7056310000000001,0.314316,0.7208859999999999,0.27876300000000004
1275,12.75,0.059678999999999996,-1.458674,-1.7527259999999998,0.184357,0.72728,0.228683
1276,12.76,0.084855,-1.0804850000000001,-1.7024099999999998,0.033096,0.746445,0.17968800000000001
1277,12.77,0.089787,-0.16429399999999994,-1.508264,-0.08088700000000001,0.782669,0.149857
1278,12.78,0.123294,1.402116,-1.4803600000000001,-0.111786,0.805038,0.170105
1279,12.79,0.298896,2.7017349999999998,-1.456329,-0.07449299999999999,0.7773439999999999,0.229752
1280,12.8,0.525451,3.181869,-1.2710629999999998,-0.023361,0.716629,0.290482
1281,12.81,0.647416,3.239082,-1.247694,0.018172999999999998,0.636734,0.339478
1282,12.82,0.571393,3.558788,-1.779454,0.110855,0.486526,0.365051
1283,12.83,0.782967,3.725973,-2.073794,0.18756099999999998,0.41835,0.358658
1284,12.84,0.856619,3.5701660000000004,-1.9758330000000002,0.234421,0.359756,0.34906
1285,12.85,0.880936,3.4867269999999997,-1.2000170000000001,0.118317,0.320343,0.40979
1286,12.86,1.186451,3.0348,-0.29365399999999997,0.043747,0.275604,0.46411099999999994
1287,12.87,1.297658,2.222642,0.685919,0.026702999999999998,0.162689,0.513123
1288,12.88,0.8424709999999999,1.252515,1.687677,-0.0052640000000000004,0.041245,0.5823520000000001
1289,12.89,0.320913,0.49658199999999997,2.638447,-0.088348,-0.00563,0.686752
1290,12.9,-0.047313,-0.12932800000000005,3.429587,-0.19487000000000002,0.007156,0.791153
1291,12.91,-1.473837,-0.570328,3.8033089999999996,-0.281158,0.05722000000000001,0.8944850000000001
1292,12.92,-2.336484,-0.785075,3.8683970000000003,-0.281158,0.132858,1.025513
1293,12.93,-2.762744,-1.135504,3.6070290000000003,-0.13841199999999998,0.177597,1.090485
1294,12.94,-2.8582389999999998,-1.501177,3.020137,0.075699,0.157364,1.085159
1295,12.95,-2.5008340000000002,-1.513091,2.164323,0.20672600000000002,0.116882,1.027634
1296,12.96,-1.6728880000000002,-0.917177,1.3632440000000001,0.20565799999999998,0.10409500000000001,0.9104610000000001
1297,12.97,-0.43446599999999996,0.051869000000000005,0.836457,0.127899,0.112625,0.726166
1298,12.98,0.856505,1.1754070000000003,0.642069,0.022446,0.120071,0.491806
1299,12.99,2.2602759999999997,2.1862209999999997,0.706943,-0.06916800000000001,0.122208,0.21910100000000002
1300,13.0,3.5498870000000005,2.774466,0.935074,-0.125641,0.097702,-0.053604
1301,13.01,4.464905,2.767128,1.332956,-0.16078199999999998,0.071075,-0.298615
1302,13.02,4.939538,2.190671,1.7311279999999998,-0.18103,0.058289,-0.49675
1303,13.03,4.570958,1.255045,1.7717619999999998,-0.159729,0.023132,-0.660812
1304,13.04,3.43756,0.422992,1.440639,-0.101135,-0.023727,-0.792892
1305,13.05,1.8682189999999999,-0.313305,0.860759,-0.038284,-0.088715,-0.881317
1306,13.06,0.22228400000000004,-1.088259,0.320015,0.018172999999999998,-0.17819200000000002,-0.916473
1307,13.07,-1.244435,-1.885248,-0.20109200000000002,0.068237,-0.287918,-0.9058229999999999
1308,13.08,-2.460556,-2.731256,-0.691238,0.10446199999999999,-0.425339,-0.8632049999999999
1309,13.09,-3.2389040000000002,-3.5270349999999997,-0.961175,0.10766600000000001,-0.548904,-0.787567
1310,13.1,-3.539678,-3.959863,-1.0461799999999999,0.078903,-0.6309359999999999,-0.700226
1311,13.11,-3.4448199999999995,-4.098048,-1.0557239999999999,0.036285000000000005,-0.652237,-0.608612
1312,13.12,-3.060059,-3.886446,-1.091112,-0.0020599999999999998,-0.624542,-0.531906
1313,13.13,-2.443845,-3.338685,-1.225251,-0.038284,-0.567017,-0.47544899999999995
1314,13.14,-1.805971,-2.761536,-1.367289,-0.085159,-0.510559,-0.442429
1315,13.15,-0.9307030000000001,-2.079959,-1.58289,-0.17038,-0.46261599999999997,-0.40727199999999997
1316,13.16,-0.4590850000000001,-1.7322689999999998,-1.705143,-0.22258000000000003,-0.46368400000000004,-0.38703899999999997
1317,13.17,-0.18459,-1.503664,-1.7632310000000002,-0.25453200000000004,-0.483932,-0.366791
1318,13.18,-0.043769999999999996,-1.177684,-1.9877770000000001,-0.26944,-0.53186,-0.329514
1319,13.19,0.06345300000000001,-0.9176709999999999,-2.050878,-0.24706999999999998,-0.5840609999999999,-0.291153
1320,13.2,0.156404,-0.64354,-1.9531880000000001,-0.182098,-0.63945,-0.247482
1321,13.21,0.19031700000000001,-0.477705,-1.6772529999999999,-0.088348,-0.6809999999999999,-0.203812
1322,13.22,0.143948,-0.481346,-1.356307,0.032027999999999994,-0.705505,-0.150543
1323,13.23,0.12922999999999998,-0.54592,-1.171563,0.151337,-0.734268,-0.10366800000000001
1324,13.24,0.08165399999999999,-0.579018,-1.169622,0.245071,-0.780075,-0.07811
1325,13.25,0.10589000000000001,-0.673117,-1.212117,0.283432,-0.8248139999999999,-0.073837
1326,13.26,0.365318,-0.702074,-1.198285,0.24614,-0.843994,-0.084503
1327,13.27,0.45646499999999995,-0.42802399999999996,-1.225063,0.155594,-0.81842,-0.094086
1328,13.28,0.40631,0.298177,-1.229831,0.078903,-0.742783,-0.100479
1329,13.29,-0.06975100000000001,1.219351,-1.150136,0.026702999999999998,-0.610703,-0.117523
1330,13.3,-0.843669,2.107944,-1.105337,0.020309,-0.43066400000000005,-0.14735399999999998
1331,13.31,-1.534319,2.8094349999999997,-1.31437,0.049072000000000005,-0.258087,-0.185699
1332,13.32,-1.892138,3.095883,-1.64811,0.081024,-0.151566,-0.218719
1333,13.33,-1.559376,3.0367,-1.908427,0.09806799999999999,-0.07913200000000001,-0.213394
1334,13.34,-0.849643,2.790095,-2.250564,0.101273,-0.020538,-0.175049
1335,13.35,-0.24930500000000003,2.805746,-2.3876939999999998,0.11511199999999999,-0.00563,-0.146286
1336,13.36,0.6292800000000001,3.1404520000000002,-2.285565,0.09274299999999999,-0.018402,-0.17717
1337,13.37,0.998483,3.2971800000000004,-1.284446,-0.127762,-0.065277,-0.30075100000000005
1338,13.38,0.5143840000000001,3.146764,0.2620239999999999,-0.256668,-0.039719,-0.401947
1339,13.39,0.031171000000000008,2.4983169999999997,1.733314,-0.277969,0.082794,-0.49675
1340,13.4,-0.318271,1.4275950000000002,2.787568,-0.249207,0.21595799999999998,-0.587296
1341,13.41,-0.350492,0.41029499999999997,3.4698059999999997,-0.243881,0.271347,-0.666138
1342,13.42,-0.212747,-0.272326,3.6665080000000003,-0.268372,0.201035,-0.762009
1343,13.43,0.41306400000000004,-0.572947,4.046088,-0.285416,0.056168,-0.8568120000000001
1344,13.44,0.8591219999999999,-0.520688,4.399014,-0.250275,-0.042908,-0.9431
1345,13.45,0.25485399999999997,-0.313629,4.395944,-0.103256,-0.086578,-1.001694
1346,13.46,-0.428761,-0.006515999999999994,4.10294,0.09274299999999999,-0.075928,-0.965469
1347,13.47,-1.0172700000000001,0.016599000000000003,3.506681,0.24295,-0.045044,-0.866394
1348,13.48,-1.184067,0.176036,2.6918889999999998,0.302597,-0.042908,-0.725784
1349,13.49,-1.270491,0.340702,2.0039279999999997,0.27597,-0.06315599999999999,-0.561737
1350,13.5,-1.745482,0.6036699999999999,1.597972,0.210983,-0.061020000000000005,-0.383835
1351,13.51,-2.4513540000000003,0.9029870000000001,1.367617,0.125763,0.023132,-0.194214
1352,13.52,-3.4520739999999996,0.971403,1.097507,0.042679,0.158432,-0.006728999999999999
1353,13.53,-4.3578339999999995,0.7229140000000001,0.7579279999999999,-0.042542,0.290512,0.173294
1354,13.54,-4.662701,0.351321,0.576971,-0.12243699999999999,0.397049,0.344803
1355,13.55,-3.873025,-0.09752100000000002,0.699367,-0.19381700000000002,0.483337,0.5024569999999999
1356,13.56,-2.68435,-0.504555,0.901425,-0.212982,0.579208,0.617508
1357,13.57,-1.567664,-0.842966,1.077717,-0.174637,0.656967,0.718719
1358,13.58,-0.17161800000000005,-1.216108,1.197478,-0.08728,0.724075,0.794342
1359,13.59,1.087491,-1.6942529999999998,0.9640139999999999,0.0043330000000000035,0.795456,0.831635
1360,13.6,2.120196,-2.3042990000000003,0.493827,0.061859000000000004,0.8391270000000001,0.819916
1361,13.61,2.743745,-2.846596,-0.02480199999999999,0.07357799999999999,0.822083,0.791153
1362,13.62,3.180169,-3.262244,-0.513163,0.045868,0.7762760000000001,0.760254
1363,13.63,3.414106,-3.479942,-0.793751,-0.015915,0.716629,0.721909
1364,13.64,3.606242,-3.43059,-0.9782420000000001,-0.09367400000000001,0.643127,0.672913
1365,13.65,3.5445849999999997,-3.216975,-1.019642,-0.172501,0.561096,0.614319
1366,13.66,3.267994,-2.849263,-1.1409719999999999,-0.241745,0.47161899999999995,0.545074
1367,13.67,2.570545,-2.145458,-1.220285,-0.33868400000000004,0.392776,0.421509
1368,13.68,1.8415549999999998,-1.792096,-1.185573,-0.397278,0.397049,0.329895
1369,13.69,1.225482,-1.351234,-1.16798,-0.428162,0.44711300000000004,0.237213
1370,13.7,0.521133,-0.951209,-1.2669780000000002,-0.41111800000000004,0.53447,0.144531
1371,13.71,-0.005673000000000039,-0.496229,-1.302431,-0.33016999999999996,0.6271359999999999,0.075287
1372,13.72,-0.473549,-0.08137799999999999,-1.333978,-0.191681,0.710236,0.036942
1373,13.73,-0.722648,0.139653,-1.360692,-0.02336100000000001,0.768829,0.028426999999999997
1374,13.74,-0.93263,0.085053,-1.3555270000000001,0.125763,0.802917,0.044403
1375,13.75,-1.069417,-0.268325,-1.303384,0.225906,0.822083,0.077423
1376,13.76,-0.926536,-0.651112,-1.2308620000000001,0.268509,0.822083,0.11576800000000001
1377,13.77,-0.774105,-0.870286,-1.186958,0.25041199999999997,0.809296,0.134949
1378,13.78,-0.568973,-0.785018,-1.392584,0.177963,0.795456,0.130692
1379,13.79,-0.192419,-0.303584,-1.6403330000000003,0.088486,0.769882,0.129623
1380,13.8,0.025481000000000004,0.66459,-1.9309919999999998,0.034149,0.726212,0.143463
1381,13.81,0.208693,2.184096,-2.251976,0.046936,0.676147,0.187149
1382,13.82,0.647323,3.259686,-2.3881930000000002,0.100204,0.607971,0.24360700000000002
1383,13.83,1.153571,3.6070379999999997,-2.207777,0.150269,0.5206149999999999,0.286209
1384,13.84,1.60818,3.474168,-1.885228,0.161987,0.431137,0.31285100000000005
1385,13.85,1.638634,3.2916790000000002,-1.678307,0.154526,0.371475,0.328827
1386,13.86,1.230484,2.925724,-1.6484419999999997,0.155594,0.367218,0.33628800000000003
1387,13.87,0.7277020000000001,2.47095,-1.7194009999999997,0.17157,0.373611,0.343735
1388,13.88,0.204733,2.099646,-1.581619,0.131088,0.37254299999999996,0.383148
1389,13.89,-0.062345999999999985,1.724073,-1.131772,0.024567,0.348038,0.444946
1390,13.9,0.058721,1.2561120000000001,-0.28685400000000005,-0.077698,0.270279,0.524841
1391,13.91,0.182995,0.541722,0.854266,-0.163986,0.14032,0.619644
