,ts,ax,ay,az,wx,wy,wz
0,0.0,0.010898,-0.005219999999999999,-0.028962,0.008681999999999999,-0.011627,0.002991
1,0.01,-0.008403,-0.019377000000000002,-0.002935,0.005493,-0.011627,0.001923
2,0.02,-0.005744,-0.003904,-0.014336000000000002,0.008681999999999999,-0.01268,0.002991
3,0.03,-0.011784999999999999,-0.027478,0.013387999999999999,0.007614,-0.011627,0.001923
4,0.04,-0.013196000000000001,-0.0007479999999999988,0.028264999999999995,0.006546,-0.011627,0.001923
5,0.05,-0.0019209999999999989,0.0010150000000000005,0.026907999999999998,0.008681999999999999,-0.011627,0.0008539999999999999
6,0.06,-0.002461,0.024575,0.050495,0.007614,-0.010559,-0.00019800000000000004
7,0.07,-0.012436,0.010459,0.025296000000000003,0.010818000000000001,-0.009491,-0.00019800000000000004
8,0.08,-0.012084000000000001,0.025907,0.065066,0.014008000000000001,-0.0073549999999999996,-0.003403
9,0.09,-0.014022,0.022039,0.021488,0.014008000000000001,-0.0030980000000000005,-0.00019799999999999983
10,0.1,-0.0039989999999999965,0.020209,0.008676000000000003,0.014008000000000001,-0.0041659999999999996,-0.003403
11,0.11,-0.01084,-0.014283,0.007598000000000001,0.014008000000000001,-0.005234,-0.0023350000000000003
12,0.12,-0.007069,-0.028061000000000003,-0.017397,0.010818000000000001,-0.005234,-0.001266
13,0.13,-0.0036009999999999996,0.0036860000000000018,0.012314000000000005,0.008681999999999999,-0.0009609999999999999,-0.003403
14,0.14,-0.000903000000000001,-0.0024170000000000003,-0.016436000000000003,0.007614,0.0022280000000000004,-0.00019799999999999983
15,0.15,-0.04315,-0.045637,-0.002648000000000001,0.008681999999999999,0.002228,-0.0023350000000000003
16,0.16,-0.012692000000000005,-0.040256,-0.030537,0.008681999999999999,0.002228,-0.00019799999999999983
17,0.17,-0.024725999999999998,-0.030080000000000003,-0.052159000000000004,0.005493,9.200000000000008e-05,-0.00019800000000000004
18,0.18,-0.007333000000000002,-0.0058590000000000005,-0.015375,0.00015300000000000036,-0.002029,-0.00019799999999999996
19,0.19,0.007509,0.003854,-0.009879999999999995,0.0022890000000000002,-0.0009609999999999996,0.0008539999999999999
20,0.2,-0.007304999999999998,0.0005660000000000005,0.050422,0.003357,9.200000000000008e-05,-0.001266
21,0.21,0.019262,0.047288,0.080351,0.006546,0.004364,0.0008539999999999999
22,0.22,0.027462,0.019975,0.0454,0.00975,0.003296,-0.0023350000000000003
23,0.23,0.027219999999999998,0.026985000000000002,0.060113,0.016144,0.004364,-0.001266
24,0.24,0.044465,0.025211,0.048157,0.014008000000000001,0.00116,-0.003403
25,0.25,0.0030910000000000035,0.028038,0.022419,0.015075999999999999,0.002228,-0.0023350000000000003
26,0.26,0.019476,-0.0028660000000000005,-0.014651999999999997,0.014008000000000001,0.002228,-0.0023350000000000003
27,0.27,-0.003478,0.019631000000000003,-0.004312,0.012938999999999999,0.00116,-0.0023350000000000003
28,0.28,0.00237,0.01139,-0.023317,0.012938999999999999,0.004364,-0.004471
29,0.29,0.003614,-0.011267000000000001,-0.0017370000000000024,0.016144,9.200000000000008e-05,-0.00019800000000000004
30,0.3,0.032357,0.016364,-0.01484,0.017197,-0.002029,-0.0023350000000000003
31,0.31,0.046718,0.06210199999999999,-0.035271,0.017197,-0.005234,-0.0023350000000000003
32,0.32,0.012999999999999998,0.038564999999999995,-0.004759,0.017197,-0.005234,-0.003403
33,0.33,0.028105,0.018728,-0.002676,0.014008000000000001,-0.005234,-0.005524
34,0.34,-0.003621,0.020485,0.054577,0.019333000000000003,9.200000000000008e-05,-0.007659999999999999
35,0.35,-0.01905300000000001,-0.00547,0.05878099999999999,0.020401,0.003296,-0.006592
36,0.36,-0.00963,-0.018868000000000003,0.03599,0.021469,0.004364,-0.007659999999999999
37,0.37,-0.017577000000000002,-0.018851,0.038654,0.022537,0.004364,-0.008728
38,0.38,0.0036929999999999984,-0.003403,0.035670999999999994,0.021469,0.00116,-0.006592
39,0.39,-0.001552000000000001,-0.040915,-0.018547,0.020401,0.00116,-0.005524
40,0.4,0.009068000000000001,-0.008987999999999996,0.023974000000000002,0.021469,0.005432,-0.004471
41,0.41,0.016063,-0.008486,-0.005792,0.020401,0.002228,-0.006592
42,0.42,-0.0003030000000000012,0.013944999999999999,0.014943999999999997,0.02359,0.004364,-0.006592
43,0.43,-0.005592999999999999,-0.010739,-0.042218,0.02359,0.003296,-0.004471
44,0.44,-0.026389000000000003,-0.01618,-0.027681,0.022537,0.0064849999999999994,-0.003403
45,0.45,-0.007665999999999998,0.006348000000000001,-0.0008220000000000002,0.02359,0.0064849999999999994,-0.003403
46,0.46,0.010545,-0.004697999999999999,-0.027193000000000002,0.021469,0.007553,-0.003403
47,0.47,-0.009872,-0.028444999999999998,-0.019962999999999998,0.022537,0.0064849999999999994,-0.003403
48,0.48,0.003704,-0.048227,-0.020669,0.018265,0.008621,-0.003403
49,0.49,-0.013144,-0.055949,-0.039189999999999996,0.017197,0.012878,-0.0012660000000000002
50,0.5,-0.0013179999999999995,-0.037495,-0.027599000000000002,0.015075999999999999,0.015015,-0.0023350000000000003
51,0.51,-0.014191999999999998,-0.028581,-0.018844,0.014008000000000001,0.015015,-0.000198
52,0.52,0.000112000000000001,-0.01813,-0.004343999999999999,0.014008000000000001,0.015015,-0.0023350000000000003
53,0.53,-0.024731,-0.0006439999999999987,-0.035435,0.00975,0.012878,-0.000198
54,0.54,-0.0009210000000000016,-0.023708,-0.001234,0.005493,0.013947,-0.0023350000000000003
55,0.55,0.0039219999999999975,-0.02625,0.020134,0.006546,0.013947,-0.0023350000000000003
56,0.56,-0.0011859999999999993,0.004733,0.012237,0.006546,0.016083,-0.001266
57,0.57,0.050121,0.016513,0.056366999999999993,0.007614,0.019272,-0.0023350000000000003
58,0.58,0.011784000000000001,0.022556,0.05379,0.006546,0.017136000000000002,-0.001266
59,0.59,0.052196000000000006,0.048038,0.045614,0.012938999999999999,0.017136000000000002,-0.004471
60,0.6,0.049193,0.020555,0.048806999999999996,0.012938999999999999,0.016083,-0.004471
61,0.61,0.031863,0.044338,0.036238,0.017197,0.016083,-0.004471
62,0.62,0.0065780000000000005,0.017381999999999998,0.069866,0.019333000000000003,0.012878,-0.006592
63,0.63,-0.005344,0.054904999999999995,0.032794,0.020401,0.010757,-0.004471
64,0.64,0.003632,0.051975,0.012845000000000002,0.022537,0.009689,-0.006592
65,0.65,0.005384000000000001,0.027785,0.035591000000000005,0.02359,0.010757,-0.005524
66,0.66,0.006603,0.002337,-0.030263000000000005,0.024658000000000003,0.01181,-0.005524
67,0.67,0.0013290000000000005,-0.019473,-0.044101,0.025726,0.015015,-0.005524
68,0.68,-0.034046,-0.015121000000000002,-0.022154,0.025726,0.015015,-0.004471
69,0.69,-0.011294,-0.057899,-0.052353,0.026794,0.012878,-0.003403
70,0.7,0.0036700000000000014,-0.021071,-0.039082,0.022537,0.01181,-0.003403
71,0.71,0.0058100000000000035,-0.010892,-0.038533,0.021469,0.007553,-0.00019799999999999983
72,0.72,0.011223,0.018187,-0.053064,0.019333000000000003,0.007553,-0.004471
73,0.73,0.039564999999999996,0.0059,0.006873999999999999,0.019333000000000003,0.0064849999999999994,-0.0023350000000000003
74,0.74,0.029192000000000003,0.042725,-0.029285000000000002,0.017197,0.004364,-0.0012660000000000002
75,0.75,0.028469,0.05297,0.0017649999999999992,0.017197,0.0064849999999999994,-0.001266
76,0.76,0.018313,0.05418099999999999,0.019806,0.017197,0.007553,-0.004471
77,0.77,-0.008657999999999999,0.060747,0.034304,0.019333000000000003,0.008621,-0.0023350000000000003
78,0.78,0.006258,0.05545800000000001,0.039084,0.018265,0.01181,-0.005524
79,0.79,-0.028189999999999996,0.0259,0.00021900000000000044,0.021469,0.013947,-0.0023350000000000003
80,0.8,-0.054498000000000005,0.017598,-0.0015239999999999974,0.021469,0.016083,-0.003403
81,0.81,-0.029669,0.009406999999999999,0.000624,0.02359,0.02034,-0.00019799999999999983
82,0.82,-0.030902999999999996,-0.010046,-0.026738000000000005,0.020401,0.021408,0.0008539999999999999
83,0.83,-0.058526999999999996,0.0016639999999999995,-0.035561,0.020401,0.025664999999999997,0.0008539999999999999
84,0.84,-0.062563,0.00014699999999999956,-0.054908000000000005,0.02359,0.027801999999999997,0.002991
85,0.85,-0.017659,0.0005139999999999997,-0.025055,0.02359,0.028854,0.002991
86,0.86,0.003511,-0.010451,-0.046218,0.024658000000000003,0.027801999999999997,0.002991
87,0.87,-0.037396,-0.024755000000000003,-0.030681,0.025726,0.029922000000000004,0.001923
88,0.88,-0.000562,-0.034707999999999996,-0.047077999999999995,0.027863,0.029922000000000004,0.0051270000000000005
89,0.89,0.035075,-0.034017,-0.060816999999999996,0.028914999999999996,0.029922000000000004,0.002991
90,0.9,-0.008738,-0.06564600000000001,-0.054059,0.031052,0.030991,0.004059
91,0.91,0.006071,-0.048264999999999995,-0.09354900000000001,0.028914999999999996,0.030991,0.006195
92,0.92,-0.034496,-0.048333,-0.079965,0.029983999999999997,0.032059,0.006195
93,0.93,-0.0011920000000000006,-0.062832,-0.07762999999999999,0.029983999999999997,0.029922000000000004,0.006195
94,0.94,0.006934999999999999,-0.012955,-0.102415,0.032119999999999996,0.030991,0.0051270000000000005
95,0.95,0.003287,-0.036608999999999996,-0.08770399999999999,0.028914999999999996,0.029922000000000004,0.004059
96,0.96,-0.0009300000000000004,0.0038829999999999993,-0.08783400000000001,0.026794,0.028854,0.0008540000000000003
97,0.97,-0.009608,-0.018278,-0.07976,0.024658000000000003,0.027801999999999997,0.0008539999999999999
98,0.98,0.005676,0.006058000000000001,-0.075849,0.021469,0.027801999999999997,-0.0023350000000000003
99,0.99,9.500000000000132e-05,-0.017168,-0.056214,0.020401,0.026733,-0.003403
100,1.0,-0.002694,-0.06439500000000001,-0.078834,0.019333000000000003,0.025664999999999997,-0.004471
101,1.01,0.003286,-0.06399500000000001,-0.07447899999999999,0.014008000000000001,0.026733,-0.004471
102,1.02,0.01335,-0.039333,-0.034950999999999996,0.00975,0.023528999999999998,-0.004471
103,1.03,0.00020900000000000082,-0.019181,-0.026407999999999997,0.002289,0.023528999999999998,-0.003403
104,1.04,0.044661,0.0005840000000000003,0.006331,0.0022890000000000002,0.021408,-0.006592
105,1.05,0.035286,0.028926999999999998,0.033843,0.003357,0.022476,-0.005524
106,1.06,0.017715,0.012361,0.046682999999999995,0.004425,0.024597,-0.006592
107,1.07,0.021653,0.029264,0.082524,0.006546,0.023528999999999998,-0.005524
108,1.08,0.017748,-0.003176,0.024774,0.010818000000000001,0.02034,-0.005524
109,1.09,0.007997,0.012634999999999999,-0.0023919999999999983,0.014008000000000001,0.019272,-0.005524
110,1.1,-0.030218000000000002,-0.004968,-0.041701,0.012938999999999999,0.018203999999999998,-0.006592
111,1.11,-0.024725999999999998,0.0045969999999999995,-0.076157,0.00975,0.018203999999999998,-0.006592
112,1.12,-0.056458,0.0031730000000000005,-0.046389,0.007614,0.022476,-0.0023350000000000003
113,1.13,-0.058928999999999995,0.014159999999999999,0.007283999999999999,0.007614,0.023528999999999998,-0.004471
114,1.14,-0.07714299999999999,0.027417,-0.057459,0.011871,0.027801999999999997,-0.001266
115,1.15,-0.01354,0.009119,-0.026956,0.014008000000000001,0.025664999999999997,-0.001266
116,1.16,-0.030772000000000004,0.013405000000000002,-0.046841,0.014008000000000001,0.025664999999999997,-0.0012659999999999998
117,1.17,0.017971,0.033183,-0.06318700000000001,0.011871,0.026733,-0.0023350000000000003
118,1.18,0.002658000000000001,0.014144999999999996,-0.015753,0.010818000000000001,0.028854,-0.0023350000000000003
119,1.19,0.019012,0.0012969999999999993,0.011543,0.011871,0.028854,-0.001266
120,1.2,-0.01456,0.03656,0.024839,0.012938999999999999,0.030991,-0.0023350000000000003
121,1.21,0.022106999999999998,0.029381,0.011518000000000004,0.015075999999999999,0.033127,-0.00019800000000000004
122,1.22,0.023530000000000002,-0.008431000000000001,-0.006702999999999999,0.015075999999999999,0.03418,-0.001266
123,1.23,0.011643,-0.01902,-0.005394,0.015075999999999999,0.033127,-0.001266
124,1.24,0.026661,-0.030762,-0.028373000000000002,0.014008000000000001,0.03418,-0.001266
125,1.25,0.018991,-0.017838999999999997,-0.058974,0.012938999999999999,0.030991,-0.001266
126,1.26,0.028857,-0.025973000000000003,-0.049204000000000005,0.011871,0.03418,0.0008539999999999999
127,1.27,-0.0007480000000000001,-0.005731999999999999,-0.035537,0.010818000000000001,0.035248,-0.0012659999999999998
128,1.28,0.0032740000000000013,-0.004382999999999998,-0.050914999999999995,0.006546,0.03418,-0.0023350000000000003
129,1.29,0.014704000000000004,-0.018737,-0.047455000000000004,0.00975,0.033127,-0.001266
130,1.3,0.007304000000000001,-0.018372,-0.046385,0.010818000000000001,0.028854,-0.0023350000000000003
131,1.31,0.022886,-0.025405,-0.041471,0.011871,0.026733,0.0008539999999999999
132,1.32,0.004557,-0.036900999999999996,-0.023716,0.014008000000000001,0.022476,-0.0023350000000000003
133,1.33,-0.011108,-0.029296,-0.042934,0.011871,0.018203999999999998,-0.001266
134,1.34,0.01401,-0.005993,0.004240000000000001,0.010818000000000001,0.015015,0.0008539999999999999
135,1.35,0.027982999999999997,-0.026506000000000002,-0.0034709999999999984,0.004425,0.012878,0.001923
136,1.36,0.019862,-0.003058,0.052280999999999994,0.004425,0.010757,0.0008539999999999999
137,1.37,0.048375,-0.005932,0.004123,0.004425,0.008621,0.002991
138,1.38,0.040456,0.004671,0.008259,0.0022890000000000002,0.002228,0.0008539999999999999
139,1.39,0.044961,0.031917,0.055522,0.001221,0.004364,0.001923
140,1.4,0.039617,0.017284,0.044377999999999994,0.0022890000000000002,-0.0009610000000000002,-0.000198
141,1.41,0.037416000000000005,0.025103999999999998,0.08172,0.003357,0.002228,-0.001266
142,1.42,0.030241000000000007,0.007552,0.051698,0.001221,0.00116,-0.0023350000000000003
143,1.43,0.0029240000000000004,0.012144,0.069508,0.003357,0.002228,-0.0023350000000000003
144,1.44,-0.031124000000000002,-0.024748,0.076302,0.0022890000000000002,0.002228,-0.0023350000000000003
145,1.45,-0.003945000000000001,-0.0593,0.050343,0.001221,0.002228,-0.001266
146,1.46,-0.035953,-0.022181,-0.0032109999999999986,-0.001968,-0.0041659999999999996,0.001923
147,1.47,-0.017753,-0.041359,-0.008073000000000002,0.00015299999999999992,-0.0041659999999999996,-0.00019800000000000004
148,1.48,-0.007641999999999999,0.008458,0.004849,-0.003036,-0.010559,0.001923
149,1.49,-0.0030030000000000005,0.034926,-0.007823000000000002,-0.007294,-0.013748,0.0008539999999999999
150,1.5,0.027764999999999998,0.031485,0.011008,-0.006226,-0.014816,-0.00019799999999999996
151,1.51,0.010723,0.038148,0.042933,-0.007294,-0.016953,-0.00019800000000000004
152,1.52,0.024219,0.022218,0.046321,-0.006226,-0.014816,-0.005524
153,1.53,0.015276,0.030846,0.06702999999999999,-0.006226,-0.014816,-0.003403
154,1.54,-0.008414,-0.008501,0.075431,-0.006226,-0.01268,-0.004471
155,1.55,-0.004021000000000001,-0.0013300000000000007,0.07077699999999999,-0.006226,-0.01268,-0.0023350000000000003
156,1.56,-0.01851,0.001137,0.0189,-0.005173,-0.011627,-0.004471
157,1.57,-0.022713999999999998,-7.200000000000003e-05,-0.0030389999999999983,-0.003036,-0.014816,-0.004471
158,1.58,-0.030551,-0.005869,-0.004692000000000003,-0.003036,-0.014816,-0.0023350000000000003
159,1.59,-0.019597,0.016198999999999998,-0.043939,-0.0009,-0.010559,-0.004471
160,1.6,-0.036148,-0.018405,-0.006258,-0.005173,-0.01268,-0.003403
161,1.61,-0.003554999999999999,-0.029847000000000002,-0.044735000000000004,-0.005173,-0.01268,-0.001266
162,1.62,-0.048308,0.002089999999999998,-0.009075,-0.006226,-0.013748,-0.0023350000000000003
163,1.63,-0.021599,-0.010308,-0.021521,-0.006226,-0.013748,-0.0012659999999999998
164,1.64,-0.022619,0.002451000000000002,-0.005239000000000001,-0.00943,-0.014816,-0.00019799999999999996
165,1.65,0.00014899999999999983,0.028499,0.0054,-0.008362,-0.019073,0.0008539999999999999
166,1.66,0.005328000000000002,0.046129,0.00478,-0.007294,-0.018005,0.0008539999999999999
167,1.67,0.004149,0.017746,0.031001,-0.00943,-0.020142,0.0008539999999999999
168,1.68,0.008376999999999999,0.038747000000000004,0.034709,-0.008362,-0.019073,0.002991
169,1.69,0.0007710000000000009,0.01871,0.035628,-0.003036,-0.013748,0.002991
170,1.7,-0.019653999999999998,0.036024,0.013323000000000002,-0.003036,-0.013748,0.002991
171,1.71,-0.010178,-0.007254999999999997,0.0028049999999999985,-0.0009000000000000002,-0.011627,0.002991
172,1.72,-0.05821599999999999,0.006277999999999999,-0.000833,0.00015299999999999992,-0.009491,0.0008539999999999999
173,1.73,-0.053409000000000005,0.020115,0.012905000000000002,0.001221,-0.0073549999999999996,0.001923
174,1.74,-0.040877,0.006745999999999999,0.010300999999999998,0.001221,-0.006287,0.0008539999999999999
175,1.75,0.014989,-0.007593000000000001,-0.0034100000000000003,0.003357,-0.008423,0.002991
176,1.76,-0.007724999999999998,-0.0050479999999999995,-0.003522000000000001,0.0022890000000000002,-0.009491,0.001923
177,1.77,-0.041663,-0.0014730000000000001,-0.013588,0.004425,-0.010559,0.0008540000000000003
178,1.78,-0.033691000000000006,-0.034095,-0.031769,0.001221,-0.011627,0.0008539999999999999
179,1.79,0.034515999999999984,0.012977,-0.029514999999999996,0.000153,-0.011627,0.002991
180,1.8,0.013549,-0.001991,-0.005305999999999997,-0.0009,-0.013748,0.002991
181,1.81,-0.011247,0.016428,0.0030260000000000013,-0.0009,-0.010559,0.001923
182,1.82,0.024184,0.011047000000000005,-0.029166,-0.001968,-0.008423,0.001923
183,1.83,0.024269,0.008118999999999998,-0.046002,-0.001968,-0.006287,-0.0012659999999999998
184,1.84,-0.001861,-0.046370999999999996,-0.041979,-0.004105,-0.0073549999999999996,-0.001266
185,1.85,0.0017649999999999999,0.0023809999999999977,-0.064738,-0.005173,-0.010559,-0.001266
186,1.86,-0.028350999999999998,-0.00531,-0.02239,-0.00943,-0.013748,-0.001266
187,1.87,-0.008801999999999997,0.010901999999999998,-0.016937,-0.010498,-0.013748,-0.001266
188,1.88,-0.01082,-0.0002649999999999996,0.019267,-0.013687000000000001,-0.013748,-0.0023350000000000003
189,1.89,-0.043224,-0.016012000000000002,0.01023,-0.013687000000000001,-0.01268,0.0008539999999999999
190,1.9,-0.026420999999999997,-0.014427000000000002,0.013246,-0.010498,-0.010559,-0.001266
191,1.91,0.009102,-0.0027450000000000013,0.031401,-0.011566,-0.011627,-0.000198
192,1.92,-0.024206000000000002,0.04173,0.032195,-0.011566,-0.013748,-0.001266
193,1.93,0.0033630000000000005,0.042207999999999996,0.046363999999999995,-0.008362,-0.011627,-0.0023350000000000003
194,1.94,0.003945000000000001,0.041520999999999995,0.050309,-0.003036,-0.010559,-0.00019800000000000004
195,1.95,0.024745000000000003,0.0286,0.10739800000000001,0.00015299999999999992,-0.006287,0.0008539999999999997
196,1.96,0.033319999999999995,-0.0008009999999999996,0.021334,0.0022890000000000002,-0.009491,0.0008539999999999999
197,1.97,0.0005099999999999966,-0.032045,0.010962000000000001,-0.0009,-0.008423,0.0008539999999999999
198,1.98,0.004703,-0.044565,-0.012972,-0.001968,-0.01268,-0.001266
199,1.99,0.005480999999999996,-0.031579,-0.049143,-0.007294,-0.008423,-0.001266
200,2.0,-0.06097999999999999,-0.047952,-0.06226,-0.011566,-0.0073549999999999996,0.001923
201,2.01,-0.065626,-0.044269,-0.023705,-0.013687000000000001,-0.006287,0.002991
202,2.02,-0.049888,-0.00013400000000000215,-0.055946,-0.012619,-0.0073549999999999996,0.004059
203,2.03,-0.028118,-0.005788000000000001,-0.053407,-0.011566,-0.003098,0.004059
204,2.04,-0.023597999999999997,0.002125,-0.008743,-0.010498,-0.005234,0.007248
205,2.05,-0.015087,0.019441000000000003,-0.028917,-0.014755,-0.0073549999999999996,0.008316
206,2.06,-0.005981,0.022774000000000003,0.016188,-0.015823,-0.0073549999999999996,0.004059
207,2.07,-0.007025999999999999,0.01054,0.009188000000000002,-0.019012,-0.0073549999999999996,0.006195
208,2.08,-0.028168,0.005145,0.054823000000000004,-0.016891,-0.0009610000000000008,0.002991
209,2.09,-0.0077160000000000015,0.019874,0.075251,-0.019012,0.00116,0.001923
210,2.1,-0.004785,-0.007337000000000001,0.050944,-0.017943999999999998,0.004364,0.001923
211,2.11,0.004792,0.005956,0.059716,-0.017943999999999998,0.007553,-0.0012659999999999998
212,2.12,0.014441000000000002,-0.03,0.022981,-0.013687000000000001,0.008621,-0.001266
213,2.13,0.021536000000000003,0.0001490000000000007,0.022307,-0.015823,0.01181,-0.001266
214,2.14,0.04047,0.003201,0.042419,-0.013687000000000001,0.009689,-0.0023350000000000003
215,2.15,0.0038110000000000023,0.021235,0.010089,-0.016891,0.008621,0.001923
216,2.16,0.008529,0.037183,-0.003868999999999997,-0.016891,0.008621,-0.0023350000000000003
217,2.17,0.009561,0.015998,-0.015949,-0.016891,0.0064849999999999994,-0.00019799999999999996
218,2.18,0.017942,0.013141999999999996,0.034687,-0.017943999999999998,0.004364,-0.001266
219,2.19,0.023013,0.002383,0.017419999999999998,-0.013687000000000001,0.002228,-0.000198
220,2.2,0.039371,0.007763,0.018193,-0.012619,0.002228,-0.000198
221,2.21,-0.006163,-0.009858,0.008211,-0.010498,0.00116,0.0008539999999999999
222,2.22,-0.011618999999999999,-0.027863,-0.051817999999999996,-0.010498,9.200000000000008e-05,0.002991
223,2.23,-0.00172,-0.029685000000000003,-0.072243,-0.013687000000000001,-0.0009609999999999999,0.002991
224,2.24,-0.012324,-0.042706,-0.029294999999999998,-0.016891,0.002228,0.006195
225,2.25,0.0034119999999999997,-0.022952,-0.05378200000000001,-0.017943999999999998,0.00116,0.004059
226,2.26,0.014299000000000003,-0.030088999999999998,-0.021301,-0.022216999999999997,0.002228,0.004059
227,2.27,-0.006048,-0.014053,-0.017418,-0.022216999999999997,0.00116,0.0051270000000000005
228,2.28,0.038436,-0.0011910000000000002,-0.021733000000000002,-0.022216999999999997,9.200000000000008e-05,0.004059
229,2.29,0.018014,0.033560999999999994,-0.009719,-0.020081,9.2e-05,0.006195
230,2.3,0.004638000000000001,0.052128999999999995,0.044220999999999996,-0.019012,-0.003098,0.004059
231,2.31,0.022659000000000002,0.002827000000000003,0.010888000000000002,-0.019012,-0.002029,0.002991
232,2.32,0.019441,0.018226,0.038620999999999996,-0.014755,-0.0009609999999999999,0.001923
233,2.33,0.050772000000000005,0.025209,0.034227999999999995,-0.013687000000000001,0.00116,0.0051270000000000005
234,2.34,0.041270999999999995,0.025638,0.008256,-0.011566,9.2e-05,0.004059
235,2.35,0.003792,0.004111,0.013779999999999995,-0.017943999999999998,0.00116,0.001923
236,2.36,0.002333,-0.024827000000000002,-0.027516000000000002,-0.012619,9.2e-05,0.002991
237,2.37,0.007899,0.001607,-0.009599,-0.016891,-0.002029,0.002991
238,2.38,0.022518,-0.020077,-0.056162000000000004,-0.016891,-0.0009609999999999999,0.004059
239,2.39,0.019790000000000002,0.022905000000000002,-0.012532,-0.016891,-0.003098,0.004059
240,2.4,0.03102,-0.005476,-0.027723,-0.019012,-0.002029,0.004059
241,2.41,0.021169,-0.017639,-0.0044170000000000025,-0.020081,-0.0041659999999999996,0.0051270000000000005
242,2.42,-0.0004629999999999999,0.011693,-0.009564,-0.017943999999999998,-0.006287,0.0051270000000000005
243,2.43,0.025421,-0.006104,-0.001509,-0.015823,-0.010559,0.006195
244,2.44,0.042321,0.003626,-0.010746,-0.015823,-0.014816,0.006195
245,2.45,-0.0022450000000000005,0.028076,0.025158000000000003,-0.015823,-0.013748,0.006195
246,2.46,0.0068000000000000005,0.03331,-0.011207000000000002,-0.014755,-0.014816,0.008316
247,2.47,0.005836,0.030356999999999995,0.025293,-0.014755,-0.013748,0.006195
248,2.48,0.009977,0.029368000000000002,0.0053219999999999995,-0.013687000000000001,-0.010559,0.004059
249,2.49,-0.018484999999999998,0.021999,-0.008907,-0.012619,-0.011627,0.004059
250,2.5,0.012669,0.008111999999999998,-0.02628,-0.011566,-0.0073549999999999996,0.002991
251,2.51,-0.0014070000000000005,0.0016300000000000002,-0.026881,-0.010498,-0.005234,0.001923
252,2.52,0.008267,-0.028484,-0.04544999999999999,-0.012619,-0.005234,0.004059
253,2.53,-0.005779,-0.019819999999999997,-0.060203,-0.012619,-0.0073549999999999996,0.002991
254,2.54,-0.024069,-0.047628,-0.027739000000000003,-0.010498,-0.0073549999999999996,0.0051270000000000005
255,2.55,-0.025565,-0.066356,-0.024346,-0.014755,-0.011627,0.007248
256,2.56,-0.002754999999999997,-0.010709999999999999,-0.061416,-0.014755,-0.014816,0.006195
257,2.57,-0.003442,-0.0009519999999999999,-0.022749000000000002,-0.014755,-0.014816,0.0051270000000000005
258,2.58,-0.023262,0.025764,-0.010871,-0.013687000000000001,-0.010559,0.007248
259,2.59,0.009000000000000001,0.019033,-0.006053,-0.012619,-0.009491,0.0051270000000000005
260,2.6,-0.036081,0.031139,-0.0022420000000000014,-0.015823,-0.010559,0.002991
261,2.61,-0.027522,0.020224000000000002,-0.017672,-0.012619,-0.006287,0.002991
262,2.62,-0.007435,0.00763,-0.017961,-0.010498,-0.006287,0.002991
263,2.63,-0.059145,0.033666,-0.012151000000000002,-0.012619,-0.008423,0.004059
264,2.64,0.0007330000000000001,0.028117,-0.025481999999999998,-0.011566,-0.008423,0.0051270000000000005
265,2.65,-0.016166999999999997,-0.025066,0.00024300000000000103,-0.014755,-0.0041659999999999996,0.004059
266,2.66,0.035762,-0.028416000000000004,-0.005597,-0.00943,-0.003098,0.004059
267,2.67,-0.0050770000000000025,-0.007092000000000002,-0.015229999999999997,-0.008362,-0.005234,0.006195
268,2.68,0.013549999999999998,-0.014059,-0.035959,-0.006226,-0.0073549999999999996,0.004059
269,2.69,0.033003,-0.023975,-0.013009,-0.008362,-0.011627,0.0008540000000000003
270,2.7,0.049145999999999995,0.013935,-0.0026850000000000003,-0.00943,-0.014816,0.002991
271,2.71,0.036742000000000004,0.000196,-0.019941,-0.008362,-0.020142,0.001923
272,2.72,0.007399000000000003,-0.014528,0.021662,-0.007294,-0.02121,-0.000198
273,2.73,0.03417,-0.030722000000000003,0.008879000000000001,-0.00943,-0.023331,0.0008539999999999999
274,2.74,0.026722000000000003,-0.021907,0.009685999999999995,-0.010498,-0.024399,-0.000198
275,2.75,0.007731999999999998,0.00468,-0.0017020000000000006,-0.013687000000000001,-0.027602999999999996,-0.0023349999999999994
276,2.76,0.012074,0.03409100000000001,-0.025682,-0.016891,-0.027602999999999996,-0.001266
277,2.77,0.024291999999999998,0.029616000000000003,0.018838999999999998,-0.016891,-0.026535000000000003,-0.001266
278,2.78,0.010205,0.009805,0.066648,-0.016891,-0.023331,-0.003403
279,2.79,0.050594,0.038457,0.043037,-0.016891,-0.02121,-0.003403
280,2.8,0.033,-0.036855,0.034908999999999996,-0.014755,-0.019073,-0.003403
281,2.81,4.000000000000531e-06,-0.014830000000000001,0.004108999999999998,-0.015823,-0.025467,-0.0023350000000000003
282,2.82,0.015605,-0.032694,0.010045000000000002,-0.021149,-0.025467,-0.003403
283,2.83,0.0060079999999999995,-0.004272,-0.021475,-0.017943999999999998,-0.027602999999999996,-0.003403
284,2.84,-0.028941,-0.0050490000000000005,0.056216999999999996,-0.021149,-0.027602999999999996,-0.0023350000000000003
285,2.85,-0.016711,0.0033060000000000003,0.034502,-0.017943999999999998,-0.023331,-0.004471
286,2.86,-0.005169,0.047069,0.070427,-0.012619,-0.022278,-0.004471
287,2.87,-0.014688,0.049569,0.07430199999999999,-0.008362,-0.016953,-0.006592
288,2.88,0.0002500000000000002,0.042115,0.094966,-0.007294,-0.011627,-0.006592
289,2.89,0.016148,0.025591,0.099477,-0.005173,-0.0073549999999999996,-0.004471
290,2.9,-0.031609,0.041135000000000005,0.08177899999999999,-0.007294,9.200000000000008e-05,-0.004471
291,2.91,-0.053105999999999993,0.043982,0.05510399999999999,-0.006226,0.008621,-0.0023350000000000003
292,2.92,-0.069441,0.039289,0.009785999999999996,-0.005173,0.010757,-0.0023350000000000003
293,2.93,-0.045159,-0.003191,-0.056171000000000006,-0.008362,0.017136000000000002,0.001923
294,2.94,-0.052467999999999994,-0.025986000000000002,-0.067236,-0.011566,0.015015,0.001923
295,2.95,0.013249,-0.03356,-0.140999,-0.014755,0.016083,0.002991
296,2.96,0.039599,-0.058661000000000005,-0.139312,-0.016891,0.009689,0.004059
297,2.97,0.053778,-0.025455000000000002,-0.156817,-0.020081,0.004364,0.008316
298,2.98,0.081384,0.002386,-0.136899,-0.021149,-0.002029,0.010452
299,2.99,0.135516,0.029751,-0.11655399999999999,-0.022216999999999997,-0.006287,0.01152
300,3.0,0.143819,0.040635000000000004,-0.084248,-0.020081,-0.009491,0.012573
301,3.01,0.113102,0.022946,-0.077997,-0.016891,-0.01268,0.01152
302,3.02,0.073507,0.019083000000000003,-0.06454800000000001,-0.015823,-0.015884,0.010452
303,3.03,0.092337,0.005419,-0.075188,-0.008362,-0.019073,0.01152
304,3.04,0.069365,0.013762999999999996,-0.097495,-0.010498,-0.024399,0.010452
305,3.05,0.055166999999999994,0.026677999999999997,-0.11003900000000001,-0.015823,-0.030792,0.014709
306,3.06,0.067126,0.076782,-0.05806,-0.029663,-0.044647000000000006,0.016846
307,3.07,0.076822,0.11618099999999999,0.001131999999999994,-0.040313999999999996,-0.054229999999999993,0.018966999999999998
308,3.08,0.148918,0.12314000000000001,0.016978999999999998,-0.045654,-0.055298,0.021103
309,3.09,0.188272,0.14763800000000002,0.061749,-0.050980000000000004,-0.048904,0.021103
310,3.1,0.214209,0.099264,0.030755,-0.06163,-0.033997,0.015778
311,3.11,0.180068,0.095583,-0.035616000000000016,-0.079742,-0.0073549999999999996,0.013641
312,3.12,0.081954,0.056111,-0.021238,-0.10104400000000001,0.018203999999999998,0.014709
313,3.13,-0.030971999999999982,0.013987999999999999,0.0035540000000000007,-0.131927,0.038452,0.01152
314,3.14,-0.112811,0.009146,0.068643,-0.162827,0.057616999999999995,0.01152
315,3.15,-0.110419,-0.019194,0.207323,-0.177734,0.067215,0.009384
316,3.16,-0.07574199999999999,-0.043324,0.248266,-0.173477,0.079987,0.010452
317,3.17,-0.018598,-0.094233,0.21582600000000002,-0.163895,0.090652,0.012573
318,3.18,0.09686,-0.139876,0.127985,-0.145782,0.09703099999999999,0.015778
319,3.19,0.231254,-0.16220199999999999,0.013204999999999995,-0.132996,0.09277300000000001,0.018966999999999998
320,3.2,0.40810100000000005,-0.171535,-0.054798,-0.115952,0.081055,0.020035
321,3.21,0.5491229999999999,-0.147568,-0.166709,-0.10423299999999999,0.07254,0.013641
322,3.22,0.605655,-0.14196199999999998,-0.28265500000000005,-0.089325,0.067215,0.009384
323,3.23,0.624429,-0.159667,-0.382833,-0.081863,0.062943,0.0008539999999999997
324,3.24,0.5467989999999999,-0.12183,-0.5256890000000001,-0.07547000000000001,0.060822,-0.011917
325,3.25,0.507659,-0.12595,-0.662243,-0.077606,0.056563999999999996,-0.01619
326,3.26,0.44893999999999995,-0.134794,-0.722267,-0.081863,0.050171,-0.017242
327,3.27,0.39315900000000004,-0.054451,-0.7890729999999999,-0.091446,0.040573000000000005,-0.021515
328,3.28,0.318294,-0.084141,-0.779888,-0.09890700000000001,0.035248,-0.022568
329,3.29,0.331892,-0.095638,-0.801226,-0.11276199999999999,0.026733,-0.021515
330,3.3,0.38048899999999997,-0.084255,-0.764509,-0.124481,0.018203999999999998,-0.020447
331,3.31,0.44360600000000006,-0.09778099999999999,-0.741059,-0.139389,0.0064849999999999994,-0.018311
332,3.32,0.479655,-0.06264,-0.689409,-0.156433,-0.0020289999999999987,-0.019379
333,3.33,0.448074,-0.065492,-0.615152,-0.173477,-0.005234,-0.021515
334,3.34,0.513412,-0.055027,-0.552705,-0.187332,-0.003098,-0.020447
335,3.35,0.48963,-0.028901,-0.466276,-0.196915,-0.0009609999999999999,-0.021515
336,3.36,0.47717299999999996,0.002074,-0.416609,-0.204376,0.002228,-0.025772000000000003
337,3.37,0.42671400000000004,0.017015,-0.37280399999999997,-0.211823,0.01181,-0.035355000000000004
338,3.38,0.395485,0.054047000000000005,-0.364367,-0.212891,0.017136000000000002,-0.039612
339,3.39,0.365313,0.074287,-0.366018,-0.20863299999999999,0.019272,-0.049210000000000004
340,3.4,0.34858,0.07416,-0.356152,-0.20863299999999999,0.019272,-0.055603
341,3.41,0.344204,0.117631,-0.34899600000000003,-0.20544400000000002,0.017136000000000002,-0.059860000000000003
342,3.42,0.337152,0.11383399999999999,-0.319758,-0.20649699999999999,0.019272,-0.06304900000000001
343,3.43,0.418886,0.13343,-0.301872,-0.213959,0.022476,-0.066254
344,3.44,0.472052,0.139455,-0.24427600000000002,-0.223541,0.022476,-0.06944299999999999
345,3.45,0.500837,0.144465,-0.20335599999999998,-0.234192,0.017136000000000002,-0.07157899999999999
346,3.46,0.512224,0.173019,-0.167978,-0.246979,0.023528999999999998,-0.080093
347,3.47,0.533879,0.088273,-0.097474,-0.258698,0.026733,-0.086487
348,3.48,0.48355299999999996,0.051115,-0.046849,-0.26509099999999997,0.037384,-0.095016
349,3.49,0.471837,-0.016273,-0.075709,-0.271484,0.06189,-0.108856
350,3.5,0.312138,-0.160485,-0.051713,-0.272552,0.089584,-0.12271099999999999
351,3.51,0.13614400000000002,-0.374712,-0.05544299999999999,-0.271484,0.139648,-0.131226
352,3.52,-0.195161,-0.569955,-0.097795,-0.261902,0.202499,-0.132294
353,3.53,-0.547034,-0.814474,-0.152996,-0.246979,0.271744,-0.1259
354,3.54,-0.8952100000000001,-0.9583010000000001,-0.273381,-0.219284,0.333527,-0.116318
355,3.55,-1.166042,-0.993079,-0.414691,-0.176682,0.379333,-0.097137
356,3.56,-1.336363,-0.834991,-0.544689,-0.130875,0.398514,-0.07157899999999999
357,3.57,-1.3114379999999999,-0.641188,-0.674952,-0.081863,0.397446,-0.04068
358,3.58,-1.121738,-0.366768,-0.8193959999999999,-0.044586,0.385727,-0.009796
359,3.59,-0.9122399999999999,-0.022445999999999997,-0.9218370000000001,-0.017943999999999998,0.35482800000000003,0.014708999999999996
360,3.6,-0.63493,0.41385,-1.093382,-0.004105,0.303696,0.032822000000000004
361,3.61,-0.314265,0.918069,-1.248225,0.011871,0.23233,0.034943
362,3.62,-0.09486599999999999,1.302434,-1.4458469999999999,0.027863,0.155624,0.033889999999999997
363,3.63,0.090985,1.5768719999999998,-1.548096,0.038513,0.082123,0.023239
364,3.64,0.22584200000000001,1.732362,-1.574759,0.035309,0.023528999999999998,0.008316
365,3.65,0.22219,1.6579119999999998,-1.471017,0.047028,-0.030792,-0.007659999999999998
366,3.66,0.11033599999999999,1.513083,-1.3797700000000002,0.047028,-0.046768000000000004,-0.023636
367,3.67,-0.085509,1.277187,-1.221633,0.050232,-0.05209400000000001,-0.046005000000000004
368,3.68,-0.42863100000000004,0.8967370000000001,-1.087703,0.048096,-0.036118,-0.072647
369,3.69,-0.80865,0.48276,-0.969519,0.035309,-0.003098,-0.093948
370,3.7,-1.1305479999999999,0.09940800000000001,-0.9229959999999999,0.019333000000000003,0.03418,-0.11738599999999999
371,3.71,-1.2860639999999999,-0.246711,-0.9412360000000001,-0.0030360000000000005,0.062943,-0.13443
372,3.72,-1.394109,-0.625071,-0.9683309999999999,-0.017943999999999998,0.079987,-0.14721700000000001
373,3.73,-1.340568,-0.9794350000000001,-0.9552120000000001,-0.037125,0.09491000000000001,-0.14827
374,3.74,-1.159366,-1.247118,-1.000787,-0.058426,0.09703099999999999,-0.13868699999999998
375,3.75,-0.867993,-1.358842,-1.0393780000000001,-0.089325,0.095978,-0.11738599999999999
376,3.76,-0.603538,-1.2946360000000001,-1.093844,-0.125549,0.087448,-0.095016
377,3.77,-0.30486199999999997,-1.1044530000000001,-1.055658,-0.163895,0.069336,-0.06944299999999999
378,3.78,-0.136434,-0.851518,-1.015564,-0.187332,0.044846,-0.051330999999999995
379,3.79,-0.056720000000000007,-0.5494180000000001,-0.9359870000000001,-0.192657,0.019272000000000004,-0.034286000000000004
380,3.8,-0.09364199999999999,-0.22501300000000002,-0.8686790000000001,-0.176682,-0.009491,-0.022568
381,3.81,-0.22775700000000001,0.05327000000000001,-0.8489479999999999,-0.143646,-0.040375,-0.011917
382,3.82,-0.400007,0.20935399999999998,-0.854083,-0.099976,-0.071274,-0.0023349999999999994
383,3.83,-0.601449,0.28946,-0.8716440000000001,-0.047775,-0.094711,0.009384
384,3.84,-0.753783,0.296087,-0.93415,-0.0009000000000000016,-0.110687,0.022171
385,3.85,-0.8335100000000001,0.315091,-1.049081,0.034241,-0.122406,0.031754000000000004
386,3.86,-0.87202,0.287454,-1.156962,0.06514,-0.129868,0.039215
387,3.87,-0.898184,0.267099,-1.232602,0.091766,-0.13945,0.037079
388,3.88,-0.81666,0.173048,-1.337233,0.10987899999999999,-0.145844,0.034943
389,3.89,-0.647857,0.310758,-1.453123,0.119476,-0.154358,0.021103
390,3.9,-0.527338,0.329633,-1.584069,0.134384,-0.17886400000000002,0.007248
391,3.91,-0.376278,0.271947,-1.612606,0.137573,-0.198044,-0.007660000000000002
392,3.92,-0.20310999999999998,0.24252600000000002,-1.6895959999999999,0.134384,-0.220413,-0.020447
393,3.93,-0.136008,0.24797800000000003,-1.8123040000000001,0.130127,-0.242783,-0.030029000000000004
394,3.94,-0.010529999999999998,0.257738,-1.888612,0.126923,-0.276871,-0.033234
395,3.95,0.05052,0.320657,-1.950475,0.124802,-0.32054099999999996,-0.033234
396,3.96,0.021615000000000002,0.468307,-2.019042,0.123734,-0.37487800000000004,-0.033234
397,3.97,-0.080616,0.7130989999999999,-2.0538119999999997,0.118408,-0.437729,-0.032166
398,3.98,-0.165161,0.937542,-2.031789,0.120529,-0.5154880000000001,-0.034286000000000004
399,3.99,-0.285903,1.264649,-1.9372650000000002,0.134384,-0.587921,-0.042816
400,4.0,-0.414547,1.580916,-1.8703610000000002,0.16314700000000001,-0.650772,-0.055603
401,4.01,-0.560055,1.841492,-1.8105200000000001,0.201492,-0.706177,-0.06304900000000001
402,4.02,-0.733541,1.992543,-1.823708,0.251556,-0.750916,-0.055603
403,4.03,-1.000858,2.138884,-1.909704,0.300568,-0.786072,-0.034286000000000004
404,4.04,-1.240246,2.305951,-1.874525,0.327194,-0.818024,-0.008728
405,4.05,-1.436125,2.577805,-1.7190020000000001,0.31868,-0.851044,0.006194999999999999
406,4.06,-1.468652,3.213319,-1.601831,0.285645,-0.874481,0.009384
407,4.07,-1.2119790000000001,3.688452,-1.3827040000000002,0.24197399999999997,-0.8830110000000001,-0.004471
408,4.08,-0.9722540000000001,3.5899300000000003,-0.8569640000000001,0.21534699999999998,-0.808441,-0.028961
409,4.09,-0.9799049999999999,2.825825,-0.03896699999999997,0.199371,-0.629471,-0.049210000000000004
410,4.1,-0.922336,1.778488,0.761777,0.173798,-0.43879700000000005,-0.061996
411,4.11,-0.9145760000000001,0.769135,1.307018,0.119476,-0.30456500000000003,-0.06944299999999999
412,4.12,-0.6660470000000001,-0.16254100000000005,1.69809,0.033188,-0.227875,-0.081161
413,4.13,-0.183047,-0.9510209999999999,1.9466139999999998,-0.091446,-0.239594,-0.10246300000000001
414,4.14,0.42400200000000005,-1.7023240000000002,2.187401,-0.204376,-0.345047,-0.11845399999999999
415,4.15,0.9869129999999999,-2.337669,2.342206,-0.270416,-0.46756000000000003,-0.12803599999999998
416,4.16,1.1537879999999998,-2.493687,2.234048,-0.269348,-0.542114,-0.130173
417,4.17,1.277009,-2.250661,1.9455040000000001,-0.23100300000000001,-0.5336,-0.090744
418,4.18,1.4138190000000002,-1.856121,1.510765,-0.174545,-0.45903,-0.05665599999999999
419,4.19,1.341246,-1.201573,0.982933,-0.140457,-0.359955,-0.025772000000000003
420,4.2,1.406909,-0.43633299999999997,0.6530739999999999,-0.15004,-0.28112800000000004,-0.005524
421,4.21,1.08459,0.415221,0.641257,-0.178802,-0.226807,0.0051270000000000005
422,4.22,0.831649,1.131105,0.893049,-0.197983,-0.187393,0.037079
423,4.23,0.579444,1.5260479999999998,1.0627229999999999,-0.16922,-0.186325,0.074371
424,4.24,0.33988,1.7296610000000001,1.102007,-0.102112,-0.206558,0.123367
425,4.25,0.21107199999999998,1.5650549999999999,0.9629709999999999,-0.006226000000000002,-0.229996,0.180893
426,4.26,0.34178400000000003,1.109429,0.587277,0.101364,-0.268341,0.23628200000000002
427,4.27,0.466052,0.535483,0.21374400000000002,0.16633599999999998,-0.331192,0.288483
428,4.28,0.557505,-0.15953199999999995,0.065862,0.213211,-0.396179,0.31510900000000003
429,4.29,0.704499,-0.730617,-0.196145,0.238785,-0.41535900000000003,0.323639
430,4.3,0.822933,-1.268734,-0.479705,0.250504,-0.41748,0.308716
431,4.31,0.8437629999999999,-1.861989,-0.825672,0.23345900000000003,-0.389786,0.282089
432,4.32,0.658316,-2.3046889999999998,-1.098674,0.218536,-0.36528,0.24693299999999999
433,4.33,0.5301,-2.703906,-1.441957,0.179123,-0.32054099999999996,0.214981
434,4.34,0.387602,-2.979926,-1.628047,0.110947,-0.28433200000000003,0.190475
435,4.35,0.145287,-3.057089,-1.703987,0.041701999999999996,-0.265152,0.170242
436,4.36,-0.024528999999999992,-3.0272080000000003,-1.716116,-0.027542000000000004,-0.244919,0.160645
437,4.37,-0.133428,-2.736469,-1.594195,-0.099976,-0.22254899999999997,0.168106
438,4.38,-0.233279,-2.336319,-1.363393,-0.151108,-0.19911199999999998,0.169174
439,4.39,-0.320419,-2.100893,-1.126147,-0.174545,-0.165024,0.16171300000000002
440,4.4,-0.269085,-1.640698,-0.931348,-0.184128,-0.12454200000000001,0.144669
441,4.41,-0.260562,-1.233635,-0.720797,-0.176682,-0.0979,0.115906
442,4.42,-0.117693,-0.760135,-0.650728,-0.146851,-0.059555,0.096741
443,4.43,-0.028852000000000006,-0.361317,-0.632545,-0.103165,-0.020142,0.067978
444,4.44,0.147798,-0.187681,-0.7011350000000001,-0.05949400000000001,0.026733,0.042404000000000004
445,4.45,0.358658,-0.177031,-0.8552350000000001,-0.025406,0.078934,0.018966999999999998
446,4.46,0.45232,-0.284629,-1.077715,-0.0030360000000000005,0.124741,-0.00019800000000000023
447,4.47,0.496679,-0.352246,-1.24203,0.014008000000000001,0.159882,-0.018311
448,4.48,0.447166,-0.35773,-1.393657,0.022537,0.190781,-0.031097000000000003
449,4.49,0.298898,-0.23602399999999998,-1.4801959999999998,0.024658000000000003,0.227005,-0.031097000000000003
450,4.5,0.199574,-0.035844,-1.4873239999999999,0.031052,0.272812,-0.024704
451,4.51,0.039487000000000015,0.32447,-1.508027,0.041701999999999996,0.31541399999999997,-0.009796
452,4.52,-0.062984,0.79656,-1.486199,0.066208,0.33778400000000003,0.01152
453,4.53,-0.0012829999999999994,1.374673,-1.5075479999999999,0.096039,0.343109,0.042404000000000004
454,4.54,0.131773,1.8115970000000001,-1.505716,0.142899,0.33778400000000003,0.075424
455,4.55,0.226683,2.121922,-1.466486,0.20575,0.317551,0.111649
456,4.56,0.34319,2.269409,-1.508673,0.273926,0.330338,0.15213
457,4.57,0.347898,2.436249,-1.745683,0.330399,0.355896,0.19368
458,4.58,0.465016,2.624514,-2.079551,0.36235,0.40063499999999996,0.21816999999999998
459,4.59,0.677495,2.745491,-2.355987,0.36235,0.48159799999999997,0.2267
460,4.6,0.882444,2.769584,-2.6413729999999997,0.35276799999999997,0.567886,0.201126
461,4.61,1.013223,2.619268,-2.819401,0.341049,0.634995,0.139343
462,4.62,1.040878,2.332294,-2.715314,0.334656,0.671219,0.051987
463,4.63,0.785561,2.073439,-2.296671,0.316544,0.669083,-0.027908
464,4.64,0.303642,2.012784,-1.504071,0.261154,0.669083,-0.06518600000000001
465,4.65,0.225201,2.3258810000000003,-0.771365,0.123734,0.7436520000000001,-0.048141
466,4.66,0.69655,2.5207330000000003,0.48746000000000006,-0.056305000000000015,0.834198,-0.02684
467,4.67,1.260261,2.202771,2.008379,-0.145782,0.763885,0.01152
468,4.68,1.213567,1.314897,3.3282550000000004,-0.185196,0.566818,0.126556
469,4.69,1.215635,0.425274,4.524671,-0.227814,0.48478699999999997,0.30339099999999997
470,4.7,0.911717,-0.055878999999999984,5.025677,-0.234192,0.533798,0.44081099999999995
471,4.71,0.26226399999999994,-0.262594,4.669751,-0.131927,0.549774,0.49726899999999996
472,4.72,-0.6702899999999999,-0.44171000000000005,3.7734099999999997,0.027862999999999992,0.436859,0.501541
473,4.73,-1.402698,-0.65072,2.812163,0.142899,0.258957,0.47917200000000004
474,4.74,-1.684741,-0.7696390000000001,2.145812,0.17166099999999998,0.114075,0.425903
475,4.75,-1.595967,-0.43651599999999996,1.8137330000000003,0.11413599999999999,0.032059,0.335358
476,4.76,-1.2880639999999999,0.19099100000000002,1.6499849999999998,-0.011566,-0.004166,0.216049
477,4.77,-0.888181,0.7805350000000001,1.646911,-0.135132,-0.008423,0.082886
478,4.78,-0.341118,1.228138,1.472201,-0.23313899999999999,0.02034,-0.04921
479,4.79,0.31588299999999997,1.336329,1.38031,-0.269348,0.060822,-0.171707
480,4.8,0.933672,1.2540360000000002,1.2975729999999999,-0.253372,0.108749,-0.284622
481,4.81,1.5036040000000002,0.9632290000000001,1.548961,-0.173477,0.140717,-0.387955
482,4.82,1.847947,0.590428,1.5827229999999999,-0.032866999999999987,0.151367,-0.47212200000000004
483,4.83,1.888039,0.294175,1.570897,0.130127,0.12793,-0.5498810000000001
484,4.84,1.8533810000000002,-0.739058,1.197382,0.285645,0.07254,-0.5935520000000001
485,4.85,1.644567,-1.6740400000000002,0.838676,0.379395,-0.009491,-0.611664
486,4.86,1.3064129999999998,-2.650401,0.240802,0.45182799999999995,-0.103226,-0.634033
487,4.87,0.5485329999999999,-3.7456519999999998,-0.31890599999999997,0.480591,-0.19165,-0.647888
488,4.88,-0.267416,-4.709980000000001,-0.9040090000000001,0.445435,-0.265152,-0.632965
489,4.89,-0.988125,-5.335667,-1.331458,0.337845,-0.33653299999999997,-0.585037
490,4.9,-1.6096,-5.778344000000001,-1.334455,0.20681799999999997,-0.401505,-0.514725
491,4.91,-1.956695,-5.591252,-1.3424479999999999,0.067276,-0.44731099999999996,-0.419922
492,4.92,-2.365498,-4.854895,-1.100001,-0.064819,-0.47500600000000004,-0.304871
493,4.93,-2.454742,-3.9063839999999996,-0.776342,-0.16069,-0.4814,-0.18449400000000002
494,4.94,-2.383476,-2.7831349999999997,-0.56858,-0.204376,-0.479263,-0.076904
495,4.95,-2.146099,-1.8090080000000002,-0.303653,-0.193726,-0.477142,-0.008728
496,4.96,-1.8780830000000002,-0.961521,-0.07195700000000001,-0.1362,-0.46756000000000003,0.022171
497,4.97,-1.688434,-0.404362,0.005028,-0.06056200000000001,-0.457962,0.017899
498,4.98,-1.363517,-0.054953999999999996,0.024684,0.0054930000000000005,-0.43985,0.002991000000000001
499,4.99,-1.092,-0.030826999999999997,-0.025575999999999998,0.050232,-0.402573,-0.008728
500,5.0,-0.805942,-0.016268,-0.226096,0.097092,-0.322678,-0.014053
501,5.01,-0.628394,0.033003,-0.670234,0.142899,-0.21934499999999998,-0.00019800000000000023
502,5.02,-0.54708,0.112581,-1.243765,0.198303,-0.122406,0.023239
503,5.03,-0.661029,0.239244,-1.890591,0.252625,-0.068085,0.053055
504,5.04,-0.9584540000000001,0.383125,-2.238541,0.28884899999999997,-0.059555,0.085022
505,5.05,-1.298642,0.628746,-2.375825,0.2995,-0.07341,0.111649
506,5.06,-1.5495709999999998,1.042083,-2.199236,0.25901799999999997,-0.081924,0.11804200000000001
507,5.07,-1.386584,1.639562,-1.9403110000000001,0.198303,-0.10643,0.106323
508,5.08,-1.025045,2.277387,-1.515876,0.15036,-0.142654,0.08075
509,5.09,-0.52677,2.8455939999999997,-1.253274,0.147171,-0.194839,0.039215
510,5.1,0.007034000000000013,3.080603,-1.211668,0.17486600000000002,-0.24171399999999998,-0.012985000000000002
511,5.11,0.33723600000000004,2.931648,-1.241023,0.21214299999999997,-0.279007,-0.061996
512,5.12,0.363227,2.6961180000000002,-1.318815,0.256882,-0.28326399999999996,-0.112061
513,5.13,0.15621,2.488273,-1.393986,0.2995,-0.270477,-0.158936
514,5.14,-0.33775,2.345798,-1.492921,0.348495,-0.231064,-0.193024
515,5.15,-0.877885,2.34504,-1.683085,0.377258,-0.17460599999999998,-0.21006799999999998
516,5.16,-1.475761,2.239935,-1.768493,0.374069,-0.14798,-0.191956
517,5.17,-1.587976,2.229403,-1.7124080000000002,0.327194,-0.21934499999999998,-0.156799
518,5.18,-1.691872,2.680505,-1.55928,0.16314700000000001,-0.345047,-0.131226
519,5.19,-1.8160669999999999,2.923148,-0.3915850000000002,-0.11702,-0.424942,-0.097137
520,5.2,-2.075183,2.733204,1.5473299999999999,-0.31196599999999997,-0.391922,-0.027908
521,5.21,-2.258943,2.032265,3.152694,-0.35031100000000004,-0.244919,0.0008539999999999997
522,5.22,-1.953069,0.8541770000000001,4.187444,-0.351379,-0.06488,-0.037491000000000003
523,5.23,-1.1175030000000001,-0.557157,4.5296080000000005,-0.374817,0.055496000000000004,-0.155731
524,5.24,-0.464621,-1.7543689999999998,4.543095,-0.365219,0.069336,-0.303802
525,5.25,0.12866699999999998,-2.436916,4.235645,-0.256577,0.062943,-0.41566499999999995
526,5.26,1.016383,-2.319474,3.1708990000000004,-0.105301,0.074661,-0.44975299999999996
527,5.27,2.563687,-1.7504830000000002,1.75152,-0.022216999999999997,0.079987,-0.41246000000000005
528,5.28,3.9492730000000003,-1.050287,0.802828,-0.041382,0.055496000000000004,-0.338959
529,5.29,4.8289230000000005,-0.34820300000000004,0.437533,-0.139389,-0.003098,-0.234558
530,5.3,5.116543,0.210484,0.535576,-0.286392,-0.11708099999999999,-0.11845399999999999
531,5.31,4.556749,0.751788,0.764799,-0.42488100000000006,-0.27261399999999997,-0.006592000000000001
532,5.32,3.385275,0.99471,1.072915,-0.5186310000000001,-0.410034,0.11058
533,5.33,1.8186080000000002,1.006413,1.416353,-0.539932,-0.469681,0.188354
534,5.34,0.28082699999999994,0.9273239999999999,1.509785,-0.501587,-0.484604,0.23521399999999998
535,5.35,-0.689463,0.6956289999999999,1.624957,-0.445114,-0.470749,0.272507
536,5.36,-1.348293,0.15864,1.763206,-0.371613,-0.444122,0.279953
537,5.37,-1.887587,-0.52746,1.8185919999999998,-0.259766,-0.383392,0.279953
538,5.38,-2.11322,-1.001886,1.506245,-0.13406400000000002,-0.316284,0.298065
539,5.39,-2.282167,-1.6475220000000002,1.09989,-0.022216999999999997,-0.22466999999999998,0.291672
540,5.4,-2.277729,-2.068173,0.576445,0.074722,-0.12027,0.295944
541,5.41,-2.054669,-2.506141,-0.038991000000000005,0.148224,-0.020142,0.294876
542,5.42,-1.477686,-2.8767080000000003,-0.614187,0.19191,0.062943,0.300201
543,5.43,-0.9145139999999999,-3.0779970000000003,-1.1417629999999999,0.20575,0.12579300000000002,0.300201
544,5.44,-0.18429500000000001,-3.073727,-1.624776,0.189774,0.181198,0.290619
545,5.45,0.43439099999999997,-3.09937,-1.9193529999999999,0.154617,0.22168000000000002,0.27037
546,5.46,1.107745,-3.02948,-2.045471,0.115204,0.24191300000000002,0.23735
547,5.47,1.618754,-2.891636,-2.1360580000000002,0.06300399999999999,0.25044299999999997,0.191544
548,5.48,1.753353,-2.624894,-2.045274,-0.014755000000000002,0.258957,0.147873
549,5.49,1.864312,-2.3363389999999997,-1.730173,-0.143646,0.258957,0.09353600000000001
550,5.5,1.8548900000000001,-2.179193,-1.598428,-0.200104,0.256821,0.061584
551,5.51,1.727872,-1.9377810000000002,-1.6788889999999999,-0.229935,0.25044299999999997,0.029617
552,5.52,1.472594,-1.757883,-1.79034,-0.232071,0.230194,-0.008728
553,5.53,1.064382,-1.481143,-1.9067990000000001,-0.223541,0.209961,-0.038558999999999996
554,5.54,0.610531,-1.224875,-2.030431,-0.224609,0.20463599999999998,-0.061996
555,5.55,0.090005,-0.898552,-1.9727400000000002,-0.23953200000000002,0.224869,-0.07157899999999999
556,5.56,-0.394895,-0.519552,-1.8728740000000001,-0.269348,0.256821,-0.083298
557,5.57,-0.812376,-0.039941,-1.5761530000000001,-0.307709,0.29090900000000003,-0.087555
558,5.58,-1.019415,0.504231,-1.1920959999999998,-0.338593,0.326065,-0.079041
559,5.59,-1.0695059999999998,1.180693,-0.806255,-0.357773,0.36228899999999997,-0.057724
560,5.6,-1.088598,1.931499,-0.408329,-0.34924299999999997,0.402771,-0.019379
561,5.61,-0.990432,2.5971130000000002,-0.07505999999999999,-0.316223,0.46136499999999997,0.020035
562,5.62,-0.748672,3.170834,0.22345399999999999,-0.257629,0.530594,0.047729
563,5.63,-0.198301,3.523337,0.33321799999999996,-0.174545,0.589188,0.073303
564,5.64,0.5459719999999999,3.981017,0.24079,-0.069077,0.6158140000000001,0.100998
565,5.65,1.454596,4.30311,-0.078046,0.050232000000000006,0.600906,0.130829
566,5.66,2.155707,4.365444999999999,-0.41664399999999996,0.18338,0.53273,0.15426600000000001
567,5.67,2.33472,4.223288,-0.530708,0.301636,0.413422,0.16703800000000002
568,5.68,2.209766,4.328526,-0.602913,0.358093,0.33778400000000003,0.195801
569,5.69,2.362348,4.617709,-0.384961,0.271805,0.296249,0.22349499999999997
570,5.7,2.8280950000000002,4.307169999999999,0.455871,0.08004800000000001,0.169479,0.269302
571,5.71,2.945227,3.6125800000000003,1.8783290000000001,-0.124481,-0.023331000000000005,0.376892
572,5.72,2.5678259999999997,2.798867,3.381159,-0.297043,-0.134125,0.535629
573,5.73,1.817979,1.8483880000000001,4.332001999999999,-0.344986,-0.112823,0.643219
574,5.74,0.6558529999999999,0.770315,4.348549,-0.242722,-0.03186,0.662384
575,5.75,-0.6397519999999999,-0.4314220000000001,3.923771,-0.024338,0.013947,0.627243
576,5.76,-1.6576490000000002,-1.505025,2.98141,0.218536,0.005431999999999998,0.54628
577,5.77,-2.430984,-2.068883,2.064093,0.360214,-0.05209400000000001,0.434418
578,5.78,-2.811912,-2.10109,1.588483,0.338913,-0.040375,0.289551
579,5.79,-2.996492,-1.5314219999999998,1.435565,0.21214299999999997,0.037384,0.1436
580,5.8,-2.5683830000000003,-0.625135,1.517674,0.040633999999999997,0.140717,0.018967
581,5.81,-1.6743970000000001,0.15204899999999996,1.610984,-0.115952,0.238724,-0.095016
582,5.82,-0.3796459999999999,0.808867,1.472388,-0.20863299999999999,0.322876,-0.195145
583,5.83,0.8125979999999999,0.997109,1.259341,-0.242722,0.359085,-0.282501
584,5.84,1.627208,1.135337,1.147828,-0.197983,0.33778400000000003,-0.34428400000000003
585,5.85,2.1586119999999998,1.114684,1.010721,-0.11383100000000003,0.26109299999999996,-0.387955
586,5.86,2.520905,0.7588090000000001,1.067315,-0.031799,0.155624,-0.41459700000000005
587,5.87,2.225943,0.210004,1.0528549999999999,0.097092,0.044846,-0.476379
588,5.88,1.627843,-0.735592,0.9531639999999999,0.182312,-0.013748,-0.49021899999999996
589,5.89,0.9010530000000001,-1.609728,0.635567,0.280319,-0.071274,-0.505142
590,5.9,0.10456300000000003,-2.780216,0.293106,0.353821,-0.107498,-0.538162
591,5.91,-0.737607,-3.749254,-0.07892500000000001,0.391113,-0.134125,-0.563736
592,5.92,-1.536767,-4.477538,-0.48713199999999995,0.369812,-0.15223699999999998,-0.5786439999999999
593,5.93,-2.0561979999999997,-4.833503,-0.668972,0.298431,-0.17886400000000002,-0.558395
594,5.94,-2.243316,-4.9448360000000005,-0.741366,0.20681799999999997,-0.229996,-0.517929
595,5.95,-2.349844,-4.6239989999999995,-0.670305,0.10775799999999999,-0.28433200000000003,-0.451874
596,5.96,-2.210969,-4.009995,-0.5236069999999999,0.044907,-0.346115,-0.351746
597,5.97,-1.933988,-3.4118809999999997,-0.528996,0.018265,-0.42068500000000003,-0.25267
598,5.98,-1.605531,-2.7677490000000002,-0.539283,0.002289000000000001,-0.490982,-0.170639
599,5.99,-1.191745,-2.102427,-0.595383,0.0022890000000000002,-0.5495760000000001,-0.103531
600,6.0,-0.7441270000000001,-1.414994,-0.611629,0.005493,-0.563431,-0.054535
601,6.01,-0.468508,-0.983967,-0.665772,0.025726,-0.548508,-0.035355000000000004
602,6.02,-0.30125799999999997,-0.535931,-0.726325,0.05874600000000001,-0.504837,-0.031097000000000003
603,6.03,-0.169453,-0.18339,-0.916293,0.105621,-0.444122,-0.038558999999999996
604,6.04,-0.209668,-0.09835,-1.168908,0.156754,-0.42707799999999996,-0.050277999999999996
605,6.05,-0.340723,-0.158639,-1.345859,0.20256,-0.44838,-0.046005000000000004
606,6.06,-0.606594,-0.31249099999999996,-1.4863870000000001,0.24197399999999997,-0.464355,-0.014053
607,6.07,-0.8637809999999999,-0.355935,-1.733897,0.283524,-0.433472,0.04133599999999999
608,6.08,-1.098997,-0.380326,-2.066116,0.29631,-0.364227,0.086075
609,6.09,-1.389157,-0.25736,-2.2667490000000003,0.271805,-0.30456500000000003,0.097794
610,6.1,-1.522979,0.207226,-2.3282130000000003,0.20575,-0.28006,0.088211
611,6.11,-1.393945,0.932175,-2.199339,0.10987899999999999,-0.297104,0.049866
612,6.12,-1.15247,1.760402,-1.9085020000000001,0.018265,-0.35144000000000003,-0.007659999999999999
613,6.13,-0.827219,2.5574369999999997,-1.4778129999999998,-0.037125,-0.41429099999999996,-0.049210000000000004
614,6.14,-0.7729090000000001,3.10467,-0.7994760000000001,-0.029663,-0.46116599999999996,-0.067322
615,6.15,-0.795886,3.42994,-0.247382,0.044907,-0.45689399999999997,-0.059860000000000003
616,6.16,-0.9982489999999999,3.399599,0.08726499999999998,0.152496,-0.405762,-0.048141
617,6.17,-1.373365,3.1743810000000003,0.16988,0.281387,-0.30456500000000003,-0.036423000000000004
618,6.18,-1.7652869999999998,2.752908,-0.012054999999999995,0.412415,-0.194839,-0.015121
619,6.19,-1.808411,2.265445,-0.234287,0.491241,-0.159698,0.001923
620,6.2,-1.433938,2.893017,-0.30059600000000003,0.313354,-0.312027,-0.044952
621,6.21,-1.312003,2.999187,1.0555459999999999,-0.02540600000000001,-0.349304,-0.095016
622,6.22,-1.288818,2.618705,3.3592800000000005,-0.28213499999999997,-0.218277,-0.112061
623,6.23,-0.701732,1.663016,5.319983000000001,-0.385468,0.038452,-0.178101
624,6.24,0.705915,0.717176,5.841756,-0.41209399999999996,0.26535,-0.320847
625,6.25,1.358576,0.058775,5.2998080000000005,-0.348175,0.27919,-0.485962
626,6.26,1.386875,-0.23918900000000004,4.429444,-0.15324400000000002,0.242981,-0.576508
627,6.27,2.5140000000000002,-0.21156799999999998,2.9218490000000004,0.091766,0.209961,-0.537094
628,6.28,4.288236,0.08994299999999998,1.5659,0.23345900000000003,0.08638,-0.427368
629,6.29,5.515733,0.542046,0.904242,0.211075,-0.0979,-0.302734
630,6.3,5.8070699999999995,0.874649,0.912968,0.055557,-0.296051,-0.173843
631,6.31,4.821445,1.030232,1.187642,-0.132996,-0.5399930000000001,-0.049210000000000004
632,6.32,3.04796,1.119438,1.208965,-0.27681,-0.7242890000000001,0.07862899999999999
633,6.33,1.253676,1.145461,1.010583,-0.348175,-0.802048,0.195801
634,6.34,-0.17179300000000008,1.066597,0.890494,-0.372681,-0.809509,0.281021
635,6.35,-1.323513,0.944585,1.11022,-0.37056,-0.773285,0.323639
636,6.36,-1.90143,0.648625,1.553164,-0.314087,-0.6880649999999999,0.337479
637,6.37,-2.294209,0.327977,1.790611,-0.21076999999999999,-0.57515,0.33215300000000003
638,6.38,-2.477016,-0.25634499999999993,1.755757,-0.086121,-0.432404,0.33429000000000003
639,6.39,-2.5908860000000002,-0.988253,1.421136,0.031052,-0.28326399999999996,0.335358
640,6.4,-2.424824,-1.7914560000000002,0.9040790000000001,0.139709,-0.151169,0.337479
641,6.41,-1.9321990000000002,-2.698974,0.177819,0.220673,-0.021209999999999996,0.327896
642,6.42,-1.239766,-3.4405059999999996,-0.573599,0.266479,0.091705,0.30445900000000004
643,6.43,-0.547413,-4.108061,-1.191762,0.284592,0.17266800000000002,0.286346
644,6.44,0.009934999999999972,-4.405276000000001,-1.7703810000000002,0.276062,0.21740700000000002,0.260788
645,6.45,0.35946,-4.706503,-2.1223520000000002,0.24090599999999998,0.24084499999999998,0.241608
646,6.46,0.84515,-4.723521,-2.311661,0.15889,0.271744,0.22988899999999998
647,6.47,1.3255370000000002,-4.490854,-2.260675,0.07366900000000001,0.269608,0.21391300000000002
648,6.48,1.513623,-4.028904,-2.204777,-0.010498,0.267487,0.1745
649,6.49,1.420523,-3.133206,-1.7682830000000003,-0.15004,0.283463,0.115906
650,6.5,1.261272,-2.530495,-1.347731,-0.22886700000000001,0.324997,0.083954
651,6.51,1.0689799999999998,-1.750632,-1.0770170000000001,-0.271484,0.37294,0.056259
652,6.52,0.9081309999999999,-1.066534,-0.819968,-0.255508,0.40063499999999996,0.023239
653,6.53,0.6864239999999999,-0.39459,-0.740252,-0.176682,0.411285,-0.022568
654,6.54,0.380851,0.08591699999999998,-0.739436,-0.054169000000000016,0.41661099999999995,-0.068375
655,6.55,0.073376,0.46843599999999996,-0.832091,0.077927,0.428329,-0.10566700000000001
656,6.56,-0.24813200000000002,0.7338100000000001,-0.9989290000000001,0.173798,0.456024,-0.130173
657,6.57,-0.5326810000000001,0.828793,-1.078271,0.217468,0.490112,-0.13761900000000002
658,6.58,-0.6659510000000001,0.77961,-0.913467,0.211075,0.5263369999999999,-0.12271099999999999
659,6.59,-0.615011,0.720209,-0.783679,0.190842,0.579605,-0.08862300000000001
660,6.6,-0.6674869999999999,0.825459,-0.790953,0.182312,0.6158140000000001,-0.052399
661,6.61,-0.725092,1.170138,-0.914617,0.17593399999999998,0.630737,-0.01619
662,6.62,-0.4960250000000001,1.61871,-1.1858540000000002,0.164215,0.634995,0.041336000000000005
663,6.63,-0.013095999999999995,2.065918,-1.3240969999999999,0.137573,0.633926,0.111649
664,6.64,0.619351,2.470696,-1.275521,0.101364,0.638199,0.19686900000000002
665,6.65,1.3109790000000001,2.845014,-1.139102,0.08644099999999999,0.637131,0.276764
666,6.66,1.803509,3.206984,-1.047224,0.110947,0.594513,0.32576
667,6.67,1.9746119999999998,3.196508,-0.751164,0.17593399999999998,0.515686,0.330032
668,6.68,1.615888,2.914027,-0.36745300000000003,0.272873,0.427277,0.307663
669,6.69,0.9733860000000001,2.754393,0.12794699999999998,0.364487,0.423004,0.256531
670,6.7,0.08793899999999992,2.889561,0.420313,0.353821,0.51355,0.22988899999999998
671,6.71,0.02116000000000001,2.853666,0.950219,0.181259,0.517822,0.22456399999999999
672,6.72,0.45067299999999993,2.514708,2.009671,-0.003035999999999997,0.394241,0.291672
673,6.73,0.385837,1.8775400000000002,3.383597,-0.12873800000000002,0.242981,0.500473
674,6.74,0.8744959999999999,1.12772,4.4795739999999995,-0.21609499999999998,0.264282,0.7444149999999999
675,6.75,0.9220950000000001,0.5126390000000001,4.726527,-0.212891,0.328201,0.8573299999999999
676,6.76,0.261268,-0.167185,4.262925,-0.103165,0.297302,0.8871610000000001
677,6.77,-0.5070060000000001,-0.826069,3.2920599999999998,0.070465,0.22912600000000002,0.8402860000000001
678,6.78,-0.8932389999999999,-1.049986,2.411064,0.17593399999999998,0.111954,0.705002
679,6.79,-1.462617,-0.739526,1.96965,0.13652,0.017136000000000002,0.50473
680,6.8,-2.23785,-0.021448000000000026,2.091886,-0.0008999999999999841,0.009689,0.289551
681,6.81,-2.518251,0.94273,2.466285,-0.124481,0.098099,0.106323
682,6.82,-1.9666029999999999,1.6670630000000002,2.573014,-0.215027,0.262146,-0.041748
683,6.83,-1.2753219999999998,1.8607330000000002,2.307143,-0.260834,0.423004,-0.157867
684,6.84,-0.537095,1.791086,1.952693,-0.27681,0.561493,-0.265457
685,6.85,-0.16222899999999998,1.451062,1.77672,-0.232071,0.6680149999999999,-0.330429
686,6.86,0.26557800000000004,1.299959,1.7440810000000002,-0.132996,0.726608,-0.376236
687,6.87,0.365558,1.037726,1.6612669999999998,-0.017943999999999998,0.719147,-0.419922
688,6.88,0.269717,0.533337,1.5303879999999999,0.103485,0.690384,-0.44548000000000004
689,6.89,0.286971,-0.13999199999999995,1.235883,0.246231,0.622208,-0.474243
690,6.9,0.20008800000000002,-0.998179,0.701168,0.368744,0.550842,-0.477448
691,6.91,-0.11680899999999997,-1.931275,0.250303,0.446503,0.482666,-0.4785
692,6.92,-0.518752,-2.8282380000000003,-0.218881,0.483795,0.43898000000000004,-0.471054
693,6.93,-1.040841,-3.658437,-0.621674,0.462479,0.40596,-0.46145600000000003
694,6.94,-1.348454,-4.354596,-0.8821110000000001,0.397507,0.379333,-0.433762
695,6.95,-1.429096,-4.813569,-1.15195,0.312286,0.33139,-0.385834
696,6.96,-1.428841,-5.117154,-1.31502,0.231323,0.267487,-0.321915
697,6.97,-1.425163,-5.165605,-1.542198,0.156754,0.198242,-0.23562600000000003
698,6.98,-1.335547,-4.822792,-1.7245270000000001,0.07579,0.13325499999999998,-0.13761900000000002
699,6.99,-1.135293,-4.338353,-1.7686509999999998,-0.008362000000000001,0.064011,-0.049210000000000004
700,7.0,-1.0409979999999999,-3.7396529999999997,-1.619039,-0.07867400000000001,0.013946999999999998,0.015778
701,7.01,-0.943156,-3.011562,-1.265167,-0.131927,-0.026535000000000003,0.061584
702,7.02,-0.939456,-2.178518,-0.918132,-0.17240899999999998,-0.047836000000000004,0.085022
703,7.03,-1.024111,-1.372316,-0.62366,-0.194778,-0.037186000000000004,0.100998
704,7.04,-1.02836,-0.729967,-0.41711099999999995,-0.184128,-0.005233999999999999,0.105255
705,7.05,-1.002532,-0.238379,-0.46648100000000003,-0.131927,0.030991000000000005,0.11804200000000001
706,7.06,-1.023016,0.14130199999999998,-0.7359479999999999,-0.049911000000000004,0.057616999999999995,0.136154
707,7.07,-1.0899159999999999,0.561587,-0.9295899999999999,0.049164,0.065079,0.17131
708,7.08,-1.326677,0.9058139999999999,-1.152285,0.132248,0.051224,0.21284499999999998
709,7.09,-1.6685029999999998,1.2690350000000001,-1.114623,0.186584,0.030991,0.250137
710,7.1,-2.10745,1.6819790000000001,-0.842992,0.20788600000000002,0.048035,0.269302
711,7.11,-2.355058,2.1859029999999997,-0.69396,0.219604,0.111954,0.263977
712,7.12,-2.192705,2.508127,-0.771628,0.21214299999999997,0.164154,0.220306
713,7.13,-1.7221830000000002,2.499735,-1.027182,0.204697,0.16308599999999998,0.16597
714,7.14,-1.302632,2.408375,-1.264041,0.197235,0.11088599999999998,0.11483800000000001
715,7.15,-0.8477899999999999,2.364522,-1.4751670000000001,0.172729,0.037384,0.074371
716,7.16,-0.54852,2.5575740000000002,-1.467786,0.146103,-0.038254,0.043472000000000004
717,7.17,-0.508547,2.83862,-1.153325,0.140778,-0.057419000000000005,0.02536
718,7.18,-0.7069880000000001,2.9915950000000002,-0.5743560000000001,0.15889,-0.016953,0.02536
719,7.19,-0.548039,3.199747,-0.014945000000000012,0.172729,0.044846,0.022171
720,7.2,-0.739471,4.068521,0.494005,0.08432,0.07786599999999999,-0.028961
721,7.21,-1.6387180000000001,5.262980000000001,1.516029,-0.142593,0.126862,-0.129105
722,7.22,-2.483257,5.75598,3.287572,-0.36203,0.289856,-0.23562600000000003
723,7.23,-2.5320709999999997,5.18814,5.2507980000000005,-0.423813,0.612625,-0.378372
724,7.24,-2.467823,3.5937120000000005,5.796755999999999,-0.314087,0.924744,-0.5093989999999999
725,7.25,-1.948994,1.390843,5.368405999999999,-0.11702,1.140991,-0.5616
726,7.26,-1.2103270000000002,-1.041721,4.345285,0.099228,1.229416,-0.566925
727,7.27,-0.344186,-2.7414169999999998,3.4390940000000003,0.287781,1.186798,-0.49342299999999994
728,7.28,0.8380770000000001,-3.700705,2.547565,0.407089,1.111176,-0.353867
729,7.29,1.8427900000000002,-3.8394459999999997,1.593661,0.414551,1.037659,-0.19728099999999998
730,7.3,2.354359,-3.227934,0.810346,0.297363,0.9737549999999999,-0.04600499999999999
731,7.31,2.147888,-2.220595,0.276539,0.10029600000000001,0.932205,0.088211
732,7.32,1.7140259999999998,-1.245235,0.061153,-0.113831,0.929016,0.20751999999999998
733,7.33,0.8861450000000001,-0.512083,0.029182,-0.29599000000000003,0.997192,0.290619
734,7.34,-0.07580500000000001,-0.05417999999999998,0.34121,-0.43020600000000003,1.115433,0.34494
735,7.35,-0.933467,0.296635,1.041028,-0.496246,1.256042,0.374771
736,7.36,-1.548558,0.553804,1.8582330000000002,-0.48773199999999994,1.389206,0.392883
737,7.37,-1.945688,0.582955,2.6441049999999997,-0.398254,1.492538,0.392883
738,7.38,-2.1164419999999997,0.6054390000000001,3.1480810000000004,-0.25444,1.592667,0.40033
739,7.39,-1.865303,0.15177999999999994,3.236802,-0.082932,1.6970669999999999,0.40779099999999996
740,7.4,-1.617358,-0.42564700000000005,2.864098,0.088577,1.8004,0.42057799999999995
741,7.41,-0.9495479999999998,-1.067762,2.222261,0.23025500000000002,1.8962709999999998,0.44508400000000004
742,7.42,-0.439824,-1.559169,1.437311,0.30696100000000004,1.9942779999999998,0.470642
743,7.43,0.112728,-2.178085,0.8070200000000001,0.33252,2.077362,0.500473
744,7.44,0.615945,-2.534564,0.24441500000000002,0.316544,2.174301,0.526031
745,7.45,0.989482,-2.803423,-0.240786,0.25901799999999997,2.249939,0.526031
746,7.46,1.246533,-2.6954290000000003,-0.534311,0.184448,2.308533,0.5036619999999999
747,7.47,1.351968,-2.429648,-0.547543,0.089645,2.356461,0.465317
748,7.48,1.3693620000000002,-2.183945,-0.23160100000000003,-0.000899999999999998,2.405472,0.418442
749,7.49,1.2071459999999998,-1.839435,0.09350399999999999,-0.08718900000000003,2.4534,0.36837800000000004
750,7.5,0.8663870000000001,-1.512995,0.41432700000000006,-0.156433,2.4821619999999998,0.33429000000000003
751,7.51,0.643195,-1.170173,0.537341,-0.189453,2.516251,0.31192
752,7.52,0.385531,-0.9871559999999999,0.62721,-0.184128,2.5844270000000003,0.293808
753,7.53,0.041267,-0.978642,0.621079,-0.155365,2.651535,0.260788
754,7.54,-0.241505,-0.895299,0.529092,-0.124481,2.6877590000000002,0.23521399999999998
755,7.55,-0.459618,-0.8406540000000001,0.533103,-0.090393,2.718658,0.199005
756,7.56,-0.562358,-0.796222,0.49276400000000004,-0.052032,2.75914,0.170242
757,7.57,-0.581838,-0.5963229999999999,0.332911,-0.031799,2.829437,0.138275
758,7.58,-0.5508460000000001,-0.250108,0.22707,-0.037125,2.924255,0.106323
759,7.59,-0.41730200000000006,0.11213999999999996,0.206325,-0.059494000000000005,3.041428,0.082886
760,7.6,-0.226575,0.512496,0.504919,-0.079742,3.175659,0.074371
761,7.61,-0.10678800000000001,0.805438,0.881697,-0.065887,3.31839,0.08075
762,7.62,0.142603,0.9933049999999999,1.089711,-0.027542000000000004,3.4483639999999998,0.085022
763,7.63,0.378502,0.781737,1.245932,0.011871,3.5516970000000003,0.098862
764,7.64,0.7955840000000001,0.361246,1.27908,0.025726,3.6145480000000005,0.125504
765,7.65,1.300108,-0.12029599999999994,1.3105120000000001,0.019333000000000003,3.656082,0.17236300000000002
766,7.66,1.8738139999999999,-0.56755,1.270068,-0.00943,3.6784519999999996,0.241608
767,7.67,2.3697310000000003,-0.925572,1.348909,-0.04245,3.691238,0.32576
768,7.68,2.594492,-1.046773,1.470648,-0.089325,3.7253269999999996,0.401398
769,7.69,2.4781009999999997,-1.0136129999999999,1.6988130000000001,-0.131927,3.794571,0.465317
770,7.7,2.174989,-0.537904,1.64966,-0.176682,3.8702089999999996,0.507935
771,7.71,1.742967,-0.03892299999999999,1.6499700000000002,-0.219284,3.8957669999999998,0.535629
772,7.72,1.402862,0.467053,1.908655,-0.244858,3.907486,0.5505369999999999
773,7.73,0.793679,0.863453,2.213924,-0.27681,3.9202730000000003,0.57077
774,7.74,0.375685,1.1550559999999999,2.520666,-0.32900999999999997,3.9309230000000004,0.5974119999999999
775,7.75,-0.038691,1.067325,2.93932,-0.366287,3.9213410000000004,0.6453399999999999
776,7.76,-0.501173,0.808758,3.191955,-0.373749,3.8797910000000004,0.695419
777,7.77,-0.729935,0.301347,3.283731,-0.369492,3.814804,0.720978
778,7.78,-0.8516870000000001,-0.120861,3.3099529999999997,-0.37056,3.706146,0.712463
779,7.79,-1.3051110000000001,0.033582,3.4455980000000004,-0.37056,3.642242,0.669846
780,7.8,-1.764207,0.8574620000000001,3.4831339999999997,-0.369492,3.651825,0.601669
781,7.81,-2.2320740000000003,1.841752,3.094523,-0.360962,3.603882,0.517517
782,7.82,-2.666519,2.663021,2.351033,-0.327942,3.428116,0.481293
783,7.83,-2.651116,2.844582,1.8332950000000001,-0.274673,3.206543,0.506866
784,7.84,-2.14578,2.556432,1.465762,-0.177734,3.064865,0.581436
785,7.85,-1.538391,2.04353,1.008264,-0.058426,3.008408,0.636826
786,7.86,-1.171635,1.267175,0.640181,0.047028,2.988159,0.6570590000000001
787,7.87,-0.7616890000000001,0.323436,0.788076,0.12266500000000001,3.039291,0.584625
788,7.88,-0.687605,-0.139826,0.9557770000000001,0.181259,3.155411,0.46318100000000006
789,7.89,-0.6526770000000001,-0.5008729999999999,0.8571129999999999,0.253693,3.316269,0.322571
790,7.9,-0.767976,-0.80623,0.515536,0.33252,3.4675290000000003,0.188354
791,7.91,-0.962899,-1.020422,0.050003999999999986,0.397507,3.59111,0.098862
792,7.92,-1.336339,-1.15889,-0.2642950000000001,0.445435,3.6752620000000005,0.07649199999999999
793,7.93,-1.542142,-1.162748,-0.5029279999999999,0.452896,3.7274629999999997,0.120178
794,7.94,-1.5034020000000001,-1.154316,-0.49137600000000003,0.41773999999999994,3.754089,0.20965599999999998
795,7.95,-1.210546,-1.2409270000000001,-0.35449200000000003,0.368744,3.7370449999999997,0.310852
796,7.96,-0.9365709999999999,-1.258097,-0.22294699999999998,0.314407,3.677399,0.40885900000000003
797,7.97,-0.666673,-1.264534,-0.165322,0.267548,3.5666050000000005,0.495148
798,7.98,-0.44223,-1.304041,-0.120082,0.227066,3.425995,0.554794
799,7.99,-0.133659,-1.41888,0.07793800000000001,0.19191,3.2779239999999996,0.589951
800,8.0,0.096475,-1.463531,0.307239,0.161011,3.1436919999999997,0.593155
801,8.01,0.388264,-1.506373,0.571326,0.13652,3.03717,0.566513
802,8.02,0.521656,-1.5527879999999998,0.763057,0.11413599999999999,2.949814,0.520706
803,8.03,0.6907449999999999,-1.516573,0.957375,0.081116,2.8890990000000003,0.469574
804,8.04,0.7802399999999999,-1.360931,0.9658040000000001,0.037445,2.84436,0.42804
805,8.05,0.7425619999999999,-1.1887530000000002,1.021469,-0.025406,2.821991,0.415253
806,8.06,0.609147,-0.968354,1.122066,-0.09465,2.81665,0.421646
807,8.07,0.56776,-0.732115,1.256285,-0.168152,2.820923,0.441879
808,8.08,0.5871460000000001,-0.5660609999999999,1.450324,-0.23953200000000002,2.806,0.459991
809,8.09,0.577705,-0.548201,1.740171,-0.306641,2.754868,0.46424899999999997
810,8.1,0.507795,-0.5750069999999999,2.030888,-0.354568,2.674973,0.462128
811,8.11,0.368395,-0.660192,2.3203840000000002,-0.387604,2.5844270000000003,0.45892299999999997
812,8.12,0.268085,-0.742366,2.587164,-0.40358,2.516251,0.459991
813,8.13,0.10126900000000001,-0.743367,2.879699,-0.400375,2.4661869999999997,0.45573400000000003
814,8.14,0.03317400000000001,-0.5142359999999999,3.07327,-0.392929,2.447006,0.451462
815,8.15,0.034263999999999996,-0.12499600000000001,3.257359,-0.378006,2.455536,0.448273
816,8.16,0.153125,0.18241300000000002,3.379487,-0.346054,2.487488,0.424835
817,8.17,0.41305200000000003,0.395251,3.4862309999999996,-0.29599000000000003,2.5141299999999998,0.380096
818,8.18,0.6554810000000001,0.310081,3.3758660000000003,-0.248047,2.521576,0.31510900000000003
819,8.19,0.973506,0.07286799999999999,3.210721,-0.211823,2.483231,0.24374400000000002
820,8.2,1.2903129999999998,-0.205855,2.9528209999999997,-0.184128,2.3980099999999998,0.175568
821,8.21,1.6079450000000002,-0.545145,2.649603,-0.163895,2.278702,0.125504
822,8.22,1.9064400000000001,-0.936343,2.248361,-0.152176,2.121033,0.096741
823,8.23,2.249302,-1.403525,1.9215950000000002,-0.157501,1.927155,0.087143
824,8.24,2.518735,-1.8382560000000001,1.7109860000000001,-0.178802,1.705582,0.096741
825,8.25,2.811634,-2.189509,1.612757,-0.21076999999999999,1.461639,0.11911
826,8.26,3.099322,-2.226995,1.3950870000000002,-0.223541,1.184677,0.153198
827,8.27,3.3441339999999995,-1.599445,0.9258879999999999,-0.227814,0.9162290000000001,0.173431
828,8.28,3.3666089999999995,-0.28065100000000004,0.499431,-0.250183,0.703171,0.16171300000000002
829,8.29,3.239059,1.160431,0.02432899999999996,-0.28746,0.592392,0.100998
830,8.3,2.7707490000000004,2.727827,-0.311662,-0.30983,0.512497,0.004059
831,8.31,2.082691,4.180448,-0.360794,-0.304504,0.464554,-0.108856
832,8.32,1.3217709999999998,5.221927,-0.058962000000000014,-0.272552,0.46241800000000005,-0.214325
833,8.33,0.650835,5.939763,0.406535,-0.217148,0.527405,-0.266525
834,8.34,0.06703900000000003,5.680584,0.692753,-0.115952,0.679733,-0.27504
835,8.35,-0.5309520000000001,4.499231,0.42729300000000003,0.033187999999999995,0.828873,-0.20153800000000002
836,8.36,-0.54055,3.216561,-0.6554979999999999,0.190842,0.910904,-0.064117
837,8.37,0.16388000000000005,2.420258,-1.869232,0.269669,0.8693540000000001,0.074371
838,8.38,1.097381,1.8504180000000001,-2.606325,0.276062,0.746841,0.188354
839,8.39,2.157092,1.673591,-2.757966,0.232391,0.595581,0.272507
840,8.4,3.012314,1.63236,-2.520258,0.187653,0.475204,0.330032
841,8.41,3.518282,1.603764,-2.100711,0.16314700000000001,0.407028,0.35347
842,8.42,3.635872,1.407701,-1.6776799999999998,0.152496,0.38359099999999996,0.346008
843,8.43,3.294777,0.892009,-1.3069620000000002,0.15889,0.391052,0.324707
844,8.44,2.606851,0.12134999999999994,-1.160678,0.17486600000000002,0.435791,0.30127
845,8.45,1.8928459999999998,-0.774749,-1.1531930000000001,0.195099,0.49118,0.281021
846,8.46,1.284757,-1.450049,-1.320192,0.21214299999999997,0.531662,0.24693299999999999
847,8.47,0.726549,-1.915802,-1.5361639999999999,0.216415,0.543381,0.21284499999999998
848,8.48,0.243919,-2.26545,-1.780257,0.20788600000000002,0.547638,0.189407
849,8.49,-0.09608800000000002,-2.622856,-1.8911470000000001,0.186584,0.55191,0.173431
850,8.5,-0.228897,-2.828333,-1.970047,0.164215,0.563629,0.16703800000000002
851,8.51,-0.218748,-2.993401,-2.016521,0.137573,0.5732119999999999,0.15426600000000001
852,8.52,-0.062287000000000016,-2.998606,-1.827566,0.104553,0.577469,0.136154
853,8.53,0.164207,-2.831758,-1.6232959999999999,0.071533,0.599838,0.11271700000000001
854,8.54,0.484915,-2.539917,-1.3736979999999999,0.039581,0.630737,0.079697
855,8.55,0.873365,-2.177187,-1.1818309999999999,0.010818000000000001,0.664825,0.040283
856,8.56,1.3236219999999999,-1.782704,-1.07386,-0.019012,0.698914,-0.005523999999999998
857,8.57,1.672048,-1.3850360000000002,-0.92001,-0.049911000000000004,0.73407,-0.049210000000000004
858,8.58,1.8839009999999998,-1.113873,-0.6800430000000001,-0.084,0.7564390000000001,-0.086487
859,8.59,2.087399,-0.8505389999999999,-0.41950600000000005,-0.120209,0.766022,-0.10992400000000001
860,8.6,2.261549,-0.5843109999999999,-0.102418,-0.15324400000000002,0.7575069999999999,-0.126968
861,8.61,2.276007,-0.337979,0.16653799999999996,-0.176682,0.733002,-0.144012
862,8.62,2.082229,-0.251475,0.48924799999999996,-0.186264,0.6978449999999999,-0.157867
863,8.63,1.891662,-0.09279,0.7366560000000001,-0.18093900000000002,0.670151,-0.168518
864,8.64,1.698076,-0.059014,1.0505520000000002,-0.157501,0.6286010000000001,-0.183426
865,8.65,1.610273,-0.033511,1.306498,-0.12234500000000001,0.590256,-0.193024
866,8.66,1.569585,-0.031748,1.427096,-0.096786,0.55191,-0.18663
867,8.67,1.590283,-0.073213,1.461515,-0.089325,0.509293,-0.179169
868,8.68,1.663193,-0.107276,1.437108,-0.097839,0.453903,-0.168518
869,8.69,1.770568,-0.186462,1.4029559999999999,-0.11383099999999999,0.376129,-0.155731
870,8.7,1.9882009999999999,-0.272323,1.448101,-0.130875,0.285583,-0.14721700000000001
871,8.71,2.26412,-0.43618999999999997,1.493954,-0.12767,0.215286,-0.139755
872,8.72,2.544506,-0.532855,1.399355,-0.120209,0.16841099999999998,-0.14294400000000002
873,8.73,2.6204560000000003,-0.695608,1.3033620000000001,-0.11383099999999999,0.13325499999999998,-0.15466300000000002
874,8.74,2.654575,-0.7898390000000001,1.1692870000000002,-0.110626,0.11088599999999998,-0.153595
875,8.75,2.408514,-1.0760809999999998,1.037209,-0.120209,0.078934,-0.15466300000000002
876,8.76,2.0771830000000002,-1.313404,0.8517049999999999,-0.147919,0.043776999999999996,-0.145081
877,8.77,1.78067,-1.602929,0.774526,-0.218216,9.199999999999832e-05,-0.13336199999999998
878,8.78,1.501793,-1.894829,0.970965,-0.315155,-0.06488,-0.11418199999999999
879,8.79,1.291811,-2.115524,1.298123,-0.411026,-0.128799,-0.087555
880,8.8,1.153305,-2.1326509999999996,1.705012,-0.494125,-0.18100000000000002,-0.060927999999999996
881,8.81,0.919737,-1.611228,1.8210689999999998,-0.556976,-0.212952,-0.02684
882,8.82,0.777456,-0.630434,1.6970150000000002,-0.6166229999999999,-0.22892800000000002,0.027496
883,8.83,0.641217,0.681431,1.726288,-0.678421,-0.315216,0.07223500000000001
884,8.84,0.357718,2.023746,1.9999529999999999,-0.6911930000000001,-0.432404,0.141479
885,8.85,0.287258,3.15828,2.3006580000000003,-0.603851,-0.522949,0.22244299999999997
886,8.86,0.25921,3.926929,2.131871,-0.421692,-0.600708,0.271439
887,8.87,0.05321700000000002,4.147542,1.3693629999999999,-0.224609,-0.632675,0.277832
888,8.88,-0.45263100000000006,3.855051,0.179018,-0.076538,-0.611359,0.241608
889,8.89,-1.1699760000000001,3.350227,-0.681389,0.025726,-0.532532,0.177689
890,8.9,-1.923962,3.06775,-1.370383,0.10455299999999998,-0.381271,0.111649
891,8.91,-2.8817779999999997,2.947663,-1.9650919999999998,0.16954,-0.162888,0.037079
892,8.92,-3.79129,3.004698,-2.322632,0.234512,0.082123,-0.025772000000000003
893,8.93,-4.339928,3.1204389999999997,-2.638431,0.272873,0.322876,-0.0737
894,8.94,-4.39625,3.372725,-2.5108189999999997,0.270737,0.552963,-0.096085
895,8.95,-3.7505910000000005,3.5464559999999996,-2.346922,0.25795,0.750046,-0.096085
896,8.96,-2.536465,3.508756,-2.079211,0.237717,0.89386,-0.086487
897,8.97,-1.3098299999999998,3.000307,-1.907407,0.213211,0.943924,-0.081161
898,8.98,-0.234984,2.229003,-1.798157,0.198303,0.899185,-0.079041
899,8.99,0.5685279999999999,1.491401,-1.8561869999999998,0.200424,0.789459,-0.076904
900,9.0,1.285706,0.7148770000000001,-1.9376490000000002,0.210022,0.627533,-0.064117
901,9.01,1.7360220000000002,-0.015618000000000019,-1.9450630000000002,0.214279,0.43792700000000007,-0.052399
902,9.02,1.885949,-0.734232,-1.7782919999999998,0.220673,0.26535,-0.04068
903,9.03,1.853379,-1.400493,-1.6669990000000001,0.237717,0.13006600000000001,-0.02684
904,9.04,1.707352,-1.941957,-1.5300049999999998,0.267548,0.036316,-0.011917
905,9.05,1.499832,-2.396028,-1.4053579999999999,0.298431,-0.011626999999999998,0.004059
906,9.06,1.1460860000000002,-2.746143,-1.2710780000000002,0.327194,0.0011599999999999994,0.01152
907,9.07,0.627663,-2.95066,-1.128588,0.360214,0.050171,0.013641
908,9.08,0.088809,-3.05231,-1.008965,0.38472,0.120468,0.007248000000000002
909,9.09,-0.343186,-3.028859,-0.846565,0.39962800000000004,0.19503800000000002,-0.003402999999999999
910,9.1,-0.740916,-2.881098,-0.707938,0.404953,0.253632,-0.024704
911,9.11,-0.99482,-2.51708,-0.5382520000000001,0.397507,0.280258,-0.042816
912,9.12,-1.284355,-2.1564330000000003,-0.364191,0.366608,0.270676,-0.06518600000000001
913,9.13,-1.480925,-1.7650740000000003,-0.12680200000000005,0.300568,0.239777,-0.059860000000000003
914,9.14,-1.616019,-1.285819,0.14771800000000002,0.229187,0.187592,-0.021515
915,9.15,-1.412592,-0.953475,0.47367200000000004,0.172729,0.134323,0.042404000000000004
916,9.16,-1.027981,-0.789141,0.796323,0.151428,0.088516,0.134018
917,9.17,-0.39382,-0.63643,0.9567260000000001,0.161011,0.065079,0.21391300000000002
918,9.18,0.125116,-0.6079,0.9942350000000001,0.195099,0.044846,0.267181
919,9.19,0.485861,-0.658796,1.0707229999999999,0.221741,0.023528999999999998,0.289551
920,9.2,0.6475479999999999,-0.763462,1.296265,0.234512,0.02034,0.28741500000000003
921,9.21,0.726809,-0.8550610000000001,1.586638,0.23345900000000003,0.064011,0.253326
922,9.22,0.594094,-0.893517,1.8564889999999998,0.232391,0.149231,0.211777
923,9.23,0.12387399999999997,-0.882647,2.0042020000000003,0.23025500000000002,0.258957,0.158524
924,9.24,-0.541366,-0.800211,2.10718,0.204697,0.388916,0.123367
925,9.25,-1.137257,-0.661092,2.2834,0.149292,0.514618,0.105255
926,9.26,-1.653429,-0.475758,2.59762,0.061951,0.637131,0.094604
927,9.27,-2.0388040000000003,-0.24950100000000003,2.959171,-0.044586,0.746841,0.097794
928,9.28,-2.0695759999999996,-0.164536,3.368301,-0.155365,0.804367,0.111649
929,9.29,-1.8094759999999999,-0.30094499999999996,3.675476,-0.223541,0.788391,0.144669
930,9.3,-1.160426,-0.45016300000000004,3.548593,-0.257629,0.726608,0.18196099999999998
931,9.31,-0.265728,-0.642896,3.256973,-0.286392,0.599838,0.20965599999999998
932,9.32,0.595075,-0.603467,2.7576490000000002,-0.305573,0.387848,0.221375
933,9.33,2.016839,-0.191472,2.2597490000000002,-0.32900999999999997,0.13858,0.202194
934,9.34,3.619821,0.4667129999999999,1.8841700000000001,-0.389725,-0.069138,0.141479
935,9.35,4.72369,1.23963,1.7082580000000003,-0.45896899999999996,-0.188446,0.037079
936,9.36,5.190467,2.09559,1.4758719999999999,-0.444061,-0.223602,-0.09820599999999999
937,9.37,4.78071,2.641791,0.775051,-0.319427,-0.253433,-0.221786
938,9.38,3.9861839999999997,2.889739,-0.253578,-0.159637,-0.26621999999999996,-0.299545
939,9.39,3.505803,3.040539,-1.453125,-0.031799,-0.231064,-0.338959
940,9.4,3.319283,3.0212849999999998,-2.386638,0.026794000000000002,-0.229996,-0.354935
941,9.41,3.05734,2.9582040000000003,-2.720638,0.036377,-0.334396,-0.340027
942,9.42,2.950955,3.164101,-2.668289,0.027863,-0.513367,-0.27929699999999996
943,9.43,2.7318919999999998,3.481265,-2.4604779999999997,-0.004105000000000003,-0.7221529999999999,-0.16745
944,9.44,2.417932,3.724967,-2.0386990000000003,-0.048843,-0.8925930000000001,-0.03855900000000001
945,9.45,1.8397310000000002,3.6371589999999996,-1.568637,-0.071213,-0.9810030000000001,0.07649199999999999
946,9.46,0.96305,3.266366,-1.200974,-0.033936,-0.9511870000000001,0.16703800000000002
947,9.47,-0.0033600000000000296,2.6607439999999998,-1.3300969999999999,0.06620799999999999,-0.815887,0.21816999999999998
948,9.48,-0.8289059999999999,1.8047900000000001,-1.554524,0.187653,-0.613495,0.250137
949,9.49,-1.38842,0.5833510000000001,-1.781675,0.312286,-0.39831500000000003,0.24267600000000003
950,9.5,-1.807921,-0.575789,-1.9974349999999998,0.42839099999999997,-0.2332,0.20751999999999998
951,9.51,-1.9757060000000002,-1.585477,-2.1648419999999997,0.500839,-0.10643,0.15745499999999998
952,9.52,-1.890856,-2.424385,-2.241581,0.5263979999999999,-0.0030980000000000035,0.100998
953,9.53,-1.615083,-2.9865009999999996,-2.310604,0.506165,0.085312,0.056259
954,9.54,-1.066533,-3.340649,-2.432608,0.445435,0.173737,0.016846
955,9.55,-0.310947,-3.5257769999999997,-2.413032,0.355957,0.23658800000000002,-0.011917
956,9.56,0.3411560000000001,-3.5291629999999996,-2.4341049999999997,0.264343,0.282394,-0.027908
957,9.57,1.02368,-3.301256,-2.335242,0.17698699999999998,0.29836999999999997,-0.034286000000000004
958,9.58,1.492991,-2.827318,-2.030821,0.104553,0.296249,-0.050277999999999996
959,9.59,1.810139,-2.3215369999999997,-1.663399,0.052353,0.291977,-0.070511
960,9.6,2.0170310000000002,-1.782939,-1.2997610000000002,0.014008000000000001,0.280258,-0.097137
961,9.61,2.110758,-1.214269,-0.8810479999999999,-0.007294,0.256821,-0.11950699999999999
962,9.62,2.162056,-0.604931,-0.5516979999999999,-0.02327,0.237656,-0.135498
963,9.63,2.13245,-0.105124,-0.243702,-0.021149,0.24084499999999998,-0.15466300000000002
964,9.64,2.0084419999999996,0.380701,0.008379999999999999,0.00015300000000000036,0.26535,-0.15040599999999998
965,9.65,1.6947150000000002,0.809843,0.267041,0.039581,0.294113,-0.14721700000000001
966,9.66,1.4033799999999998,1.053242,0.598565,0.10029600000000001,0.318619,-0.146149
967,9.67,1.112203,1.0275299999999998,0.829418,0.17593399999999998,0.34631300000000004,-0.15040599999999998
968,9.68,0.97365,0.77993,0.9042389999999999,0.249435,0.387848,-0.170639
969,9.69,0.895962,0.22726,0.8993979999999999,0.294174,0.442184,-0.207932
970,9.7,0.8816229999999999,-0.31196799999999997,0.766323,0.293106,0.489059,-0.22711199999999998
971,9.71,1.007562,-1.009996,0.723306,0.24516300000000002,0.501831,-0.23988299999999999
972,9.72,1.07146,-1.542194,0.7226819999999999,0.178055,0.46348599999999995,-0.245209
973,9.73,1.249357,-1.817084,0.671351,0.097092,0.398514,-0.212189
974,9.74,1.66218,-1.8933650000000002,0.648299,0.016144,0.30795300000000003,-0.158936
975,9.75,2.193894,-1.6545590000000001,0.7398640000000001,-0.069077,0.225937,-0.103531
976,9.76,2.750526,-1.419959,0.871985,-0.132996,0.14711,-0.05665599999999999
977,9.77,3.269876,-1.3295620000000001,1.185458,-0.174545,0.052292,-0.02684
978,9.78,3.563256,-1.365242,1.512865,-0.184128,-0.045715000000000006,-0.018311
979,9.79,3.523672,-1.468235,1.7026830000000002,-0.187332,-0.118149,-0.025772000000000003
980,9.8,2.991918,-1.540246,1.905366,-0.20544400000000002,-0.13305699999999998,-0.025772000000000003
981,9.81,2.440455,-1.2136870000000002,1.831147,-0.249115,-0.12133800000000002,-0.025772000000000003
982,9.82,1.32243,-0.548764,1.4031959999999999,-0.343918,-0.079803,0.004059
983,9.83,-0.13500399999999999,0.637302,1.171806,-0.517563,-0.020142,0.07756
984,9.84,-1.6636830000000002,1.8183340000000001,1.521535,-0.6634979999999999,0.019272,0.17131
985,9.85,-2.999674,2.923918,1.820043,-0.646454,0.032059,0.29274
986,9.86,-3.698926,3.651246,1.444386,-0.474945,-0.054229999999999993,0.39714099999999997
987,9.87,-4.107554,4.110243,0.691185,-0.262955,-0.165024,0.45573400000000003
988,9.88,-4.244324,4.424588,0.03771399999999997,-0.10743699999999999,-0.252365,0.44401599999999997
989,9.89,-3.9759300000000004,4.734074,-0.187442,-0.030731,-0.28112800000000004,0.355591
990,9.9,-3.574758,4.994128,-0.160661,0.001221,-0.215088,0.216049
991,9.91,-3.308393,5.200418,-0.09928,0.019333000000000003,-0.035049000000000004,0.075424
992,9.92,-2.787459,5.099458,-0.155375,0.053421,0.21740700000000002,-0.039612000000000015
993,9.93,-1.748413,4.233409,-0.625418,0.168472,0.552963,-0.131226
994,9.94,-1.000437,3.331604,-1.069695,0.276062,0.6978449999999999,-0.146149
995,9.95,-0.244689,2.223843,-1.512332,0.383652,0.770279,-0.136551
996,9.96,0.381213,0.920544,-1.867278,0.462479,0.783066,-0.113129
997,9.97,0.744315,-0.366799,-2.2314279999999997,0.500839,0.736191,-0.09820599999999999
998,9.98,0.8991530000000001,-1.572627,-2.5122459999999998,0.507233,0.627533,-0.076904
999,9.99,0.8780379999999999,-2.567568,-2.735651,0.47419700000000004,0.482666,-0.058792
1000,10.0,0.723645,-3.299071,-2.869838,0.386856,0.326065,-0.042816
1001,10.01,0.461658,-3.732764,-2.818962,0.272873,0.175873,-0.028961
1002,10.02,0.183387,-3.9888839999999997,-2.589281,0.152496,0.03418,-0.012985
1003,10.03,-0.037633000000000014,-4.093780000000001,-2.234581,0.036377,-0.094711,0.01152
1004,10.04,-0.10782699999999999,-3.8926279999999998,-1.8643759999999998,-0.059494000000000005,-0.202301,0.039215
1005,10.05,-0.157658,-3.5772690000000003,-1.315009,-0.111694,-0.287521,0.06691
1006,10.06,-0.059014,-3.068977,-0.838685,-0.12234500000000001,-0.334396,0.092468
1007,10.07,-0.087391,-2.4738740000000004,-0.31309699999999996,-0.091446,-0.35144000000000003,0.106323
1008,10.08,-0.140651,-1.812107,0.057087,-0.030731,-0.343979,0.10951199999999998
1009,10.09,-0.42927299999999996,-1.385378,0.410592,0.042769999999999996,-0.31948899999999997,0.113785
1010,10.1,-0.72742,-0.8740829999999999,0.707504,0.139709,-0.215088,0.1436
1011,10.11,-0.8689389999999999,-0.5416770000000001,0.719383,0.187653,-0.135193,0.164917
1012,10.12,-1.09585,-0.30496999999999996,0.719059,0.221741,-0.068085,0.189407
1013,10.13,-1.317803,-0.24104899999999999,0.706023,0.229187,-0.022278,0.21923800000000002
1014,10.14,-1.4758799999999999,-0.16452999999999998,0.704678,0.204697,-0.003098,0.245865
1015,10.15,-1.405562,-0.017763,0.8264459999999999,0.148224,-0.0073549999999999996,0.27462800000000004
1016,10.16,-1.121907,-0.021146,1.046223,0.07899500000000001,-0.037186000000000004,0.297012
1017,10.17,-0.718935,-0.11466300000000001,1.287577,0.019333000000000003,-0.065948,0.309784
1018,10.18,-0.428037,-0.42779300000000003,1.5450629999999999,-0.024338,-0.077667,0.312988
1019,10.19,-0.21200300000000002,-0.69247,1.735801,-0.049911000000000004,-0.07234199999999999,0.309784
1020,10.2,-0.13892000000000002,-1.035574,1.863131,-0.087189,-0.037186000000000004,0.302338
1021,10.21,-0.040671,-1.224824,2.000422,-0.129807,-0.003098,0.290619
1022,10.22,-0.033427,-1.37192,2.1493860000000002,-0.16175799999999999,0.026733,0.273575
1023,10.23,-0.032242,-1.461984,2.201159,-0.196915,0.068268,0.256531
1024,10.24,-0.0197,-1.4333989999999999,2.24587,-0.25444,0.116211,0.23521399999999998
1025,10.25,0.002496,-1.40582,2.390843,-0.324753,0.174805,0.217117
1026,10.26,-0.011981,-1.3397370000000002,2.6625509999999997,-0.37588499999999997,0.23658800000000002,0.20645100000000002
1027,10.27,-0.075252,-1.434589,2.8461849999999997,-0.398254,0.289856,0.201126
1028,10.28,-0.16817200000000002,-1.501566,2.873077,-0.389725,0.305832,0.200073
1029,10.29,-0.366983,-1.422651,2.615513,-0.359894,0.237656,0.199005
1030,10.3,-0.146573,-0.811871,2.146531,-0.333267,0.11514300000000001,0.17131
1031,10.31,0.236346,0.4070469999999998,1.426524,-0.368423,-0.013748000000000005,0.098862
1032,10.32,1.0835569999999999,1.8335869999999999,1.047618,-0.489868,-0.129868,-0.009796
1033,10.33,2.190284,3.5960589999999995,1.168976,-0.614502,-0.135193,-0.15466300000000002
1034,10.34,2.791185,4.659441,1.2731430000000001,-0.613434,-0.046768000000000004,-0.328308
1035,10.35,2.660605,4.934855000000001,0.7395289999999999,-0.479202,0.015015,-0.465729
1036,10.36,2.771517,4.682394,-0.19439699999999996,-0.28532399999999997,0.026733,-0.5221859999999999
1037,10.37,2.7807560000000002,4.095623000000001,-1.0804120000000002,-0.113831,-0.022278,-0.505142
1038,10.38,3.2221599999999997,3.714426,-1.8722580000000002,0.00015300000000000036,-0.146912,-0.41566499999999995
1039,10.39,3.917954,3.8568569999999998,-2.6121,0.017197,-0.35144000000000003,-0.303802
1040,10.4,4.458076,4.303743,-2.80946,-0.049911000000000004,-0.612427,-0.196213
1041,10.41,4.242829,4.643378,-2.342708,-0.144714,-0.8478549999999999,-0.112061
1042,10.42,3.059237,4.5111300000000005,-1.475215,-0.184128,-0.9927219999999999,-0.042816
1043,10.43,1.394919,3.8829730000000002,-0.917658,-0.137253,-0.9820709999999999,0.014709
1044,10.44,-0.25864600000000004,2.965997,-0.7896310000000001,-0.019012,-0.8862,0.054123000000000004
1045,10.45,-1.811423,1.7070470000000002,-0.891639,0.13652,-0.7562409999999999,0.079697
1046,10.46,-2.924234,0.2860130000000001,-1.2422360000000001,0.298431,-0.62735,0.096741
1047,10.47,-3.5432040000000002,-1.200609,-1.754373,0.43052700000000005,-0.49311800000000006,0.10313399999999999
1048,10.48,-3.6945419999999998,-2.493052,-2.316007,0.5040279999999999,-0.358902,0.09992999999999999
1049,10.49,-3.577971,-3.4806230000000005,-2.8789759999999998,0.509354,-0.226807,0.085022
1050,10.5,-3.018602,-4.183296,-3.156059,0.456085,-0.08299300000000001,0.07756
1051,10.51,-2.196298,-4.55301,-3.279499,0.3517,0.027802,0.064774
1052,10.52,-1.1140889999999999,-4.6986669999999995,-3.210073,0.21534699999999998,0.10555999999999999,0.050934
1053,10.53,0.031664000000000025,-4.563151,-2.867562,0.092834,0.12793,0.030685000000000004
1054,10.54,0.9261739999999999,-4.106256,-2.362335,-0.006226000000000002,0.124741,0.010452
1055,10.55,1.596335,-3.345436,-1.8212689999999998,-0.070145,0.144974,-0.01619
1056,10.56,1.9136220000000002,-2.435984,-1.333528,-0.105301,0.175873,-0.049210000000000004
1057,10.57,1.907528,-1.517732,-0.87372,-0.126602,0.22380100000000003,-0.081161
1058,10.58,1.7287080000000001,-0.70686,-0.395295,-0.12767,0.260025,-0.11099200000000001
1059,10.59,1.4050790000000002,-0.08448099999999997,-0.024966000000000016,-0.11702,0.28772,-0.130173
1060,10.6,1.027284,0.4112549999999999,0.300664,-0.09890700000000001,0.31967199999999996,-0.136551
1061,10.61,0.6192270000000001,0.805573,0.5297689999999999,-0.065887,0.356964,-0.13336199999999998
1062,10.62,0.179042,1.121756,0.750624,-0.010498000000000004,0.398514,-0.123779
1063,10.63,-0.153946,1.2419930000000001,0.8480049999999999,0.06088300000000001,0.445374,-0.112061
1064,10.64,-0.39912600000000004,1.078232,0.882917,0.143967,0.494385,-0.113129
1065,10.65,-0.42223,0.6209979999999999,0.937773,0.222794,0.546585,-0.11738599999999999
1066,10.66,-0.35327600000000003,0.030202000000000007,0.898727,0.282455,0.604111,-0.129105
1067,10.67,-0.055389,-0.618594,0.8971120000000001,0.313354,0.658432,-0.14827
1068,10.68,0.304309,-1.094398,0.830785,0.321869,0.679733,-0.163193
1069,10.69,0.7749090000000001,-1.624967,0.712321,0.313354,0.646713,-0.169586
1070,10.7,1.343138,-1.9409560000000001,0.556361,0.279251,0.564682,-0.166382
1071,10.71,1.928608,-2.0050689999999998,0.445578,0.211075,0.460297,-0.149338
1072,10.72,2.717649,-1.754848,0.478433,0.120529,0.33671599999999996,-0.123779
1073,10.73,3.4219730000000004,-1.520256,0.680066,0.032119999999999996,0.21740700000000002,-0.108856
1074,10.74,3.944551,-1.322425,0.955418,-0.039261000000000004,0.101303,-0.09820599999999999
1075,10.75,4.09859,-1.271318,1.327085,-0.09465,0.007552999999999997,-0.100342
1076,10.76,3.8646910000000005,-1.132422,1.604732,-0.143646,-0.085129,-0.11525
1077,10.77,3.453922,-1.479527,1.9599950000000002,-0.192657,-0.15756199999999998,-0.14189100000000002
1078,10.78,2.823543,-1.946698,2.085207,-0.24591100000000002,-0.186325,-0.187683
1079,10.79,2.047477,-2.107487,2.1438080000000004,-0.326874,-0.169281,-0.22071799999999997
1080,10.8,1.141198,-1.7190279999999998,2.144602,-0.418488,-0.12773099999999998,-0.237762
1081,10.81,-0.269815,-0.4348429999999999,2.041959,-0.522888,-0.074463,-0.229233
1082,10.82,-1.331292,1.319152,2.142576,-0.633667,-0.10429400000000001,-0.191956
1083,10.83,-2.573025,3.3373230000000005,2.174477,-0.707184,-0.240646,-0.10141
1084,10.84,-3.082385,4.84771,2.043222,-0.6400600000000001,-0.306702,0.042404000000000004
1085,10.85,-2.675741,5.376048,1.333264,-0.422745,-0.35676599999999997,0.186218
1086,10.86,-2.510405,5.033802,0.2391300000000001,-0.18306,-0.43666099999999997,0.272507
1087,10.87,-2.658903,4.523877,-0.687168,-0.026474,-0.510162,0.30445900000000004
1088,10.88,-2.845296,4.025041000000001,-1.064182,0.047028,-0.504837,0.289551
1089,10.89,-3.1253509999999998,3.724102,-1.285627,0.08218400000000001,-0.379135,0.233093
1090,10.9,-3.409476,3.7009980000000002,-1.505948,0.090714,-0.162888,0.164917
1091,10.91,-3.6038410000000005,3.9660580000000003,-1.568663,0.090714,0.095978,0.106323
1092,10.92,-3.623929,4.316358,-1.6448049999999999,0.103485,0.35482800000000003,0.094604
1093,10.93,-3.004523,4.350495,-1.690622,0.121597,0.529541,0.113785
1094,10.94,-1.7435580000000002,3.8122769999999995,-1.8144220000000002,0.155685,0.58812,0.15426600000000001
1095,10.95,-0.293748,2.79735,-2.008994,0.20256,0.558304,0.168106
1096,10.96,0.8287040000000001,1.517855,-2.2285,0.248367,0.467743,0.153198
1097,10.97,1.562505,0.242949,-2.3623819999999998,0.276062,0.334595,0.111649
1098,10.98,1.935871,-1.017213,-2.4157189999999997,0.264343,0.201431,0.056259
1099,10.99,1.9966700000000002,-2.1252240000000002,-2.32488,0.21534699999999998,0.083191,-0.003403
1100,11.0,1.7379040000000001,-2.9681450000000003,-2.205017,0.13864100000000001,-0.002029000000000003,-0.053466999999999994
1101,11.01,1.450284,-3.624443,-1.966068,0.069397,-0.068085,-0.077972
1102,11.02,1.058157,-4.2137970000000005,-1.526425,0.026794,-0.119217,-0.091812
1103,11.03,0.34883200000000003,-4.687799,-1.1173110000000002,0.035309,-0.187393,-0.084366
1104,11.04,-0.15732299999999996,-4.675629,-0.9518059999999999,0.071533,-0.2332,-0.066254
1105,11.05,-0.581149,-4.457887,-0.917409,0.101364,-0.27368200000000004,-0.048141
1106,11.06,-0.959116,-4.01029,-0.9041030000000001,0.104553,-0.29284699999999997,-0.033234
1107,11.07,-1.3517190000000001,-3.4165739999999998,-0.74753,0.07899500000000001,-0.27368200000000004,-0.017242
1108,11.08,-1.7037189999999998,-2.6445939999999997,-0.419221,0.038513,-0.215088,0.0008540000000000006
1109,11.09,-2.036191,-1.700157,-0.065747,-0.0009000000000000016,-0.126663,0.02536
1110,11.1,-2.209349,-0.704611,0.161407,-0.022216999999999997,-0.030792,0.051987
1111,11.11,-2.239419,0.18647500000000006,0.259002,-0.041382,0.033127,0.083954
1112,11.12,-2.0847729999999998,0.8645520000000001,0.446952,-0.044586,0.048035,0.126556
1113,11.13,-1.6448369999999999,1.286024,0.7502300000000001,-0.019012,0.026733,0.180893
1114,11.14,-1.079604,1.422476,1.078573,0.039580999999999984,-0.009491,0.22349499999999997
1115,11.15,-0.526158,1.338335,1.2951549999999998,0.119476,-0.044647000000000006,0.262909
1116,11.16,-0.0011869999999999936,0.917386,1.435755,0.20681799999999997,-0.057419000000000005,0.290619
1117,11.17,0.2693,0.28327800000000003,1.428408,0.280319,-0.048904,0.29274
1118,11.18,0.322898,-0.334801,1.41316,0.31868,-0.014816,0.284225
1119,11.19,0.23799499999999998,-0.724282,1.310692,0.31868,0.045898,0.25758400000000004
1120,11.2,-0.29374500000000003,-1.038397,1.339591,0.308014,0.117279,0.20965599999999998
1121,11.21,-0.9732379999999999,-1.10448,1.290492,0.255829,0.208893,0.163849
1122,11.22,-1.690682,-0.971888,1.51795,0.143967,0.321808,0.122299
1123,11.23,-2.319977,-0.912115,1.9822509999999998,0.02359,0.448578,0.094604
1124,11.24,-2.7248330000000003,-0.8116270000000001,2.466231,-0.090393,0.591324,0.07862899999999999
1125,11.25,-2.873526,-0.75435,2.910814,-0.182007,0.7234189999999999,0.09567300000000001
1126,11.26,-2.610718,-0.803235,3.172471,-0.236328,0.811829,0.123367
1127,11.27,-1.9322240000000002,-0.83457,3.205684,-0.281067,0.836334,0.134018
1128,11.28,-1.122895,-0.876033,2.9085240000000003,-0.306641,0.770279,0.136154
1129,11.29,-0.13351500000000002,-0.921268,2.440775,-0.319427,0.6200869999999999,0.146805
1130,11.3,1.0826829999999998,-0.9482299999999999,1.776185,-0.319427,0.355896,0.153198
1131,11.31,2.6256009999999996,-0.410421,1.11087,-0.315155,0.02034,0.148926
1132,11.32,4.174746,0.573164,0.671388,-0.338593,-0.28006,0.09353600000000001
1133,11.33,5.490623,1.857373,0.598649,-0.385468,-0.44624300000000006,-0.0012659999999999965
1134,11.34,6.349444,3.141195,0.723159,-0.408905,-0.457962,-0.155731
1135,11.35,5.989174,3.7937769999999995,0.71649,-0.347122,-0.385529,-0.353867
1136,11.36,4.647908999999999,3.718632,0.07240200000000002,-0.203308,-0.306702,-0.530701
1137,11.37,3.1265709999999998,3.11967,-0.998128,-0.048843,-0.261963,-0.637238
1138,11.38,2.0573240000000004,2.492696,-1.876711,0.034241,-0.269409,-0.657471
1139,11.39,1.354739,2.0937639999999997,-2.354549,0.037445,-0.33972199999999997,-0.590363
1140,11.4,0.908083,2.185896,-2.514314,-0.011566,-0.48565699999999995,-0.452942
1141,11.41,0.878534,2.701816,-2.609793,-0.086121,-0.6784819999999999,-0.292084
1142,11.42,1.007552,3.154741,-2.459582,-0.163895,-0.865967,-0.122711
1143,11.43,1.0239610000000001,3.4694019999999997,-2.134145,-0.226746,-0.97995,0.021103000000000004
1144,11.44,0.960066,3.4894019999999997,-1.849118,-0.257629,-0.9629059999999999,0.10739100000000001
1145,11.45,0.530055,2.976442,-1.466895,-0.244858,-0.8521120000000001,0.130829
1146,11.46,-0.191859,2.091743,-0.955463,-0.178802,-0.6624909999999999,0.130829
1147,11.47,-0.9462010000000001,0.930273,-0.574755,-0.062698,-0.435593,0.120178
1148,11.48,-1.592435,-0.22999600000000006,-0.5075109999999999,0.072601,-0.22254899999999997,0.11271700000000001
1149,11.49,-2.0081,-1.391832,-0.7123520000000001,0.186584,-0.05316199999999999,0.09992999999999999
1150,11.5,-2.26556,-2.38793,-0.9481290000000001,0.263275,0.083191,0.079697
1151,11.51,-2.200687,-3.030928,-1.281613,0.2995,0.192917,0.071167
1152,11.52,-1.810201,-3.471386,-1.6841959999999998,0.27713000000000004,0.29518099999999997,0.088211
1153,11.53,-1.231702,-3.729975,-1.989681,0.214279,0.375076,0.111649
1154,11.54,-0.442651,-3.9172589999999996,-2.3420419999999997,0.13118,0.420883,0.138275
1155,11.55,0.296973,-3.825446,-2.477907,0.043838999999999996,0.424072,0.15213
1156,11.56,0.925625,-3.477992,-2.363742,-0.040313999999999996,0.386795,0.153198
1157,11.57,1.433891,-2.980218,-2.015191,-0.11383099999999999,0.333527,0.142548
1158,11.58,1.8372810000000002,-2.2885619999999998,-1.507296,-0.16708399999999998,0.26853899999999997,0.120178
1159,11.59,2.111287,-1.59266,-1.083018,-0.199051,0.20675700000000002,0.096741
1160,11.6,2.109318,-0.9410209999999999,-0.7198869999999999,-0.224609,0.150299,0.075424
1161,11.61,1.9539259999999998,-0.285821,-0.379253,-0.24379,0.111954,0.062653
1162,11.62,1.6099700000000001,0.250446,0.004507000000000011,-0.22141999999999998,0.09491000000000001,0.055191
1163,11.63,1.219481,0.715232,0.325034,-0.156433,0.095978,0.053055
1164,11.64,0.817313,1.110867,0.5020439999999999,-0.045654000000000014,0.134323,0.051987
1165,11.65,0.516726,1.3438379999999999,0.567905,0.077927,0.188644,0.045609
1166,11.66,0.332611,1.485865,0.5927520000000001,0.189774,0.264282,0.023239
1167,11.67,0.122531,1.337931,0.646588,0.279251,0.348434,-0.019379
1168,11.68,0.226413,0.7370979999999999,0.655342,0.333588,0.40596,-0.06304900000000001
1169,11.69,0.41089799999999993,0.10586,0.600141,0.344238,0.40489200000000003,-0.124847
1170,11.7,0.784464,-0.566392,0.505232,0.317612,0.358032,-0.179169
1171,11.71,1.296722,-1.148188,0.48226800000000003,0.250504,0.26853899999999997,-0.216446
1172,11.72,1.6978099999999998,-1.599236,0.5351640000000001,0.165268,0.155624,-0.238831
1173,11.73,2.0786700000000002,-1.8135740000000002,0.663429,0.07579,0.061890000000000014,-0.23349
1174,11.74,2.4992360000000002,-1.9374200000000001,0.8174819999999999,-0.019012,-0.025467,-0.207932
1175,11.75,2.772641,-1.9725080000000002,1.143384,-0.099976,-0.10856600000000001,-0.187683
1176,11.76,2.917215,-1.968292,1.488294,-0.152176,-0.17993199999999998,-0.15998800000000002
1177,11.77,2.764048,-1.976668,1.7340970000000002,-0.178802,-0.226807,-0.15040599999999998
1178,11.78,2.458628,-1.964816,1.910838,-0.209702,-0.26621999999999996,-0.15040599999999998
1179,11.79,2.194389,-2.043126,2.043302,-0.251236,-0.30989099999999997,-0.16745
1180,11.8,1.734264,-2.014176,2.215045,-0.286392,-0.33653299999999997,-0.193024
1181,11.81,1.29906,-1.817445,2.248769,-0.307709,-0.31842,-0.209
1182,11.82,0.5391130000000001,-1.3405639999999999,2.0441279999999997,-0.323685,-0.297104,-0.211121
1183,11.83,-0.480091,-0.428815,1.387989,-0.352448,-0.26621999999999996,-0.18556199999999998
1184,11.84,-1.221666,0.628205,1.038467,-0.42488100000000006,-0.244919,-0.12803599999999998
1185,11.85,-1.953093,2.026564,1.024484,-0.511169,-0.240646,-0.048141
1186,11.86,-2.607267,3.386048,1.272047,-0.542053,-0.249176,0.044539999999999996
1187,11.87,-2.83672,4.247344,1.314088,-0.47387700000000005,-0.25663800000000003,0.15213
1188,11.88,-2.81851,4.500556,0.860094,-0.327942,-0.235321,0.24693299999999999
1189,11.89,-2.845902,4.36677,0.24664200000000006,-0.185196,-0.176743,0.30445900000000004
1190,11.9,-2.810434,4.1518690000000005,-0.270185,-0.088257,-0.08618200000000001,0.298065
1191,11.91,-3.005532,4.240692,-0.753677,-0.019012,0.008621000000000005,0.24374400000000002
1192,11.92,-3.671269,4.599842,-1.1631559999999999,0.004425,0.10981800000000001,0.18196099999999998
1193,11.93,-3.986131,5.210746,-1.5026760000000001,-0.032867,0.225937,0.14041099999999998
1194,11.94,-3.7521050000000002,5.371828,-1.624409,-0.089325,0.289856,0.12123099999999999
1195,11.95,-2.603462,5.010891,-1.462393,-0.099976,0.330338,0.163849
1196,11.96,-1.0174889999999999,4.088697,-1.290928,-0.020081,0.35375999999999996,0.18728599999999998
1197,11.97,0.28349499999999994,2.727231,-1.23891,0.11413599999999999,0.355896,0.17131
1198,11.98,1.2880610000000001,1.285686,-1.2428780000000001,0.256882,0.33671599999999996,0.11911
1199,11.99,1.949369,0.06714299999999995,-1.388485,0.363419,0.304764,0.040283
1200,12.0,2.249294,-0.9669780000000001,-1.6521709999999998,0.431595,0.25149499999999997,-0.059860000000000003
1201,12.01,2.299776,-1.954247,-1.919197,0.461426,0.16734300000000002,-0.16745
1202,12.02,2.1068119999999997,-2.876735,-2.234476,0.45929,0.062943,-0.269714
1203,12.03,1.633616,-3.6933269999999996,-2.425729,0.421997,-0.04676799999999999,-0.34428400000000003
1204,12.04,0.9085840000000001,-4.304626,-2.384923,0.360214,-0.159698,-0.357071
1205,12.05,0.14777500000000005,-4.609428,-2.165342,0.28884899999999997,-0.235321,-0.309128
1206,12.06,-0.588417,-4.571000000000001,-1.929025,0.20788600000000002,-0.27368200000000004,-0.22071799999999997
1207,12.07,-1.193711,-4.325285,-1.641588,0.13331600000000002,-0.276871,-0.12271099999999999
1208,12.08,-1.560991,-3.802651,-1.344286,0.074722,-0.288589,-0.034286000000000004
1209,12.09,-1.8889509999999998,-3.057196,-0.980082,0.034241,-0.30137600000000003,0.036011
1210,12.1,-2.133044,-2.226794,-0.605509,0.020401,-0.31309499999999996,0.083954
1211,12.11,-2.156303,-1.2992860000000002,-0.368312,0.020401,-0.316284,0.111649
1212,12.12,-2.068116,-0.533015,-0.11420899999999999,0.021469,-0.314148,0.11483800000000001
1213,12.13,-1.8959759999999999,0.14413300000000004,0.17193800000000006,0.018265,-0.31095900000000004,0.11058
1214,12.14,-1.635441,0.620047,0.49461000000000005,0.022537,-0.31095900000000004,0.115906
1215,12.15,-1.286371,0.943422,0.784116,0.036377,-0.288589,0.14041099999999998
1216,12.16,-0.782413,1.0712700000000002,1.061009,0.072601,-0.238525,0.180893
1217,12.17,-0.19523400000000007,1.043863,1.250976,0.130127,-0.16181900000000002,0.233093
1218,12.18,0.28353699999999993,0.877339,1.305778,0.214279,-0.101105,0.26825
1219,12.19,0.576693,0.428021,1.322023,0.29631,-0.068085,0.288483
1220,12.2,0.724332,-0.12019400000000001,1.3363040000000002,0.353821,-0.044647000000000006,0.290619
1221,12.21,0.66289,-0.7461810000000001,1.387264,0.371933,-0.035049000000000004,0.253326
1222,12.22,0.261968,-1.290741,1.419244,0.342102,-0.022278,0.197937
1223,12.23,-0.328205,-1.705095,1.553182,0.269669,0.010757,0.139343
1224,12.24,-0.9142610000000001,-1.9198979999999999,1.760098,0.18019100000000002,0.066147,0.097794
1225,12.25,-1.396873,-1.879657,1.976068,0.09709199999999997,0.13858,0.063705
1226,12.26,-1.71934,-1.759116,2.359939,0.038513,0.219543,0.047729
1227,12.27,-1.9672470000000002,-1.551417,2.702665,0.031052,0.316483,0.045609
1228,12.28,-2.126297,-1.367587,2.830597,0.040633999999999997,0.427277,0.061584
1229,12.29,-1.996678,-1.237415,2.844576,0.035309,0.523148,0.088211
1230,12.3,-1.584913,-1.144341,2.765543,0.017197,0.5859989999999999,0.10313399999999999
1231,12.31,-1.067433,-1.096487,2.509464,-0.015823,0.561493,0.10951199999999998
1232,12.32,-0.318087,-1.245443,2.215377,-0.04245,0.393173,0.11483800000000001
1233,12.33,0.667245,-0.922326,1.643205,-0.052032,0.126862,0.116974
1234,12.34,1.742552,-0.10471600000000003,1.0852030000000001,-0.114883,-0.10536199999999998,0.10951199999999998
1235,12.35,3.1466119999999997,1.150052,0.9073040000000001,-0.259766,-0.20443699999999998,0.07223500000000001
1236,12.36,4.266454,2.720443,1.031615,-0.390793,-0.209763,-0.04068
1237,12.37,4.529146,4.142975,1.189067,-0.407837,-0.22148099999999998,-0.20047
1238,12.38,3.7939510000000003,5.01689,0.957983,-0.302383,-0.251297,-0.36132800000000004
1239,12.39,2.815747,5.239504,0.125778,-0.119156,-0.268341,-0.465729
1240,12.4,2.26975,4.858062,-1.076085,0.07366900000000001,-0.298172,-0.49768100000000004
1241,12.41,1.92413,4.349869,-2.2301279999999997,0.210022,-0.391922,-0.451874
1242,12.42,1.921075,4.171131,-2.8929720000000003,0.266479,-0.5506439999999999,-0.34428400000000003
1243,12.43,2.091629,4.388465,-3.104763,0.253693,-0.6880649999999999,-0.21965
1244,12.44,2.463739,5.029658,-3.078747,0.19191,-0.772217,-0.096085
1245,12.45,2.565285,5.458513,-2.76614,0.090714,-0.7690279999999999,-0.033234
1246,12.46,1.600114,5.013018,-1.963495,0.003356999999999999,-0.697647,-0.023636
1247,12.47,0.026932999999999874,3.871324,-1.2876020000000001,0.005493,-0.567688,-0.020447
1248,12.48,-1.339866,2.449538,-0.847425,0.085373,-0.424942,0.010452
1249,12.49,-2.309858,0.92929,-0.70839,0.211075,-0.28326399999999996,0.055191
1250,12.5,-2.835331,-0.6369520000000001,-0.897148,0.358093,-0.159698,0.083954
1251,12.51,-3.0535099999999997,-2.131201,-1.2848899999999999,0.48912,-0.054229999999999993,0.10206599999999999
1252,12.52,-3.0092119999999998,-3.492517,-1.6936209999999998,0.567947,0.036316,0.11271700000000001
1253,12.53,-2.7297919999999998,-4.627584,-1.9981779999999998,0.57753,0.128998,0.127625
1254,12.54,-2.0465259999999996,-5.599508999999999,-2.305678,0.5285340000000001,0.20675700000000002,0.141479
1255,12.55,-1.151774,-6.242084999999999,-2.494813,0.437988,0.230194,0.153198
1256,12.56,-0.09664700000000004,-6.3617349999999995,-2.5586,0.315475,0.197174,0.164917
1257,12.57,0.97203,-5.936355000000001,-2.409311,0.17593399999999998,0.12260399999999999,0.16597
1258,12.58,1.79247,-5.178358,-1.975041,0.048096,0.04377700000000001,0.151062
1259,12.59,2.4314810000000002,-4.179743,-1.534767,-0.057358000000000006,-0.024399,0.10845899999999999
1260,12.6,2.7946560000000003,-3.183352,-1.1631209999999998,-0.139389,-0.085129,0.057326999999999996
1261,12.61,2.996575,-2.166589,-0.806365,-0.20544400000000002,-0.12773099999999998,0.007248000000000002
1262,12.62,2.933726,-1.20744,-0.495626,-0.24591100000000002,-0.154358,-0.043884
1263,12.63,2.584953,-0.257755,-0.316264,-0.24591100000000002,-0.142654,-0.077972
1264,12.64,2.176684,0.747786,-0.09141599999999997,-0.20224,-0.096848,-0.10141
1265,12.65,1.647566,1.7068259999999997,0.037426,-0.114883,-0.038254,-0.146149
1266,12.66,1.111351,2.411152,0.142381,-0.005172999999999997,0.023528999999999998,-0.207932
1267,12.67,0.545623,2.7078849999999997,0.240006,0.10029600000000001,0.078934,-0.298477
1268,12.68,-0.23682300000000006,2.637808,0.44838999999999996,0.17698699999999998,0.12579300000000002,-0.389023
1269,12.69,-0.5902310000000001,2.04465,0.576562,0.23025500000000002,0.16734300000000002,-0.433762
1270,12.7,-0.5605399999999999,1.015667,0.54455,0.237717,0.187592,-0.464661
1271,12.71,-0.44251899999999994,0.02813199999999999,0.511528,0.20256,0.169479,-0.46040299999999995
1272,12.72,-0.033661,-0.728349,0.535284,0.11413599999999999,0.103424,-0.42524700000000004
1273,12.73,0.5845,-1.3088549999999999,0.656668,0.005492999999999991,0.012877999999999994,-0.378372
1274,12.74,1.3535700000000002,-1.648938,0.856123,-0.099976,-0.091507,-0.31338499999999997
1275,12.75,1.965748,-1.8425040000000001,1.07318,-0.200104,-0.188446,-0.2612
1276,12.76,2.290434,-1.9271369999999999,1.424867,-0.274673,-0.27368200000000004,-0.211121
1277,12.77,2.612596,-2.211763,1.679155,-0.310898,-0.341858,-0.178101
1278,12.78,2.627825,-2.376184,1.795681,-0.354568,-0.39724699999999996,-0.157867
1279,12.79,2.354908,-2.686404,1.8755990000000002,-0.406769,-0.42813100000000004,-0.151474
1280,12.8,1.894425,-2.904032,2.042061,-0.474945,-0.43879700000000005,-0.145081
1281,12.81,1.3310440000000001,-3.051786,2.270168,-0.5473939999999999,-0.41535900000000003,-0.136551
1282,12.82,0.776626,-2.992532,2.6531439999999997,-0.598526,-0.349304,-0.140823
1283,12.83,0.105308,-2.642839,3.020813,-0.608109,-0.244919,-0.151474
1284,12.84,-0.502043,-1.7062700000000002,3.03061,-0.6166229999999999,-0.119217,-0.144012
1285,12.85,-1.2448569999999999,-0.36147199999999996,2.709953,-0.6507109999999999,0.005431999999999999,-0.108856
1286,12.86,-1.93267,1.289016,2.616961,-0.721024,0.066147,-0.06304900000000001
1287,12.87,-2.5537970000000003,2.652309,3.010309,-0.763641,0.066147,-0.010864
1288,12.88,-2.9224,3.680073,3.134657,-0.670959,0.051224,0.075424
1289,12.89,-2.912071,4.1097220000000005,2.4466810000000003,-0.45257600000000003,-0.005233999999999999,0.16278099999999998
1290,12.9,-2.717275,4.376974,0.7440869999999999,-0.209702,-0.10856600000000001,0.254395
1291,12.91,-2.528622,4.326318,-0.798505,-0.047775,-0.227875,0.309784
1292,12.92,-2.4785049999999997,4.40791,-1.882693,0.015076000000000003,-0.276871,0.324707
1293,12.93,-2.477973,4.817782,-2.427474,0.014008000000000001,-0.235321,0.294876
1294,12.94,-2.755104,5.294708999999999,-2.265784,-0.006225999999999999,-0.10749799999999997,0.23628200000000002
1295,12.95,-2.6434900000000003,6.076422,-1.7419939999999998,-0.044586,0.07572899999999999,0.1745
1296,12.96,-2.213347,6.310673,-1.151827,-0.063751,0.2547,0.116974
1297,12.97,-1.547726,5.704899,-0.666668,-0.007294000000000002,0.40170300000000003,0.09567300000000001
1298,12.98,-0.864283,4.387498,-0.684584,0.12266500000000001,0.51355,0.10313399999999999
1299,12.99,-0.22886399999999998,2.7024209999999997,-1.026851,0.28884899999999997,0.556168,0.11058
1300,13.0,0.21960700000000002,0.9611209999999999,-1.566862,0.44970699999999997,0.554031,0.091415
1301,13.01,0.43243000000000004,-0.701743,-2.101752,0.546646,0.511429,0.042404000000000004
1302,13.02,0.614347,-2.261145,-2.490241,0.580734,0.436859,-0.012985
1303,13.03,0.669771,-3.498656,-2.719027,0.551971,0.343109,-0.08541900000000001
1304,13.04,0.607163,-4.362352,-2.791988,0.482727,0.237656,-0.15466300000000002
1305,13.05,0.469053,-4.9539860000000004,-2.766866,0.391113,0.140717,-0.199402
1306,13.06,0.291553,-5.199412000000001,-2.6258939999999997,0.295242,0.044846,-0.209
1307,13.07,0.038575,-5.157061,-2.421902,0.19403099999999998,-0.036118,-0.17598
1308,13.08,-0.215518,-4.923491,-2.139206,0.103485,-0.107498,-0.103531
1309,13.09,-0.426623,-4.364991000000001,-1.9124279999999998,0.01826499999999999,-0.183121,-0.0034030000000000032
1310,13.1,-0.584575,-3.6033120000000003,-1.656248,-0.055237,-0.253433,0.100998
1311,13.11,-0.598692,-2.714425,-1.302351,-0.105301,-0.312027,0.190475
1312,13.12,-0.704852,-1.7425869999999999,-0.9286110000000001,-0.132996,-0.35144000000000003,0.250137
1313,13.13,-0.981181,-0.678669,-0.501374,-0.132996,-0.372742,0.286346
1314,13.14,-1.277393,0.22471999999999998,-0.07266300000000002,-0.114883,-0.379135,0.30127
1315,13.15,-1.529283,0.939675,0.232715,-0.087189,-0.364227,0.30445900000000004
1316,13.16,-1.66327,1.407024,0.571908,-0.058426,-0.333328,0.307663
1317,13.17,-1.6654520000000002,1.621834,0.840325,-0.021149,-0.28326399999999996,0.30127
1318,13.18,-1.516125,1.481285,1.084264,0.02359,-0.212952,0.30339099999999997
1319,13.19,-1.134478,1.2591290000000002,1.2325979999999999,0.07366900000000001,-0.144775,0.30445900000000004
1320,13.2,-0.7788069999999999,0.797139,1.3830799999999999,0.134384,-0.095779,0.299133
1321,13.21,-0.53932,0.243612,1.389312,0.18338,-0.06488,0.300201
1322,13.22,-0.240076,-0.329163,1.515766,0.201492,-0.027602999999999996,0.294876
1323,13.23,-0.19911199999999998,-0.89974,1.673197,0.192978,0.0022280000000000012,0.272507
1324,13.24,-0.319921,-1.314782,1.8179459999999998,0.15036,0.049102999999999994,0.23628200000000002
1325,13.25,-0.6076,-1.646162,1.930796,0.094971,0.10555999999999999,0.19368
1326,13.26,-0.907015,-1.705841,1.939756,0.038513,0.165207,0.144669
1327,13.27,-1.226876,-1.614659,1.978721,-0.019012,0.231262,0.10739100000000001
1328,13.28,-1.441632,-1.4166239999999999,2.138766,-0.065887,0.3069,0.07862899999999999
1329,13.29,-1.6319139999999999,-1.212212,2.221662,-0.086121,0.38359099999999996,0.061584
1330,13.3,-1.648579,-1.123921,2.3861470000000002,-0.103165,0.468811,0.064774
1331,13.31,-1.419941,-1.1983030000000001,2.5401380000000002,-0.102112,0.53273,0.075424
1332,13.32,-1.02383,-1.3927120000000002,2.434454,-0.08506799999999999,0.529541,0.089279
1333,13.33,-0.493338,-1.655616,2.125197,-0.063751,0.44325299999999995,0.10206599999999999
1334,13.34,0.260726,-1.618615,1.6476939999999998,-0.059494000000000005,0.245102,0.11911
1335,13.35,1.228238,-1.038314,1.133014,-0.087189,0.028854000000000005,0.120178
1336,13.36,2.017234,0.08999400000000002,0.852614,-0.163895,-0.130936,0.09567300000000001
1337,13.37,3.089572,1.674668,0.897493,-0.26615900000000003,-0.17993199999999998,0.026427999999999997
1338,13.38,3.77325,3.562865,1.043173,-0.326874,-0.118149,-0.106735
1339,13.39,3.77829,5.05775,0.953498,-0.307709,9.199999999999486e-05,-0.281433
1340,13.4,3.092434,5.847693,0.324918,-0.21076999999999999,0.13858,-0.45401
1341,13.41,2.502749,5.9131160000000005,-0.5907020000000001,-0.082932,0.260025,-0.5605319999999999
1342,13.42,2.063053,5.434617,-1.347687,0.042769999999999996,0.309021,-0.592484
1343,13.43,1.81046,5.068465,-1.950332,0.164215,0.239777,-0.543488
1344,13.44,1.657977,4.94383,-2.408012,0.250504,0.049103000000000015,-0.44548000000000004
1345,13.45,1.3605450000000001,4.954472,-2.52975,0.282455,-0.17460599999999998,-0.312332
1346,13.46,0.8452649999999999,4.831739,-2.173851,0.285645,-0.347183,-0.164261
1347,13.47,0.31438299999999997,4.512466000000001,-1.71775,0.316544,-0.422806,-0.027908
1348,13.48,-0.13829500000000006,3.723935,-1.61485,0.390045,-0.411087,0.074371
1349,13.49,-0.623498,2.492445,-1.694293,0.468872,-0.333328,0.148926
1350,13.5,-0.988137,1.037423,-1.77994,0.539185,-0.218277,0.200073
1351,13.51,-1.159823,-0.364935,-1.965284,0.6062930000000001,-0.10643,0.220306
1352,13.52,-1.301559,-1.6015979999999999,-2.124686,0.649963,-0.004166000000000003,0.22244299999999997
1353,13.53,-1.22835,-2.6647529999999997,-2.33858,0.67128,0.07786599999999999,0.20965599999999998
1354,13.54,-1.22082,-3.478536,-2.431098,0.642517,0.17266800000000002,0.18515
1355,13.55,-0.987627,-4.121087,-2.449727,0.565811,0.255768,0.170242
1356,13.56,-0.619663,-4.583139,-2.2939060000000002,0.44970699999999997,0.330338,0.160645
1357,13.57,-0.09860600000000004,-4.923548,-2.08465,0.322937,0.389984,0.148926
1358,13.58,0.421404,-5.056316000000001,-1.9609130000000001,0.208954,0.426208,0.128693
1359,13.59,0.9474370000000001,-4.7992989999999995,-1.7619919999999998,0.104553,0.43472299999999997,0.10313399999999999
1360,13.6,1.2726629999999999,-4.250399,-1.559439,0.009750000000000002,0.420883,0.07649199999999999
1361,13.61,1.495126,-3.451834,-1.151282,-0.062698,0.408096,0.039215
1362,13.62,1.622113,-2.497686,-0.711735,-0.102112,0.397446,-0.006592000000000001
1363,13.63,1.6521130000000002,-1.6247479999999999,-0.27835,-0.10955799999999999,0.39211999999999997,-0.050277999999999996
1364,13.64,1.563283,-0.8533440000000001,0.057822999999999986,-0.091446,0.375076,-0.087555
1365,13.65,1.419067,-0.22870500000000002,0.29317,-0.060562,0.33992,-0.11845399999999999
1366,13.66,1.3063850000000001,0.312722,0.447504,-0.020081,0.296249,-0.139755
1367,13.67,1.228842,0.731024,0.49453800000000003,0.032119999999999996,0.263214,-0.156799
1368,13.68,1.10649,1.1860110000000001,0.552697,0.08325199999999999,0.245102,-0.179169
1369,13.69,0.918975,1.4607350000000001,0.599557,0.134384,0.253632,-0.214325
1370,13.7,0.759229,1.423106,0.7289220000000001,0.179123,0.285583,-0.256927
1371,13.71,0.57239,1.107391,0.8155020000000001,0.22386199999999998,0.335663,-0.29634099999999997
1372,13.72,0.454309,0.471342,0.8469,0.271805,0.386795,-0.321915
1373,13.73,0.35322600000000004,-0.33584499999999995,0.730067,0.300568,0.43046599999999996,-0.332565
1374,13.74,0.308859,-1.0392,0.546299,0.284592,0.449646,-0.322983
1375,13.75,0.431317,-1.456417,0.45175,0.218536,0.444321,-0.287827
1376,13.76,0.67429,-1.842482,0.545092,0.120529,0.388916,-0.243088
1377,13.77,0.834849,-1.799482,0.538328,0.006545999999999996,0.314346,-0.193024
1378,13.78,1.0507360000000001,-1.728277,0.6701729999999999,-0.09890700000000001,0.22168000000000002,-0.135498
1379,13.79,1.3175219999999999,-1.6345809999999998,1.051018,-0.16708399999999998,0.120468,-0.083298
1380,13.8,1.613208,-1.510995,1.354795,-0.196915,0.040573000000000005,-0.046005000000000004
1381,13.81,1.8059479999999999,-1.3487639999999999,1.558288,-0.203308,-0.030792,-0.04068
1382,13.82,2.067246,-1.202907,1.74469,-0.219284,-0.098969,-0.055603
1383,13.83,2.115127,-1.1310120000000001,1.904495,-0.252304,-0.165024,-0.080093
1384,13.84,2.1626990000000004,-1.003204,2.1853990000000003,-0.31196599999999997,-0.188446,-0.112061
1385,13.85,1.9035529999999998,-1.096447,2.481984,-0.369492,-0.19165,-0.164261
1386,13.86,1.4608299999999999,-1.233899,2.671438,-0.433411,-0.143707,-0.194077
1387,13.87,0.9102049999999999,-0.9588270000000001,2.8493209999999998,-0.507965,-0.092575,-0.20153800000000002
1388,13.88,-0.16300200000000006,-0.03442699999999998,2.8560779999999997,-0.592133,-0.051041,-0.153595
1389,13.89,-1.1449479999999999,1.411407,2.8377529999999997,-0.659241,-0.032928,-0.054535
1390,13.9,-1.764791,2.645972,2.7515169999999998,-0.660309,-0.06488,0.081818
1391,13.91,-1.836213,3.37656,2.219421,-0.5239560000000001,-0.08618200000000001,0.21816999999999998
1392,13.92,-1.546258,3.50209,1.129356,-0.301315,-0.13198900000000002,0.31192
1393,13.93,-1.7083419999999998,3.304502,-0.12830600000000006,-0.084,-0.20443699999999998,0.346008
1394,13.94,-2.113139,2.977486,-1.148354,0.041701999999999996,-0.251297,0.338547
1395,13.95,-2.679636,2.743457,-1.589435,0.057678,-0.26621999999999996,0.289551
1396,13.96,-3.3463010000000004,3.064868,-1.693921,-0.010498,-0.200165,0.214981
1397,13.97,-3.9678940000000003,3.7976730000000005,-1.584209,-0.15324400000000002,-0.103226,0.10206599999999999
1398,13.98,-4.274725,4.580146,-1.014094,-0.319427,0.032059,0.0008540000000000006
1399,13.99,-3.936283,4.76741,-0.196352,-0.39718600000000004,0.219543,-0.042816
1400,14.0,-2.865341,4.465134,0.339271,-0.323685,0.46241800000000005,-0.049210000000000004
