,ts,ax,ay,az,wx,wy,wz
0,0.0,-0.22065951877698048,0.563630144253391,6.562522164422999,-0.009297433965876891,0.0028933127885864217,0.0028933127885864217
1,0.01,0.039045583573786485,0.11230262630392995,1.2801590671694836,-0.005487491931258168,0.003161880371663929,0.003161880371663929
2,0.02,0.09546088512419025,-0.14688620707725,-1.8041360361620011,-0.009990979101368334,0.0033492768571554052,0.0033492768571554052
3,0.03,0.04538629231677378,-0.3198522769125384,-3.383895274299906,-0.019856829639546228,0.004949578851506689,0.004949578851506689
4,0.04,0.01255661290758283,-0.39998928293130254,-3.8733339127204065,-0.027908472168734558,0.003355423565998835,0.003355423565998835
5,0.05,0.13555838619544464,-0.41778190655842856,-3.6390037176990497,-0.02619395379874865,0.0015364892548159635,0.0015364892548159635
6,0.06,0.17592890237268577,-0.3039281690067633,-2.926467781422262,-0.019639050518034704,0.005127268506620993,0.005127268506620993
7,0.07,0.020350376046709737,-0.13112654430405535,-1.9739873110022543,-0.010836594934384072,0.00442177647128664,0.00442177647128664
8,0.08,-0.07910330523110226,0.034757817848510064,-0.9871628702285031,-0.008655394787153246,0.005903749310465351,0.005903749310465351
9,0.09,-0.026653093704790198,0.22697432546583884,-0.03523019791436499,-0.01384198351362943,0.006173651184337967,0.006173651184337967
10,0.1,0.032485763108820245,0.28873785414063424,0.9121259107187416,-0.019748601852938263,0.0064141724431590824,0.0064141724431590824
11,0.11,-0.0425753702618562,0.20258601068456705,1.7426421853194634,-0.019154078831809983,0.005172201182049818,0.005172201182049818
12,0.12,-0.08821698044825002,0.03585879981006673,2.321286211117881,-0.01825602593818186,0.004354369466810499,0.004354369466810499
13,0.13,-0.02486046418798435,0.05048550988334713,2.5566964536208925,-0.015585126282242684,0.00644033726593627,0.00644033726593627
14,0.14,-0.050031981247410505,0.22345783788176568,2.7006319771855303,-0.010054731082893596,0.007081021705266981,0.007081021705266981
15,0.15,-0.13417862628976343,0.3635025993562979,2.740906548069046,-0.007032092819900912,0.005114300142566253,0.005114300142566253
16,0.16,-0.07312507907098101,0.3437815854005166,2.7059191078100415,-0.009049628378705009,0.0070538481606419986,0.0070538481606419986
17,0.17,0.04535273280287027,0.1494665619607383,2.37527556901517,-0.012301937595953756,0.006060723094095883,0.006060723094095883
18,0.18,0.01792844980226662,-0.04268686038166131,1.8814929922836285,-0.017324552435437082,0.007272079813578755,0.007272079813578755
19,0.19,-0.1320524797741083,-0.07489552526931662,1.3262148398138418,-0.019271836761870074,0.006329375940966036,0.006329375940966036
20,0.2,-0.122880052289775,0.07649079861126593,0.9051233372831426,-0.012270385906431031,0.004757670059207068,0.004757670059207068
21,0.21,0.08433358499392136,0.15298029232315052,0.5229855153044731,-0.002082471483792384,0.004624932009637793,0.004624932009637793
22,0.22,0.12026638388214798,0.0612990254451483,0.08966242637114774,0.002288177554176809,0.0063639088819381065,0.0063639088819381065
23,0.23,-0.009257411666124829,-0.14398979385173508,-0.4704771543608611,-0.004617316168425429,0.006668423132580069,0.006668423132580069
24,0.24,-0.03988550138198459,-0.21082270327656044,-1.041541829533002,-0.014779695303659869,0.005310476586986344,0.005310476586986344
25,0.25,0.049222948979634126,-0.060269011424166075,-1.4664443032099401,-0.013621132240806222,0.0029065159732369395,0.0029065159732369395
26,0.26,0.02657401773947876,-0.0012903221442344959,-1.6427858946446354,-0.005047125665651417,0.004714995734994495,0.004714995734994495
27,0.27,-0.025480022041638378,-0.18332234030461758,-1.7703550847024623,0.007093575803524436,0.005280548402274606,0.005280548402274606
28,0.28,0.010200139556247309,-0.3405710084814556,-1.9330619541303982,0.0067699325665999425,0.0051580413163227114,0.0051580413163227114
29,0.29,0.060740933595355734,-0.2220341316666018,-2.1635357714520076,-0.004715659100386507,0.003245085276780205,0.003245085276780205
30,0.3,0.0638876365734707,-0.0837239553977855,-2.173280135961897,-0.013119210335269927,0.0026888679770242768,0.0026888679770242768
31,0.31,0.06344285327104104,-0.10414861755884292,-2.0405174814722806,-0.011972128586117013,0.0019216450477278386,0.0019216450477278386
32,0.32,0.10487375600999745,-0.354525242357101,-1.8699892260808908,-5.6286922840795984e-05,0.0019308273891881387,0.0019308273891881387
33,0.33,0.05917843265871646,-0.47202120869894104,-1.7817746439464037,0.002930679256380486,0.0021679926146474853,0.0021679926146474853
34,0.34,-0.05683803966982566,-0.2711122503075359,-1.6383485705380418,0.0013470492436892265,0.002001134642421437,0.002001134642421437
35,0.35,-0.0314523446599253,0.028625466862698123,-1.4130188136039192,-0.004187329768115435,-0.0006481789148558741,-0.0006481789148558741
36,0.36,0.12092979042677449,0.18918343120284664,-1.0310854607203122,-0.003926979573783608,-0.00044518306724754286,-0.00044518306724754286
37,0.37,0.14919615819526705,0.02289580550667388,-0.6581272405675014,0.0006411918043900283,-0.00020209746316453628,-0.00020209746316453628
38,0.38,-0.0454351761976222,-0.12286856824462303,-0.3339808719936247,-0.001823067834305304,-0.0004841106735154208,-0.0004841106735154208
39,0.39,-0.10645059263133962,0.03140337891034073,-0.11696771820250562,-0.003962396873999764,0.001125415544281935,0.001125415544281935
40,0.4,0.0033577789880209867,0.3622830874980867,0.1314124064777457,-0.0038551317138204094,0.0013836127538024905,0.0013836127538024905
41,0.41,0.07350138560268091,0.3592760809527562,0.4561386287611303,0.002425798286429791,-0.0023611867285861397,-0.0023611867285861397
42,0.42,-0.012856745891287076,0.05078742921021771,0.8290377775581126,0.0018412572609741078,-0.004282063550676486,-0.004282063550676486
43,0.43,-0.0843663002851046,-0.10177373271073792,1.062809628143488,-0.00891772294854866,-0.0033970680497660078,-0.0033970680497660078
44,0.44,-0.040897155851453766,0.1561748084214707,1.1964217844566847,-0.016905780684701197,-0.0007463844684320832,-0.0007463844684320832
45,0.45,0.000712539413375627,0.36516138716978863,1.3167283513772798,-0.00930694952664369,-0.0013290758048459307,-0.0013290758048459307
46,0.46,0.027475926080616005,0.1773651988153556,1.4447354719252394,-0.0016704313775915134,-0.0001472869533019339,-0.0001472869533019339
47,0.47,-0.034236965746262366,-0.030403477971091497,1.5728779848001135,0.0005924439691185079,-0.002968782948710249,-0.002968782948710249
48,0.48,-0.11021012473672218,0.07975251409480427,1.5678479784085724,-0.009769310778715323,-0.0032143297668813433,-0.0032143297668813433
49,0.49,-0.13019948308723836,0.41098286269611123,1.5206799118406156,-0.014220332795788588,-0.001612050723952133,-0.001612050723952133
50,0.5,-0.07300203985859581,0.352795381895169,1.4979327868206727,-0.012260450561224894,-0.0013597087321446464,-0.0013597087321446464
51,0.51,-0.008162071085887318,0.0043136686476156205,1.5198589449905784,-0.01050031351141282,-0.0022494538323150127,-0.0022494538323150127
52,0.52,-0.01240990973780156,-0.13849058089451227,1.5482732420444016,-0.01260906632927928,-0.0015315316513997961,-0.0015315316513997961
53,0.53,-0.02284836310224438,0.05948841900667372,1.3875032340980127,-0.01840715342229704,-7.043322605470009e-05,-7.043322605470009e-05
54,0.54,-0.014277287846776478,0.21078803400458274,1.2315603111363815,-0.01711789105398142,-0.0004492314651590047,-0.0004492314651590047
55,0.55,0.018721921338067615,0.017307229245154654,1.0170032112523044,-0.014847285538131597,-0.0035266078977844242,-0.0035266078977844242
56,0.56,0.010503486907180904,-0.2537970276220205,0.9037174937283547,-0.017853434784285936,-0.002733309894798471,-0.002733309894798471
57,0.57,0.0469586061811984,-0.22101725008033063,0.7207837600312639,-0.02348341916879166,-0.0027627762808593273,-0.0027627762808593273
58,0.58,0.012794849487029334,0.06655521198971542,0.4764138757267173,-0.022629326495968383,-0.0003661397903852951,-0.0003661397903852951
59,0.59,-0.008724804072438724,0.17449464252455452,0.21982933119897963,-0.014884769178486062,0.0006221614612169784,0.0006221614612169784
60,0.6,-0.013464925883255114,0.007840021840710115,0.03687612456289047,-0.009243801863484244,-0.0002706850330845763,-0.0002706850330845763
61,0.61,-0.021307645231033456,-0.18390731277045586,-0.0892674276184745,-0.013150157765394736,-0.0016841121110952484,-0.0016841121110952484
62,0.62,-0.03146774802795957,-0.14184152411725054,-0.2573605653635655,-0.02264552312479614,-0.001030608068047627,-0.001030608068047627
63,0.63,-0.0039629762105033405,0.11293482660558261,-0.5509317780163432,-0.02181117728630505,0.0008682788391139076,0.0008682788391139076
64,0.64,-0.004582965094471692,0.15219883530527853,-0.8058024283535683,-0.014068565272297604,-0.001934554130671376,-0.001934554130671376
65,0.65,0.0001602596806003151,-0.09320070920022366,-0.9107545995756703,-0.004847182999721614,-0.005813620868388684,-0.005813620868388684
66,0.66,0.06085186073719234,-0.3629513894187593,-0.925297692277666,-0.006253136124380918,-0.004732180966582299,-0.004732180966582299
67,0.67,0.11027296557935695,-0.3245904822903115,-0.9900890979688198,-0.018515577134496308,-0.0035541223980308095,-0.0035541223980308095
68,0.68,0.06208433949792906,-0.09647312147762535,-1.1476508161909384,-0.028370488810997307,-0.006398987982239693,-0.006398987982239693
69,0.69,-0.005805219998684698,-0.026273289380283296,-1.2967374910573337,-0.02013954255776813,-0.0063449503674863185,-0.0063449503674863185
70,0.7,0.044135271415812936,-0.2973696972576275,-1.3143013809723358,-0.009403770477894865,-0.006585298012073604,-0.006585298012073604
71,0.71,0.13743598006601868,-0.5368150359874516,-1.2745332447636342,-0.008245927525942599,-0.00781695536048688,-0.00781695536048688
72,0.72,0.06104111560026249,-0.2706754855582639,-1.1723763781424326,-0.017145429860187394,-0.005833203817021482,-0.005833203817021482
73,0.73,-0.08701103358599255,0.1893723375003997,-1.226216274698497,-0.021038337029312303,-0.006735037012451716,-0.006735037012451716
74,0.74,-0.08931307937904046,0.25950633724764427,-1.2526592383576505,-0.011841361396746913,-0.006377169061606678,-0.006377169061606678
75,0.75,0.0028380816254645475,-0.1150926001022203,-1.2077266586261617,-0.002416690849476389,-0.006640168362573052,-0.006640168362573052
76,0.76,0.0334810689277194,-0.2961132129708266,-0.9964666603471335,-0.0045679876082107525,-0.009836358059415264,-0.009836358059415264
77,0.77,-0.03806674131114865,-0.010736751284892473,-0.7213324444958444,-0.009994925558143087,-0.006964065715248591,-0.006964065715248591
78,0.78,-0.0734284069931359,0.35217359280371685,-0.6448651731250312,-0.006426295982680428,-0.00653444029797171,-0.00653444029797171
79,0.79,-0.03572697522271286,0.2653125599034938,-0.5678732125309498,0.003219232974987061,-0.0052217954133360325,-0.0052217954133360325
80,0.8,-0.004816122890804794,-0.037979297217538344,-0.5190762440429545,0.009105204190055505,-0.0063202272456553115,-0.0063202272456553115
81,0.81,-0.06107573163112455,-0.0845164911795193,-0.2961390818680814,0.005463843245821883,-0.007242598789686178,-0.007242598789686178
82,0.82,-0.06712331008479086,0.1502243839488161,-0.06321684207841445,-0.001394113707903992,-0.006927840359618559,-0.006927840359618559
83,0.83,-0.007627273709203887,0.3089161099963321,0.13338329832069942,0.002048081931781796,-0.0066571796409643546,-0.0066571796409643546
84,0.84,0.05496153797126606,0.13079523837017532,0.22201466810595238,0.0046584221838163326,-0.006975517813443412,-0.006975517813443412
85,0.85,0.06923242260619632,-0.15888094167785974,0.3459930050904365,0.008409595352096118,-0.008106438282312837,-0.008106438282312837
86,0.86,0.051258469136477615,-0.2523895867592234,0.46316147456169315,0.0036029165641468337,-0.00768609384128808,-0.00768609384128808
87,0.87,0.03829515886257825,0.009196925872017106,0.5492746463758122,-0.00515967408852951,-0.006275937173850614,-0.006275937173850614
88,0.88,0.011734726594594057,0.2086068994078861,0.6373097900665011,-0.002521054516429992,-0.005508096607527576,-0.005508096607527576
89,0.89,-0.0057637106895088025,0.15608143127633983,0.6914878195659382,0.0075709570559618425,-0.0032444026454010733,-0.0032444026454010733
90,0.9,0.04144199450441066,0.02565082000792876,0.8078047587354895,0.014481153308095584,-0.0073126688965988096,-0.0073126688965988096
91,0.91,0.09954176719086824,0.011313599865596088,0.8528697715565533,0.010199312190376895,-0.006753647530786722,-0.006753647530786722
92,0.92,0.030098863842715567,0.16692073341953814,0.8495016283626003,0.002425220863756912,-0.002932241304055109,-0.002932241304055109
93,0.93,-0.12346169489681261,0.2552932303597011,0.8237905838563104,0.004139291104431375,-0.0036746368899145455,-0.0036746368899145455
94,0.94,-0.08213629675793412,0.17481341852503,0.7751951371877656,0.01042799437534738,-0.004846984701498498,-0.004846984701498498
95,0.95,0.12255521002182114,0.004196091077393896,0.799077438461952,0.01435664027848614,-0.00567571377719581,-0.00567571377719581
96,0.96,0.12734228955517662,0.058314067095448334,0.8260385256041518,0.016671092095000884,-0.005151873624339512,-0.005151873624339512
97,0.97,-0.07083143945270803,0.2243886745409043,0.8610591232559778,0.016682164701555747,-0.0052340911597272746,-0.0052340911597272746
98,0.98,-0.08395990681279174,0.15921126017014833,0.7203517618279303,0.013453243844796806,-0.005511299786161035,-0.005511299786161035
99,0.99,0.12604909165817357,-0.09258514565201864,0.6012266707685547,0.010393465617956059,-0.00676593960324165,-0.00676593960324165
100,1.0,0.161467507556571,-0.24053460828297912,0.5436317803116237,0.008013112443471995,-0.004619281339112379,-0.004619281339112379
101,1.01,-0.09701167698968023,-0.06794166417063768,0.6204879837723369,0.009535244678629744,-0.006168156375436364,-0.006168156375436364
102,1.02,-0.20682862885199,0.08495693064719767,0.5850158846978939,0.01736101337566201,-0.005611902053516121,-0.005611902053516121
103,1.03,-0.05775949233918663,0.10063254043243061,0.3394265080227346,0.023671101791309872,-0.003592360941967553,-0.003592360941967553
104,1.04,0.016695700311684075,0.04942638504663384,0.0969322386608647,0.024079837185904285,-0.0036640037422700287,-0.0036640037422700287
105,1.05,-0.10035868192505525,-0.05094331690801974,0.06804265373003547,0.019261106599327213,-0.0030494715458949328,-0.0030494715458949328
106,1.06,-0.13748565849269487,-0.1184802945605376,0.14417978499670409,0.01373395986670777,-0.005249204867932728,-0.005249204867932728
107,1.07,-0.044177032609533574,-0.05770501332458432,0.14466732997957682,0.015007957181846925,-0.0026666645789522546,-0.0026666645789522546
108,1.08,-0.00953407303584803,0.052609479877696694,-0.008517831640177609,0.022868192067963623,-0.0011680984571922806,-0.0011680984571922806
109,1.09,-0.05125899090124464,0.017140992593524917,-0.23199378807448728,0.03156928646322168,-0.0016417782882113155,-0.0016417782882113155
110,1.1,-0.0635257545651013,-0.10682618175494699,-0.3179332908191304,0.02839101812394639,-0.0006010798069005325,-0.0006010798069005325
111,1.11,0.017163416775842474,-0.22272697634756916,-0.3506522118081525,0.01766353490814179,0.0005382561073161874,0.0005382561073161874
112,1.12,0.054654346154385094,-0.12983083763507863,-0.29731277183483396,0.0088630502472474,0.003273950171175564,0.003273950171175564
113,1.13,-0.005382141533038242,-0.06981769728163109,-0.32606110356287943,0.011548033615165126,0.0010580715319508174,0.0010580715319508174
114,1.14,-0.021599261805425395,-0.16519559244749255,-0.474389628415786,0.019584082486229382,0.0012466527124644787,0.0012466527124644787
115,1.15,0.045323978807805115,-0.2565072464330278,-0.5197790998332795,0.025865476970928804,0.0037898978005365524,0.0037898978005365524
116,1.16,0.10084937717460421,-0.21939492674085612,-0.5755409864093651,0.023274329871459973,0.0013415985926769724,0.0013415985926769724
117,1.17,0.03927690082006907,0.00010964200601849827,-0.511379026599988,0.014420531772126344,0.0048499417099507796,0.0048499417099507796
118,1.18,-0.05581651080865045,0.0839957341180166,-0.5353349456540463,0.013566731078773858,0.0047420572957853286,0.0047420572957853286
119,1.19,0.04299388235943977,-0.09722264108130396,-0.557633414936345,0.01317957715725571,0.0022797375726380338,0.0022797375726380338
120,1.2,0.17286768206886113,-0.270823741341651,-0.5623088556758661,0.015415008303908559,0.002709158061267289,0.002709158061267289
121,1.21,0.11306366801134762,-0.14185962187436396,-0.5285396042679789,0.014761808449643359,0.0038549810887158016,0.0038549810887158016
122,1.22,-0.01776147801043769,0.08279575095668298,-0.43902361649496574,0.013977713716330584,0.005999749793239168,0.005999749793239168
123,1.23,-0.04388197486740211,0.11303513254489014,-0.4629572615348241,0.014723616727029109,0.007048953370290942,0.007048953370290942
124,1.24,0.03274427064939292,0.058398958456137066,-0.47511887985247,0.011503692108604772,0.003867130482172208,0.003867130482172208
125,1.25,0.01877978849574765,0.06563001791139234,-0.4042622076678544,0.008609352101085967,0.003592717958747878,0.003592717958747878
126,1.26,0.003711552891967236,0.05460359878181743,-0.32219855359577604,0.007183973288465831,0.004756981035538082,0.004756981035538082
127,1.27,0.049445108996333045,0.018232617274194327,-0.26562037991963117,0.004637368411776361,0.007228087187691759,0.007228087187691759
128,1.28,-0.016856548411625778,0.04891522486806884,-0.2068290300958615,0.00022632077767472183,0.005002642254338639,0.005002642254338639
129,1.29,-0.06358272777418464,0.05980173080002352,-0.22661611669376164,0.0007400665717849195,0.004601567692177464,0.004601567692177464
130,1.3,-0.018563019476409457,0.00973811027953235,-0.1167199277675755,-0.004375837003868007,0.003083438357079357,0.003083438357079357
131,1.31,0.054610961472504146,-0.09533001677567957,-0.0890768488193465,-0.009865310308434605,0.0013425612619570315,0.0013425612619570315
132,1.32,-0.027954648595935272,0.03618301678723099,0.004425004706965274,-0.01594463727366344,0.005466042226569774,0.005466042226569774
133,1.33,-0.11237465667999758,0.13161252218829095,0.04404893547437952,-0.014790381671603332,0.0035360265272344235,0.0035360265272344235
134,1.34,-0.06293467437786268,0.13539913280823684,0.04137514352982427,-0.01791154644612855,0.0030883581860418627,0.0030883581860418627
135,1.35,0.06165269852449491,0.13675638308695595,0.11672699666282885,-0.017723428791478927,0.004243879708910925,0.004243879708910925
136,1.36,0.046394170504074135,0.061982508641559686,0.18043323962566934,-0.02296432445109927,0.0016461259062790804,0.0016461259062790804
137,1.37,-0.10094299510583252,0.12508101377849223,0.2624194070985825,-0.02752016291521289,0.0016752272950372564,0.0016752272950372564
138,1.38,-0.10733166234470912,0.12822810116082473,0.24600259828202325,-0.028579299108055338,0.0047354923414415434,0.0047354923414415434
139,1.39,0.022458100389681296,0.11808257239719214,0.18953658190892644,-0.02497410700107034,0.0040130582124348535,0.0040130582124348535
140,1.4,0.04678392429449398,0.19834925133664583,0.2998600210503499,-0.023384473664936747,0.0024638563014752523,0.0024638563014752523
141,1.41,0.004385589153484536,0.33927173156666657,0.3802929158093935,-0.020106318370314204,0.0012358731167048586,0.0012358731167048586
142,1.42,0.06644045625513206,0.279087452889902,0.4037054061245667,-0.01810331214809974,0.0021034247856573946,0.0021034247856573946
143,1.43,0.06913597014428416,0.018790443246711697,0.32836393131211394,-0.02410432714258008,0.0024567193629769445,0.0024567193629769445
144,1.44,-0.007564013964359337,-0.07645807111372757,0.19927142247687457,-0.03130081863927312,0.005201710053704686,0.005201710053704686
145,1.45,-0.05607314730045174,-0.02346378674004014,0.2633380807269188,-0.03065466087080555,0.002628057381519109,0.002628057381519109
146,1.46,-0.020900457109084187,0.009879700859767623,0.333230942666137,-0.02393579289527243,0.0007635145679581683,0.0007635145679581683
147,1.47,0.0527455596406499,-0.02160061209260012,0.3807808333285664,-0.015883932294753326,0.002395935243669789,0.002395935243669789
148,1.48,-0.004605744530269757,-0.0440095084945767,0.3921414591203591,-0.01657809983233931,0.002114876037644173,0.002114876037644173
149,1.49,-0.0012379896999298954,-0.11595145901950242,0.23871960282227175,-0.025065232560018413,0.0010130646847486195,0.0010130646847486195
150,1.5,0.053502513452416064,-0.09917791899007516,0.28372475594154467,-0.0354152174956728,-0.0026845438482566647,-0.0026845438482566647
151,1.51,0.07951257420597173,-0.17621809638916583,0.2678739168399233,-0.03683251888390151,-0.002585340502787085,-0.002585340502787085
152,1.52,-0.0464190426680922,-0.2724843568670281,0.34245864450676666,-0.02878302692962407,-0.0017300648180331153,-0.0017300648180331153
153,1.53,-0.08886326844118607,-0.25621477074632404,0.27365883353316006,-0.02272505726165565,-0.004292390280582357,-0.004292390280582357
154,1.54,0.02077654809162103,-0.14116401462954864,0.08681837881902515,-0.020937782330976155,-0.0029128313121716213,-0.0029128313121716213
155,1.55,0.10289536133947039,-0.053869621017299696,0.07562496816908315,-0.020941804189137558,-0.002088695750906511,-0.002088695750906511
156,1.56,0.07236036412702597,-0.15487952245365108,0.09663691623186747,-0.02441037555537926,-0.002990618828037137,-0.002990618828037137
157,1.57,-0.049197469750319744,-0.24268763833653534,0.10314534687801942,-0.030393407462397364,-0.002313276974757448,-0.002313276974757448
158,1.58,-0.08523926694776078,-0.22508159574091377,0.008799426181265224,-0.02861928386611342,0.00013388701101047168,0.00013388701101047168
159,1.59,-0.09057741477177589,-0.09680625852026081,-0.19098838395306342,-0.01903793990975904,-0.0011458973835135012,-0.0011458973835135012
160,1.6,-0.04861332550918989,-0.03683012531052959,-0.2012486052246884,-0.010297291862217645,-0.0007521639090899048,-0.0007521639090899048
161,1.61,-0.002531899324348476,-0.06104122661195954,-0.1639559640132704,-0.008680790189350166,-0.001536860730033592,-0.001536860730033592
162,1.62,-0.010545762839299979,-0.1092131381493818,-0.10476119604308336,-0.015010718198348625,8.011638714423104e-05,8.011638714423104e-05
163,1.63,-0.05343784132948762,-0.0698243590460699,-0.10874246799101747,-0.022737574817409092,6.163248824336667e-05,6.163248824336667e-05
164,1.64,-0.017782110870339193,-0.06304303121083532,-0.2189616525992781,-0.02363598500062944,-0.0015343287964719454,-0.0015343287964719454
165,1.65,0.033153651028048195,-0.04174155045538103,-0.22193858259094038,-0.015748015498152388,-4.615122602545652e-06,-4.615122602545652e-06
166,1.66,-0.00015618084223343286,0.0828771242131802,-0.16622766616653523,-0.006341052619007668,0.0008761611767509018,0.0008761611767509018
167,1.67,-0.06922658354011307,0.23764971686767147,-0.10147335980403224,-0.001171318669427651,0.000453850247081209,0.000453850247081209
168,1.68,0.01863136943743727,0.23930705031603602,-0.19394520517005376,-0.005765753916395865,-0.0007868377555211463,-0.0007868377555211463
169,1.69,0.07564943693606929,0.09456729342688204,-0.2814003107262464,-0.015920787492295543,-0.0003257205293769997,-0.0003257205293769997
170,1.7,0.04049719732297191,0.04395846726198245,-0.3127765362096979,-0.0236275289004064,-0.0015389318291325635,-0.0015389318291325635
171,1.71,-0.031119938676205557,0.11011041605692547,-0.15273629357282753,-0.019878618909904087,-0.0013350778226648154,-0.0013350778226648154
172,1.72,0.007596106153395947,0.17618663211972768,-0.09707569687992351,-0.01191147850427788,-0.0019403695996503035,-0.0019403695996503035
173,1.73,0.09662886877258112,0.23006557083147033,-0.15695878738077318,-0.0037933083496760173,0.0009797445605250561,0.0009797445605250561
174,1.74,0.01745059229883468,0.17804171555456794,-0.2589883166296886,-0.004199894570850303,-1.3404249447387504e-05,-1.3404249447387504e-05
175,1.75,-0.05641295310169073,0.1660227364651178,-0.3218275344564191,-0.0170242966087176,0.0005847822267089629,0.0005847822267089629
176,1.76,0.020695886577229157,0.20327526943433813,-0.1534178684744667,-0.023141123212660705,-0.0017913654779778535,-0.0017913654779778535
177,1.77,0.030888778545755405,0.15493477574019718,-0.11178332619382494,-0.021709276038371958,-0.001017194845094703,-0.001017194845094703
178,1.78,-0.043468755186751175,0.07955193445010711,-0.04979519655009678,-0.013484719396794614,0.0010602998144687602,0.0010602998144687602
179,1.79,-0.060223718769484735,0.10963355401440175,-0.08519858482977558,-0.0041026377127381984,0.0014031160069626054,0.0014031160069626054
180,1.8,0.02154279635316783,0.15654532292461756,-0.1185356329115173,-0.00363118649517889,0.004113332035639193,0.004113332035639193
181,1.81,0.0839488263626364,0.11956832393274809,0.016646367008076916,-0.011062035822689529,0.0032133808343709066,0.0032133808343709066
182,1.82,0.035446242938342476,0.00627631143548768,0.08088525343939379,-0.01806299155930084,0.001043740863988831,0.001043740863988831
183,1.83,0.020814391288773666,-0.08407221967188014,0.04323489610702819,-0.017697537277637933,0.003283269196897545,0.003283269196897545
184,1.84,0.023422921423642926,-0.10175461289327563,-0.06185718547867895,-0.012400587816608338,0.006322572002759057,0.006322572002759057
185,1.85,0.0008473964302634432,-0.054472028682048895,-0.07814444990297914,-0.003210512218349564,0.003536566922150012,0.003536566922150012
186,1.86,-0.09072497804204932,0.056887590857462686,0.09305462085980372,0.003772553050892451,0.0025406508495439076,0.0025406508495439076
187,1.87,-0.062020333872400954,0.08913568313569661,0.19594415872706467,-0.0004063631215773713,0.004811814519404533,0.004811814519404533
188,1.88,0.007518462051833,0.034160937485177026,0.14662389072556928,-0.009718050855663744,0.005733885032373785,0.005733885032373785
189,1.89,0.06851585543029401,-0.12196550939840954,0.03626204199830717,-0.015765493783042792,0.007380681548770947,0.007380681548770947
190,1.9,0.004803940958993884,-0.32550264691472985,0.012067385968889455,-0.01898590655829296,0.007270308557261302,0.007270308557261302
191,1.91,-0.04128090228001981,-0.33632735929067553,0.12047609426990447,-0.015239613157117162,0.006870069510852585,0.006870069510852585
192,1.92,-0.018065419939669137,-0.20992879227746516,0.15600475715584514,-0.008309259492056693,0.006144189913943774,0.006144189913943774
193,1.93,-0.005689628981233978,-0.15090161054730034,0.15650663571327977,-0.007539963686073666,0.0059040798876704255,0.0059040798876704255
194,1.94,-0.016181291956697597,-0.22159865043124144,0.0758943678913205,-0.013557453373611021,0.006069125098814023,0.006069125098814023
195,1.95,-0.07072330792149446,-0.2607871744525885,0.083179062541644,-0.022519550447340976,0.005070586343581807,0.005070586343581807
196,1.96,0.01462766886368483,-0.19815957662267786,0.1557510043704958,-0.027008828818351385,0.005991758208518389,0.005991758208518389
197,1.97,0.07955957232753427,-0.07608925881462905,0.24488876057203177,-0.020543672104459496,0.005361724052053949,0.005361724052053949
198,1.98,0.057231146192993465,-0.09867868712147622,0.18706242297117637,-0.012229806122321394,0.006215854423293806,0.006215854423293806
199,1.99,-0.04581937096477636,-0.0705340781380548,0.1610716036652035,-0.01091790521072265,0.005980154204155765,0.005980154204155765
200,2.0,-0.027826802086490104,0.046244162177391884,0.055138066154297685,-0.01503643959518295,0.006798438812368601,0.006798438812368601
201,2.01,0.1463574390169488,0.019881239476666163,0.07857817668603351,-0.021324701098100203,0.007275363847009514,0.007275363847009514
202,2.02,0.06583105466439237,-0.11665903110140863,0.09097632674253842,-0.024858006024149268,0.006630339143089146,0.006630339143089146
203,2.03,-0.16143713782157984,-0.09689622527611588,0.03724146731554689,-0.02274840545279108,0.009208230583656607,0.009208230583656607
204,2.04,-0.1647495301158151,0.18749523726679668,-0.011173830442782154,-0.01300857151332109,0.008208034860414055,0.008208034860414055
205,2.05,0.06622757209711172,0.30473478668110243,-0.13059748976749502,-0.0040463139592830455,0.007081722754348895,0.007081722754348895
206,2.06,0.11413092677969662,0.14960227331730033,-0.028719963162883166,-0.007306103088149942,0.006837592235219098,0.006837592235219098
207,2.07,-0.06667304338322874,-0.07997442907838845,0.06901525772041586,-0.019749534285100345,0.006700448055569742,0.006700448055569742
208,2.08,-0.12006069953722578,-0.15260146461942026,0.052773412713715565,-0.034000112118696364,0.007798154083690353,0.007798154083690353
209,2.09,0.05207144505733188,0.03509598231637386,-0.09812665190271058,-0.034611670322445366,0.0068902345490579435,0.0068902345490579435
210,2.1,0.06728800092414741,0.11442084168339368,-0.15128145672163007,-0.02337778042721464,0.005095688140859911,0.005095688140859911
211,2.11,-0.044252721681830094,0.007169671606903794,-0.04560475525665016,-0.013729486517207649,0.0041637415825715625,0.0041637415825715625
212,2.12,-0.024130694172536285,-0.08936845430511321,0.026304679121728708,-0.019585806843243486,0.005396458456059794,0.005396458456059794
213,2.13,0.08767890231478595,0.032088144053746576,0.0054101435435123454,-0.03711810356218037,0.0036685427189722345,0.0036685427189722345
214,2.14,0.042717491598814605,0.2132045141974133,-0.020399703005589905,-0.042635050669472006,0.0017722122775838828,0.0017722122775838828
215,2.15,-0.06966827322652602,0.18000800778212445,-0.03198045470454129,-0.03772009534542094,0.0018720643037297626,0.0018720643037297626
216,2.16,0.02794400909156665,-0.026771761803914107,0.02969487288532968,-0.029058611572377768,0.0012000723149021108,0.0012000723149021108
217,2.17,0.10850785208828914,0.030013642976866664,0.047896223406787265,-0.022961693545938404,-0.0005836648432045577,-0.0005836648432045577
218,2.18,0.04883123834296915,0.3563465063205626,0.00047013752452115115,-0.02193161696247083,0.0030039735228388213,0.0030039735228388213
219,2.19,-0.05073821490776066,0.44358446804881096,-0.06166966610847052,-0.027024406119621883,0.0007734244629750532,0.0007734244629750532
220,2.2,-0.02667208340332341,0.1483954697126911,-0.14437780061379377,-0.03397576347045308,-9.969248975185364e-05,-9.969248975185364e-05
221,2.21,0.02830094824198212,-0.14128616141303005,-0.11705661935737693,-0.036640850072322026,0.0005155321862551002,0.0005155321862551002
222,2.22,-0.06806761082310722,-0.04689030748591319,0.0028792037234549595,-0.032833556725813194,-0.0014502965188122312,-0.0014502965188122312
223,2.23,-0.059384350982702686,0.20591668997027904,-0.05289272929096062,-0.023866346783645482,-0.00035061286481613205,-0.00035061286481613205
224,2.24,0.006761883193483975,0.37499266274678356,-0.02183515982912161,-0.01159133354013502,-0.0035493391317410025,-0.0035493391317410025
225,2.25,0.005976693069409482,0.18188315046845538,-0.10600700798568047,-0.00787587248692532,-0.003533082999918721,-0.003533082999918721
226,2.26,0.004941888433549803,-0.08120985302987754,-0.021354251141678375,-0.019257772921900156,-0.0052980987617185366,-0.0052980987617185366
227,2.27,0.05071349941072573,-0.11300617162782188,-0.07680123526203998,-0.032517874987859456,-0.0043576492498333145,-0.0043576492498333145
228,2.28,0.035728707695298144,-0.047922451527383766,-0.09517547702850132,-0.029957789947645426,-0.003651961454816384,-0.003651961454816384
229,2.29,-0.10148760133040408,0.034826720289669794,-0.04607822545394268,-0.014009693084536895,-0.0022476095463619407,-0.0022476095463619407
230,2.3,-0.045638875993167585,-0.025369517678841144,-0.06394267167313017,0.0016199234090748318,-0.005807360494624287,-0.005807360494624287
231,2.31,0.12236854669512487,-0.14039378978321904,-0.004057384020026925,0.002391865447197813,-0.003451185919554177,-0.003451185919554177
232,2.32,0.10159703640264475,-0.1941101587305156,-0.018312351209188914,-0.0092650151194389,-0.005866188947686098,-0.005866188947686098
233,2.33,-0.09460926055042901,-0.13996228113561454,0.014728893770867627,-0.02223882062346192,-0.007148474028938824,-0.007148474028938824
234,2.34,-0.11270477298314645,-0.09669393743165061,0.05854360380896187,-0.02071925800464013,-0.006709120491400646,-0.006709120491400646
235,2.35,0.03826244223222377,-0.22652629365006116,-0.044770957184000156,-0.010419012688472562,-0.009338847213953786,-0.009338847213953786
236,2.36,0.09828500487929313,-0.36033461958945184,-0.0024918180444259558,0.001983397805601032,-0.007804666887084055,-0.007804666887084055
237,2.37,-0.024953825118710214,-0.2828547652812658,-0.0012680801023118356,0.007338588549649002,-0.008112221670087726,-0.008112221670087726
238,2.38,-0.112505959431341,-0.0226342408132114,0.021484675550304717,-0.0016119026747980075,-0.0061869516639842794,-0.0061869516639842794
239,2.39,-0.0012386637871172387,0.07828737162081029,-0.0401073382274664,-0.009191282008034936,-0.005969325325618532,-0.005969325325618532
240,2.4,0.07579688974921933,-0.12493996495063937,-0.052029181880518624,-0.009285197731024934,-0.004679429464186325,-0.004679429464186325
241,2.41,-0.0565935300937893,-0.3551559490384214,0.032935415031261836,-0.003347349928766334,-0.0027888093391314345,-0.0027888093391314345
242,2.42,-0.11671227710522651,-0.2929259333644978,0.11446234588679803,0.003147113291443233,-0.003446784170453657,-0.003446784170453657
243,2.43,0.052065088564222366,0.0017157091454778756,0.030909417075589193,0.01009896291388762,-0.004834879292524507,-0.004834879292524507
244,2.44,0.1348763195572776,0.202222959595246,-0.025919728080975667,0.014156385412229315,-0.003833545868661676,-0.003833545868661676
245,2.45,-0.02855457717264692,0.08531943797986748,0.018230019266511445,0.010149764006692949,-0.00305543030308476,-0.00305543030308476
246,2.46,-0.13022844227266286,-0.17235713721604706,0.09406397371163763,0.0019135983017813032,-0.0014786037790322432,-0.0014786037790322432
247,2.47,0.027521817715279614,-0.2978455878238403,0.0503601761050409,-0.006278672426485979,0.00036159874193763137,0.00036159874193763137
248,2.48,0.0475588341645945,-0.03929082197995992,-0.023876209639467662,-0.00470631790911773,0.0012492625134883492,0.0012492625134883492
249,2.49,-0.07938415556210111,0.268736921150453,-0.027887998194292107,0.00561660795112506,-0.00027901133638544084,-0.00027901133638544084
250,2.5,-0.09489631322255551,0.23743174034463196,0.06663565609161629,0.01702191031803637,-0.0004842710034633376,-0.0004842710034633376
251,2.51,0.09643800762657292,0.09491675181045356,0.10296277036413648,0.012963516988461602,0.0029008820266257732,0.0029008820266257732
252,2.52,0.165519898983566,0.013783600641016247,0.07644178747168898,0.0010922358674834622,0.0008555007310771938,0.0008555007310771938
253,2.53,-0.02559393445366806,0.15433234782584404,0.030944125054548292,-0.009621788220009257,0.0024385437649751783,0.0024385437649751783
254,2.54,-0.1346226568564203,0.3706051231284661,0.003919940402892667,-0.006482692110730349,0.0034120870750995328,0.0034120870750995328
255,2.55,0.05062594279640362,0.33568463052148667,0.05916879504911048,0.008925658180516553,0.0028232200902721287,0.0028232200902721287
256,2.56,0.16423121043715752,0.0760164475233655,0.15589718968899888,0.015281165030765688,0.002949156396979916,0.002949156396979916
257,2.57,0.035718648552038226,0.03441583922020637,0.11112050850616212,0.004686675101399014,0.005494962395515519,0.005494962395515519
258,2.58,-0.038912642265749094,0.2963779788831266,0.02186125494641246,-0.010068526254111851,0.0042591623932377535,0.0042591623932377535
259,2.59,0.03905504145893088,0.402549548220164,-0.13397435275157826,-0.016498972704326806,0.0037553258717185354,0.0037553258717185354
260,2.6,0.07210824136302967,0.07388371567132859,-0.12591559466707308,-0.01057723607696924,0.005607133612088006,0.005607133612088006
261,2.61,-0.043865224026302184,-0.29253334548079424,0.032696995303605675,-0.005542986410713729,0.00438252445478042,0.00438252445478042
262,2.62,-0.07960960105996683,-0.13345998007843954,0.05203691193031103,-0.004157441667079475,0.004685238521566829,0.004685238521566829
263,2.63,-0.009725976963602452,0.29407678943520676,-0.023013038135380186,-0.0043667335860895695,0.004817042341814347,0.004817042341814347
264,2.64,-0.024141368884269564,0.3181329620386194,-0.0685001610647267,-0.0020815306798581826,0.004916679055420242,0.004916679055420242
265,2.65,-0.07307901870171847,-0.05791545107717813,-0.010933807935443109,-0.003680269072447735,0.004529936478536954,0.004529936478536954
266,2.66,0.004285816813155045,-0.2896404618842974,0.0536889522560433,-0.009940534599559724,0.0035513252376958796,0.0035513252376958796
267,2.67,0.01633352084775664,-0.24138869630557536,0.057730063620790265,-0.01445842417126374,0.0027547068518409628,0.0027547068518409628
268,2.68,-0.1178611672933574,-0.0423971470380472,-0.035067366665648185,-0.010967424849658477,0.0028838521825501093,0.0028838521825501093
269,2.69,-0.13999784396180126,0.0893894598527345,-0.038525480544650055,0.0030441249217472346,0.0007768002269238941,0.0007768002269238941
270,2.7,0.111875074814398,-0.08937232424833953,-0.1076364921201255,0.0057699954956380115,0.0009774508334026806,0.0009774508334026806
271,2.71,0.17460162525583856,-0.288142083358542,-0.05702131712663873,-0.003599987225343756,0.0007064228583231394,0.0007064228583231394
272,2.72,-0.06215960484849202,-0.30087005270234496,-0.005637613169222948,-0.017671388393377153,0.002856118584025059,0.002856118584025059
273,2.73,-0.1849131368389199,-0.16341280193573887,-0.030049252257972957,-0.023875346363231145,0.003977874289295445,0.003977874289295445
274,2.74,0.05879071159793453,-0.15460042269083513,-0.1290709717051169,-0.015231314651650337,0.0021764153671749863,0.0021764153671749863
275,2.75,0.15401321531674633,-0.20909353695911884,-0.15987269651204675,-0.004432715879039107,0.0019592942323169212,0.0019592942323169212
276,2.76,-0.018054506769963608,-0.12349868387051494,-0.0011327055515985077,-0.0014330197668796904,0.002722121843091713,0.002722121843091713
277,2.77,-0.10381417522245054,0.00362617971374464,0.048314481692400775,-0.008437205213905917,0.004025473847368674,0.004025473847368674
278,2.78,0.0752496595445398,0.07238480791065431,-0.028067269955966503,-0.018712613322550663,0.00424097209436549,0.00424097209436549
279,2.79,0.08666987736507505,-0.014326407137495757,-0.06684763938454219,-0.026453466629235887,0.0011114720516013556,0.0011114720516013556
280,2.8,-0.032147433462895426,-0.227082912915539,-0.06305107499708966,-0.026895426482346663,0.0014706875638693935,0.0014706875638693935
281,2.81,-0.04312898149288319,-0.27237152317556435,0.056078015908354734,-0.02336323537373348,0.00011007995387266652,0.00011007995387266652
282,2.82,0.07332882864282932,-0.03896665618040057,0.06148881432888233,-0.02095544738890688,-0.0008541386401303043,-0.0008541386401303043
283,2.83,0.06715240475701179,0.15105714620046334,0.05297823804975242,-0.01649950854673015,0.0033194854334921533,0.0033194854334921533
284,2.84,-0.0028253644862767206,0.1621245093624096,0.0046049916271942645,-0.023521935072149003,0.0015066827864018409,0.0015066827864018409
285,2.85,0.04421829622087157,0.004005558741279308,-0.056164738863767494,-0.03295613300831515,0.0017077355678623946,0.0017077355678623946
286,2.86,0.11187943840115898,-0.09983066714842485,-0.03298116478983118,-0.042449958185365566,0.002508155827884701,0.002508155827884701
287,2.87,0.04126379096587899,-0.04873146306790531,0.015962474397863774,-0.0421445301021297,0.002920397996853533,0.002920397996853533
288,2.88,-0.040058655814927596,0.10902467120657201,-0.0008197526444436304,-0.037627525146782734,0.004144493562152773,0.004144493562152773
289,2.89,-0.003300283164150944,0.18899154382468508,-0.0041499443391940505,-0.030987296762238718,0.002201618244960353,0.002201618244960353
290,2.9,0.08145719040043836,0.09865239437992686,-0.0010110865445882924,-0.031924622146335964,-0.000449240447093429,-0.000449240447093429
291,2.91,-0.030786978038464412,0.14137022802919985,0.07790433278609515,-0.03958960256488837,0.0011292782113835487,0.0011292782113835487
292,2.92,-0.12741780864280217,0.28833062128721554,0.1713645409287286,-0.04533872057606146,0.0008407093601099367,0.0008407093601099367
293,2.93,-0.019580852666254648,0.31634779259352525,0.053251495445297024,-0.04250071281179015,0.0005278497248874342,0.0005278497248874342
294,2.94,0.021439934769490424,0.2156402367758986,0.013873338265286111,-0.033539605059447045,0.0020672192096144568,0.0020672192096144568
295,2.95,-0.10880585710450283,0.15007925626288965,0.06950708351898915,-0.02479331641361493,-0.0011490753758355145,-0.0011490753758355145
296,2.96,-0.11559148210009339,0.16144618753138779,0.127402934899419,-0.023496698228297717,-0.0003109048221413189,-0.0003109048221413189
297,2.97,0.03738861796425198,0.20298433161786175,0.14866954605752078,-0.030182559256127218,-0.002009566980002696,-0.002009566980002696
298,2.98,0.07544978523214145,0.19369427469738087,0.06617272821133621,-0.030620167575155694,-0.0005175036907776187,-0.0005175036907776187
299,2.99,-0.057109959916426034,0.08189031098827577,-0.010247116929550673,-0.023767533963934655,-0.0024863592739776444,-0.0024863592739776444
300,3.0,-0.12325858162732979,0.03443805256138355,-0.005092233585111777,-0.018405095313769243,-0.0032494842539456024,-0.0032494842539456024
301,3.01,-0.019425706485720055,0.06864999766493965,0.02615020961190725,-0.010249021188363476,-0.002910706793606275,-0.002910706793606275
302,3.02,0.07629812160000073,0.0950983417842426,0.016826787622033313,-0.007822551124564316,-0.0034305064828913747,-0.0034305064828913747
303,3.03,-0.02875957701493581,-0.08264805393648085,0.019321755479962267,-0.007062084960455626,-0.0049225589621575494,-0.0049225589621575494
304,3.04,-0.106709229381756,-0.18712441720430673,-0.05500242695913269,-0.01027761306312903,-0.0061416702135469615,-0.0061416702135469615
305,3.05,-0.028272033721125234,-0.1380618466183244,-0.06199078339195137,-0.01001315650172825,-0.006525395978688111,-0.006525395978688111
306,3.06,0.03578955417047308,-0.1300989868359833,-0.0700841458065285,-0.0006552461789339596,-0.009129169799150176,-0.009129169799150176
307,3.07,-0.0034817458239559604,-0.2236972531621056,0.01112895584836801,0.009962956542562405,-0.009172414996019104,-0.009172414996019104
308,3.08,-0.07811360525230657,-0.3029448975916752,-0.05930709495591809,0.013631260761172664,-0.00982933215181568,-0.00982933215181568
309,3.09,-0.07735886462267506,-0.33071140196295573,-0.09300706424834465,0.00934322225262391,-0.009411658164177824,-0.009411658164177824
310,3.1,-0.004904384269953252,-0.3226445053435857,-0.06714278993750811,0.007420655283064841,-0.010156598078667605,-0.010156598078667605
311,3.11,0.08039672626704851,-0.15639534866409907,-0.09971606207659528,0.012938530704460438,-0.011025113593116549,-0.011025113593116549
312,3.12,-0.010761392250186054,-0.0450907209989969,0.0035263612998318455,0.02574221910373642,-0.007242091420043317,-0.007242091420043317
313,3.13,-0.0883947477433728,-0.09763424576117108,-0.1288632044858261,0.03548605659216729,-0.006109597791254314,-0.006109597791254314
314,3.14,-0.08654607885784374,-0.1339210923955473,-0.16382762315480542,0.03485827398192006,-0.006444920849727829,-0.006444920849727829
315,3.15,0.02062024865514188,-0.02587372467083468,-0.20534670487881146,0.025647188010357768,-0.005364203186527782,-0.005364203186527782
316,3.16,0.11003268026410745,-0.020639894391967735,-0.0770324797942313,0.02076993895148141,-0.007134826213815131,-0.007134826213815131
317,3.17,0.1470775302620451,-0.27185357844742186,0.02587347258776808,0.020301106298961005,-0.007420530485789852,-0.007420530485789852
318,3.18,0.09616943152966873,-0.4369720262470566,0.040039267378657525,0.023915271880695192,-0.006581835236360314,-0.006581835236360314
319,3.19,0.06982456719850874,-0.31701953500860164,-0.06513381004750443,0.02684970353961727,-0.005364235641138141,-0.005364235641138141
320,3.2,0.1394655222164161,0.023500486276550436,-0.10134012070716909,0.029439976061410845,-0.0043285617581462574,-0.0043285617581462574
321,3.21,0.08781809911315051,0.2971121983552416,0.047097694776515764,0.031915781522954656,-0.007089162963977655,-0.007089162963977655
322,3.22,0.06653039717398931,0.2508946740070124,0.160712354855608,0.03281057887392819,-0.00495192730493989,-0.00495192730493989
323,3.23,0.12832897660526305,0.05907651291439353,0.20754501957416974,0.030666789401416636,-0.004320307191402006,-0.004320307191402006
324,3.24,0.1313796127372483,0.12266216019019427,0.049431549020684085,0.024018113242250443,-0.003346005095197337,-0.003346005095197337
325,3.25,0.019804427318962044,0.4243887549465755,-0.010854659743940884,0.025598087701045217,-0.004017455522201673,-0.004017455522201673
326,3.26,-0.025296461703483472,0.5539043819396386,0.02058625342126795,0.033499770602818946,-0.007823936298574717,-0.007823936298574717
327,3.27,0.012769351757390284,0.37376412546084714,0.09845564942763402,0.03838380606363985,-0.0063046685526350595,-0.0063046685526350595
328,3.28,0.05922988472472883,0.10693550357026027,0.13190194993701077,0.028510895716893882,-0.0028161784934266987,-0.0028161784934266987
329,3.29,0.0172721376861249,0.08211019127450532,0.08905260212654417,0.013079197460136952,-0.00472785203054485,-0.00472785203054485
330,3.3,-0.06156268131975497,0.23900085053449516,0.024818227944395477,0.0022375359684789604,-0.0032485660311194113,-0.0032485660311194113
331,3.31,-0.14146774328292266,0.3229782140586237,0.039861778108403884,0.007486710023935106,-0.002299911622089813,-0.002299911622089813
332,3.32,-0.09783018739281868,0.09602992886357138,0.07791775109267934,0.017732551467723,-0.0007301430068075451,-0.0007301430068075451
333,3.33,0.00013471459479881542,-0.17474119218404596,-0.005028716776145352,0.016686501047886267,0.0007663685349115553,0.0007663685349115553
334,3.34,-0.08992292978370131,-0.06275150453835235,-0.03962472231716049,-0.00019930433698934181,-0.0008954953297714186,-0.0008954953297714186
335,3.35,-0.2187958541271577,0.19428083484041053,-0.05617920991877927,-0.010875682779154202,-0.0016787807680546394,-0.0016787807680546394
336,3.36,-0.17388048708954926,0.2296186325624401,0.025804595387195133,-0.013379212566137224,0.0002272557698956648,0.0002272557698956648
337,3.37,-0.06504124434111638,-0.008222857109712392,0.05295385681730675,-0.004892351709488726,0.0012778033023322774,0.0012778033023322774
338,3.38,-0.02345389177459,-0.19182686017622053,0.022324418400313187,-0.0044356126767681105,0.0015816787456967064,0.0015816787456967064
339,3.39,-0.012138683274541134,-0.1324457912472837,-0.03265772157709352,-0.012463827244217112,0.0017159865079633815,0.0017159865079633815
340,3.4,-0.05439103526789097,0.05513250860088813,-0.04958903381640252,-0.02152950331331269,0.004207691282930042,0.004207691282930042
341,3.41,-0.11454180326095846,0.07231144841187459,0.01819509952139279,-0.023911743325191626,0.0019102279958724687,0.0019102279958724687
342,3.42,-0.08023054245360614,-0.18427091436734744,0.03241725684371185,-0.023873988821208083,0.00160679060177521,0.00160679060177521
343,3.43,0.04957522974628034,-0.33539970538967073,-0.012188072531547984,-0.024267107956110482,0.0028264824159047373,0.0028264824159047373
344,3.44,0.09364090183797884,-0.20755458015634007,-0.12275914560640322,-0.026280010633030516,0.005387379874210525,0.005387379874210525
345,3.45,0.00787621231481583,-0.10273915174218229,-0.0619872288872831,-0.0264046438736692,0.004411563413587831,0.004411563413587831
346,3.46,0.010037426786866987,-0.11243606286910232,0.010801831640469502,-0.02796608312978427,0.004274414569550174,0.004274414569550174
347,3.47,0.06078056393001008,-0.1334377033650037,0.08660924719347013,-0.029817808631038188,-0.00015418290223567606,-0.00015418290223567606
348,3.48,0.10143031784222356,-0.18019045412256937,-0.04007491356374658,-0.03212048047367039,0.0037394065664704632,0.0037394065664704632
349,3.49,0.05896283308444184,-0.20693290706191486,-0.12216405557375906,-0.03486324062816787,0.0027208157502114296,0.0027208157502114296
350,3.5,0.0030700195141289896,-0.1955187211049917,-0.16544042971512826,-0.033744110481854016,0.0037589216141872455,0.0037589216141872455
351,3.51,0.02217937822193243,-0.15009138741782327,-0.02968368137784952,-0.03236427460653645,0.0047676550584359115,0.0047676550584359115
352,3.52,0.07373048061050487,-0.12002566439937096,0.06971590103476158,-0.02825981416400562,0.001524953859304522,0.001524953859304522
353,3.53,0.09892071103541797,-0.12795225292527002,0.0038153325556312782,-0.02795624613925257,0.002362345109436514,0.002362345109436514
354,3.54,0.00957743931730659,-0.12994095640827572,-0.026590297784366584,-0.030308646752149986,0.003970158916112304,0.003970158916112304
355,3.55,-0.05723898382720542,-0.07208398647013974,-0.08735598229525379,-0.030326246982260968,0.0018066829525789504,0.0018066829525789504
356,3.56,-0.01158342750083692,0.09873335097165854,0.023641299223041836,-0.02641186805017731,0.002709860396318908,0.002709860396318908
357,3.57,0.05888821439074362,0.14624819063579603,0.07454919007747901,-0.01887111195169604,0.0016698479411820881,0.0016698479411820881
358,3.58,0.07933010906933241,0.05925742129669233,-0.0057808858798334625,-0.012368029472758406,0.0043513375233053715,0.0043513375233053715
359,3.59,-0.04881876379828777,-0.03846089724181592,-0.009095585786591125,-0.011912846742514879,0.004336214418188936,0.004336214418188936
360,3.6,-0.13717522845164948,-0.10249582310286018,-0.01681068474690432,-0.016904014921235826,0.003903046004093579,0.003903046004093579
361,3.61,-0.0316425036789751,-0.03502601088287856,0.11452669646769137,-0.015686129449132582,0.0011945177863621082,0.0011945177863621082
362,3.62,0.0921424846856134,0.0365050678736608,0.15412743993367717,-0.006000407905675015,0.0019691207691321325,0.0019691207691321325
363,3.63,0.08448239785846234,0.07012327210856088,0.09370377719759901,0.005566897869590934,0.0032287560667069123,0.0032287560667069123
364,3.64,0.0067757506668835454,0.0024991732883724582,0.023914203315059786,0.007373558535995541,0.00222045521827454,0.00222045521827454
365,3.65,-0.035593829210053385,0.016889232087731576,-0.04075166873554281,0.003792794149547215,0.0012762057870752384,0.0012762057870752384
366,3.66,0.03163451907564539,0.0761656120379684,-0.011855235712971014,0.0009262323242509561,-0.0016266511685622991,-0.0016266511685622991
367,3.67,0.018112752470662453,0.13675843094903345,0.062009750819618,0.00026309339971402587,-0.0010668371816835516,-0.0010668371816835516
368,3.68,-0.0349425090464512,0.03468912778846121,0.04659184730901573,0.005051997890491361,-0.0007714610424746464,-0.0007714610424746464
369,3.69,-0.005769410586255281,-0.08669049956930133,0.06515139094624334,0.008563277615971077,-0.0016049468783380435,-0.0016049468783380435
370,3.7,0.1715533858657721,-0.0777522346207715,-0.049775176101088385,0.007979612225389987,-0.0016966768029536073,-0.0016966768029536073
371,3.71,0.09896973662764999,0.12960555821203798,0.021943070036770145,0.004056363628949243,-0.0031381975571194392,-0.0031381975571194392
372,3.72,-0.1379823795139567,0.3264434397511309,-0.013168690722633616,0.005017458317782384,-0.003617409692332835,-0.003617409692332835
373,3.73,-0.13537326225136675,0.2980737908170879,-0.05867115425642214,0.009811789120022264,-0.003187439556841776,-0.003187439556841776
374,3.74,0.015059038524317156,0.22925062968338478,-0.11863279082316752,0.013546762790886149,-0.006447091381230228,-0.006447091381230228
375,3.75,0.04135627662260266,0.1368361752581228,-0.1497739033857873,0.010192122301180993,-0.006010312091301799,-0.006010312091301799
376,3.76,-0.03782589646729816,0.11369624363939052,0.010799200790227115,0.0043058083953774135,-0.007142795598910741,-0.007142795598910741
377,3.77,-0.0055294193982785185,0.20252339267976718,0.08574094058408971,-0.0002443763612312872,-0.0090751695186169,-0.0090751695186169
378,3.78,0.05859088004370022,0.3755551036737366,-0.00040427406312301684,0.002213791584312115,-0.006094366003207719,-0.006094366003207719
379,3.79,0.002950532242983951,0.3623608835417341,-0.07614037773836921,0.009581894815460214,-0.006649048947909741,-0.006649048947909741
380,3.8,-0.0654915191862756,0.12644467117547442,-0.15481195388503163,0.009146109834166706,-0.008575134489059494,-0.008575134489059494
381,3.81,-0.03732074906678984,-0.033231514071677015,-0.10335591201671794,0.002845366163103674,-0.009587859374351585,-0.009587859374351585
382,3.82,0.03337371485877457,0.09518015118564727,-0.025959141402870388,-0.008162791423920717,-0.008677034990944374,-0.008677034990944374
383,3.83,-0.010392419389153952,0.32700770690010983,0.004469460883817014,-0.007040608425505851,-0.012147057535518832,-0.012147057535518832
384,3.84,-0.09754927029124605,0.18289042642628267,0.022715124142624405,0.0043346174488896735,-0.009643535535944388,-0.009643535535944388
385,3.85,-0.06828574444247826,-0.22033863552551483,0.04095583888817067,0.006302838629463464,-0.008738032096526623,-0.008738032096526623
386,3.86,0.049890494813179476,-0.36513015311277064,0.02519669020141216,-0.002955586276321218,-0.010257528021527157,-0.010257528021527157
387,3.87,0.0423731599297687,-0.04720279320632227,0.0105200118487816,-0.014160361467753759,-0.009828106716923857,-0.009828106716923857
388,3.88,-0.11271462053230095,0.2016507630965946,0.00857374658275867,-0.014537514359194797,-0.011016697627463386,-0.011016697627463386
389,3.89,-0.12480913901523893,0.05404387198896077,-0.08008219510485337,-0.006498247092160579,-0.009386934539359038,-0.009386934539359038
390,3.9,-0.022226977379855656,-0.20842671331513257,-0.0790402845256197,-0.000504343552876358,-0.009805280663030793,-0.009805280663030793
391,3.91,-0.008743941844608073,-0.1947722217731793,-0.04413414800594173,-0.008146222662874594,-0.008891770043561191,-0.008891770043561191
392,3.92,-0.10745749464504832,0.01183277809966779,0.027721526907295416,-0.01841893576950894,-0.01081335942124313,-0.01081335942124313
393,3.93,-0.13351732281491363,0.05993929130753245,0.04766116982789008,-0.01963490346661189,-0.010407793658216874,-0.010407793658216874
394,3.94,-0.001569320560906362,-0.2450607052495515,0.04916172897810121,-0.016304188178072183,-0.009197158096653064,-0.009197158096653064
395,3.95,0.16022707343217146,-0.576595083774533,0.07135927478837356,-0.016949312977085795,-0.011168807889366812,-0.011168807889366812
396,3.96,0.13978073172874783,-0.5052994202799302,0.14030675198841985,-0.018624374368494682,-0.011918678712785142,-0.011918678712785142
397,3.97,0.015472216787566724,-0.267145829222561,0.15398221745572682,-0.022860909872176097,-0.012145610523410644,-0.012145610523410644
398,3.98,-0.07206444275887432,-0.1689376438409933,0.09927562318628756,-0.015673861116619274,-0.008967320354672705,-0.008967320354672705
399,3.99,0.02103366899015905,-0.3387292977544823,-0.01337801890141202,-0.01224324918262935,-0.008993877914681259,-0.008993877914681259
400,4.0,0.17607529412379558,-0.5296545987003818,-0.004184797447900762,-0.016579611126643492,-0.009325197089190428,-0.009325197089190428
401,4.01,0.15813659879685915,-0.4695036509038132,0.06408939333022098,-0.02308073418105333,-0.009325642167409932,-0.009325642167409932
402,4.02,0.02423020572991249,-0.24622949021653778,0.1478922158282475,-0.02423305467751135,-0.00763152090935294,-0.00763152090935294
403,4.03,0.01906695714490915,-0.0780056509667768,0.05368907916362962,-0.017484459794591255,-0.008277289984468448,-0.008277289984468448
404,4.04,0.09461329431779947,-0.15648194354645528,-0.11902973666159855,-0.009939579952683944,-0.004909095027781777,-0.004909095027781777
405,4.05,0.08334873729753225,-0.2450827679226054,-0.14770396040545586,-0.007785162515423213,-0.005981066775582887,-0.005981066775582887
406,4.06,-0.01674046859881923,-0.23169661829683952,-0.0363348736253296,-0.013220103135064564,-0.005361816753009214,-0.005361816753009214
407,4.07,-0.08653840974070912,0.03528278303926215,0.08223556615073767,-0.017308119175525397,-0.0045131556311965295,-0.0045131556311965295
408,4.08,-0.03084307406716181,0.3108235874377169,0.14419842196750998,-0.011930073679861488,-0.004815058310176444,-0.004815058310176444
409,4.09,0.06748781384519252,0.31013386268129983,0.0933314461133565,-0.0016079068368305153,-0.005064463805711527,-0.005064463805711527
410,4.1,0.05054343425467707,0.1366743743909227,0.0705537148295032,0.005206090783340251,-0.007055204039754927,-0.007055204039754927
411,4.11,-0.0132762128913239,0.09277143731835195,0.09455166328584698,-0.0008607309494345619,-0.0062904678097764856,-0.0062904678097764856
412,4.12,-0.025895658580450454,0.24567735045287462,0.0384357810499108,-0.007268310533631459,-0.004159500939378964,-0.004159500939378964
413,4.13,-0.0002783352644713209,0.41825454966706344,-0.031036193971259653,-0.004592312822064906,-0.0010788266226171538,-0.0010788266226171538
414,4.14,-0.0070097410061012375,0.3828481672421058,-0.12772411412413986,0.0057778868972470825,0.00048635049635952334,0.00048635049635952334
415,4.15,-0.06328365627931777,0.10161279822914654,-0.12602943981903453,0.013163723332973885,0.0004420096090838215,0.0004420096090838215
416,4.16,-0.06600981353445892,0.014248636055382652,-0.062055541945134046,0.008351949866023087,0.0013811552693618833,0.0013811552693618833
417,4.17,-0.051327924292224145,0.2386775600319524,-0.027505838108514785,-0.00027145241406753475,0.003337269104711084,0.003337269104711084
418,4.18,-0.0409424754422364,0.48252352633409645,-0.11160253972460307,-0.00031732821319226497,0.0048033226984310505,0.0048033226984310505
419,4.19,-0.04914814462361348,0.35335696974063435,-0.1928379147514484,0.010168018313853215,0.004782633223915264,0.004782633223915264
420,4.2,-0.09384407306407269,-0.013417101346815452,-0.19076247443614172,0.015559404017950971,0.005785044175432735,0.005785044175432735
421,4.21,-0.1009484471656293,-0.10008953531742262,-0.11937717500026707,0.009354932870363071,0.006138880451327143,0.006138880451327143
422,4.22,-0.024417891212203204,0.1178650756848591,0.017488057937532636,0.004952496999390603,0.008064663165596616,0.008064663165596616
423,4.23,0.08407673557985709,0.3311818373005,-0.017510838924854118,0.004484366714442511,0.010329485053346731,0.010329485053346731
424,4.24,0.046297033968563495,0.12874969447526666,-0.039093046831438424,0.01243113191416784,0.010162605453560064,0.010162605453560064
425,4.25,-0.05683523256879328,-0.11694123299863288,-0.02790237220478301,0.013180499797077505,0.009887611843734026,0.009887611843734026
426,4.26,-0.009151332374786589,-0.03009650439756134,0.0001906579562978572,0.00831862040577042,0.009971302877447644,0.009971302877447644
427,4.27,0.154688704999126,0.2301109985247384,-0.03523225236760259,0.008755575906553202,0.011225243063062218,0.011225243063062218
428,4.28,0.1281492570072121,0.25837212699180656,-0.07323720232797268,0.009958286011828858,0.013944487024086029,0.013944487024086029
429,4.29,-0.05332527445710837,0.10111137673633497,-0.11084830715507143,0.013636142264921968,0.014283228552026881,0.014283228552026881
430,4.3,-0.09610381656169534,0.031342605532853535,-0.03764907135718173,0.015443034784895268,0.013452966283300312,0.013452966283300312
431,4.31,0.04022039060474114,0.1464174484901635,0.014546868411361526,0.014878684144512919,0.014011240289637204,0.014011240289637204
432,4.32,0.07384965071421096,0.22270848824142175,0.0759214988526446,0.013160462673852277,0.0153407687993165,0.0153407687993165
433,4.33,-0.03880716707946985,0.10399685861592987,0.06012153317549436,0.013297634780414676,0.0191989888933286,0.0191989888933286
434,4.34,-0.08461458027771922,0.09966097870252469,0.02001921091099712,0.013437165913722572,0.019707872903479626,0.019707872903479626
435,4.35,-0.06273451953985691,0.08390810660199151,0.030727876203404544,0.013328206723691912,0.01824069399507629,0.01824069399507629
436,4.36,-0.006771123983503428,-0.04026309067527313,0.04030281495812464,0.009727707281523428,0.01828784539372949,0.01828784539372949
437,4.37,-0.021367913700713143,-0.1555244633620528,0.13471109377485363,0.0033092888083779692,0.01682037387215876,0.01682037387215876
438,4.38,-0.030347003703101155,-0.10303182968692193,0.06251669658411287,-0.0011523560677733759,0.018749828521570963,0.018749828521570963
439,4.39,-0.002843243889674694,-0.08657230884182415,0.07417097180973352,0.001920096119786322,0.018633503067239345,0.018633503067239345
440,4.4,0.03681227408976076,-0.28560872289700634,0.0904121596875442,0.0022943947783683697,0.019795744123677912,0.019795744123677912
441,4.41,0.06325208241484159,-0.4342347665939569,0.1170466810607529,-0.0025610411100456263,0.019526679877397972,0.019526679877397972
442,4.42,0.015624280303670572,-0.37439437786635077,0.1315078942335884,-0.008597955891859637,0.02026117103015194,0.02026117103015194
443,4.43,0.006464722437590431,-0.19039678997266166,-0.01603996157380029,-0.006618262746443282,0.021848665723175616,0.021848665723175616
444,4.44,-0.0013719826453234794,-0.11744881064022206,-0.07353762947376664,-0.002846323312043279,0.02191645004207075,0.02191645004207075
445,4.45,0.002280505324343391,-0.23078174823064265,-0.10564250140547493,0.0016972866577253806,0.020908356807047345,0.020908356807047345
446,4.46,0.05889936445751762,-0.2718398815637266,0.034411779845994875,0.0016473058656723855,0.020493324242236054,0.020493324242236054
447,4.47,0.039278138911360144,-0.18487135928845588,0.18027986059879925,-0.002589522480333145,0.021453373547098656,0.021453373547098656
448,4.48,-0.026837868693946713,-0.1391585505031438,0.18778425523086725,-0.0017037480565698195,0.0230973213448514,0.0230973213448514
449,4.49,0.019139625762904736,-0.2430059458450471,0.08823343175927661,0.002155912023956092,0.0244627990175016,0.0244627990175016
450,4.5,0.045214865032942066,-0.26045309271035394,0.0137483907569931,0.005000325412444368,0.022274568883930427,0.022274568883930427
451,4.51,0.046020057529193394,-0.17733087976776954,0.006537078023805404,0.006464525001058933,0.019983859099156842,0.019983859099156842
452,4.52,-0.08183813029296101,-0.04405800570872573,0.13995309839156328,0.0046326036483068465,0.019785722839167283,0.019785722839167283
453,4.53,-0.03378802582013456,-0.03954230499356923,0.05959191489227321,0.00306466771644905,0.01954812804761756,0.01954812804761756
454,4.54,0.12636316424422128,-0.07899278513428142,-0.06548834414187941,0.0008299162123316468,0.018594203660121333,0.018594203660121333
455,4.55,0.09072155428710446,-0.1050244486729639,-0.13803179785949138,0.00041891387554988274,0.019498800837981885,0.019498800837981885
456,4.56,-0.0940367414468422,-0.1408926021618308,-0.06873209273174707,-0.0022179679528118515,0.017710921267421145,0.017710921267421145
457,4.57,-0.15030046514205503,-0.13791271192680063,0.03985821473015101,-0.0025436796245633217,0.016789259755393283,0.016789259755393283
458,4.58,0.059840252027779345,-0.024015538234101602,-0.049793759084836506,-0.0036226041116815453,0.017029293088662318,0.017029293088662318
459,4.59,0.12110484681910973,0.13617929827699743,-0.0858153341498649,-0.003881588956460561,0.0161941765028395,0.0161941765028395
460,4.6,-0.04111629930433387,0.03953245117596758,-0.11711638736066365,-0.0047491421567983855,0.01492773936407677,0.01492773936407677
461,4.61,-0.14079416217216145,-0.09579283814535174,-0.026503343286984775,-0.010622293394244909,0.013824339328430366,0.013824339328430366
462,4.62,0.019915442430691613,-0.06230371771775467,0.03318404338543418,-0.016292214019173527,0.010984309189133536,0.010984309189133536
463,4.63,0.12949686261636884,0.1751992867945774,-0.0425342110978873,-0.014283573140500409,0.012003704123009306,0.012003704123009306
464,4.64,-0.06407729395170288,0.2896782932573223,-0.04019581094157108,-0.0066902371635064045,0.009789353726327287,0.009789353726327287
465,4.65,-0.1899174068730758,0.18784097059575366,-0.043649059910250476,-0.0012628076953135955,0.007837071114339289,0.007837071114339289
466,4.66,0.007624695761549206,0.08119119606920511,0.011646442920288214,-0.004664438349947472,0.009101441283319809,0.009101441283319809
467,4.67,0.18766250980781385,0.1997481281910372,0.04724948414050577,-0.00951078202433984,0.010077714345850185,0.010077714345850185
468,4.68,0.06924592518331582,0.381190664714971,0.01890639476490208,-0.013042452600034162,0.006310917024513054,0.006310917024513054
469,4.69,-0.08026390718582048,0.31534382834371766,-0.047162194800535975,-0.0050483980336339645,0.006257670075142995,0.006257670075142995
470,4.7,-0.026229725324966313,0.2287402872083483,-0.17079248204949532,0.0008716292708751284,0.005839239394436331,0.005839239394436331
471,4.71,0.05088530360137854,0.2807980668867591,-0.16553849784702912,0.004356452751799743,0.004353930913592249,0.004353930913592249
472,4.72,-0.07010380048097715,0.4120476478502846,-0.10958988013719231,-0.0008213994743820714,0.006030415217746697,0.006030415217746697
473,4.73,-0.12190806387078168,0.31902842959498523,-0.0625055442121274,-0.0048861629735828865,0.0038909754395095968,0.0038909754395095968
474,4.74,-0.006889069453384397,0.16833551072702685,-0.05951815591979716,-0.00891408645627435,0.004786475505312388,0.004786475505312388
475,4.75,0.08728471805859045,0.14740027414487572,-0.09668742034624594,-0.0066773182908303145,0.0025899590660083947,0.0025899590660083947
476,4.76,-0.007480181819123199,0.16673782908083495,-0.009406519434581106,-0.0034875337450832795,0.0046120340303256535,0.0046120340303256535
477,4.77,-0.10991186463381303,0.061656636831398576,-0.010567305973207666,-0.0018819877685377579,0.0056547504650505094,0.0056547504650505094
478,4.78,-0.04018936914458631,-0.14155487296746133,-0.05415170972849211,-0.007830543334700972,0.004972544997831682,0.004972544997831682
479,4.79,0.025317869123602475,-0.14778849018934803,-0.06443794663096632,-0.01662930883235961,0.006385538645874308,0.006385538645874308
480,4.8,-0.007533779723772567,-0.0582176795064286,-0.03418468006727485,-0.02042006886478357,0.0041683628216315155,0.0041683628216315155
481,4.81,-0.023707446901886087,-0.005056031742838793,0.04386137744038813,-0.01165867368636,0.005339560137557925,0.005339560137557925
482,4.82,0.0072054925538058145,-0.0842746318327735,0.05252419917014471,-0.004067438951570993,0.005945013883643009,0.005945013883643009
483,4.83,0.004564196187298579,-0.06295774853078824,0.00015604617710092417,-0.003592791397090147,0.006043737639854878,0.006043737639854878
484,4.84,0.010772283681796065,0.05520294974902977,0.04287682697448556,-0.006529045970738716,0.007295063364871982,0.007295063364871982
485,4.85,0.11382396133681671,0.12374418088358467,0.02029583416365905,-0.009533053435716345,0.004662334258952842,0.004662334258952842
486,4.86,0.10013600662527658,0.02162787540786565,0.1247954767144238,-0.008099583916198172,0.0060589097015635645,0.0060589097015635645
487,4.87,-0.02870156734035651,-0.18989043106842612,0.17021166852050396,-0.005473300161032426,0.004748149594023496,0.004748149594023496
488,4.88,-0.02986913658027201,-0.15386859865232305,0.07787056107383662,-0.0038289286662988404,0.007564976281626125,0.007564976281626125
489,4.89,0.14259567022291203,-0.06610804486007033,0.00602925292411248,-0.002911128051437466,0.005974747951817013,0.005974747951817013
490,4.9,0.15715286752324856,-0.03981506610999298,0.03266323415383532,-0.0017901593513007913,0.0048225269456634605,0.0048225269456634605
491,4.91,-0.007865764938170754,-0.18794425816442398,0.20193974027091977,-0.004099309802186186,0.0034886305103427363,0.0034886305103427363
492,4.92,-0.02715617520795477,-0.27202456576781314,0.2293163183436378,-0.009680091303948077,0.0030689202705054307,0.0030689202705054307
493,4.93,0.06184952586811539,-0.21658715422723157,0.11955802736589835,-0.011897923747418377,0.003758619299073328,0.003758619299073328
494,4.94,0.028378896082438453,-0.1560272141972642,0.0026689513781997035,-0.009287777922871991,0.002385820129537784,0.002385820129537784
495,4.95,-0.11347336056543354,-0.15381861008007475,0.03000135981202167,-0.003572899558647292,0.0024128641536489697,0.0024128641536489697
496,4.96,-0.07569887043964992,-0.21087089786943974,0.08726985079809009,-0.002364966539354151,0.0025916953806970505,0.0025916953806970505
497,4.97,0.017584167837930334,-0.16801224557241745,0.11426261962859502,-0.004140014157284549,0.0028554433662172623,0.0028554433662172623
498,4.98,-0.04729807249179647,-0.09336050879417346,0.058377268990478785,-0.007835789517572163,0.0034034557272902767,0.0034034557272902767
499,4.99,-0.1534036966338957,-0.0763668376991105,-0.002552807677075275,-0.009162256467576192,0.0020007252954235178,0.0020007252954235178
500,5.0,-0.06865627606973543,-0.18286320480781032,-0.0904736760765874,-0.006088112533368835,0.004968489619030908,0.004968489619030908
501,5.01,-0.0017882977405574915,-0.08526490911551048,-0.08217434995540988,-0.003399710504507901,0.005630038517194444,0.005630038517194444
502,5.02,-0.14863918425555506,0.08250856235066797,-0.02924847680910655,0.0014991688076644188,0.007820076287558179,0.007820076287558179
503,5.03,-0.18521071742651665,0.12678696969503453,-0.009951907161487139,0.002789885652761528,0.007843453336892283,0.007843453336892283
504,5.04,0.06458017147266788,0.03585059975279842,-0.09930198016041919,0.0004624858838690872,0.005454574287111647,0.005454574287111647
505,5.05,0.20009539180938649,-0.0808644043661029,-0.1365395526272839,-0.004396533701186821,0.00646586403853326,0.00646586403853326
506,5.06,-0.041428647673060405,-0.07339536841085331,-0.05322030989835322,-0.006852639802411975,0.0058429460857095505,0.0058429460857095505
507,5.07,-0.16382053765979462,-0.0765674298672612,-0.028596322852159135,-0.004999285847891841,0.004021809705777515,0.004021809705777515
508,5.08,0.05797037165198128,-0.013689703095422744,-0.12263861853245069,-8.011535573453164e-05,0.006508976025684231,0.006508976025684231
509,5.09,0.19003635556203677,0.044016697215877365,-0.17432763929665734,0.0029047263521206103,0.00509964073066384,0.00509964073066384
510,5.1,0.0017576510948751067,0.06037776825504207,-0.05416628066123674,-0.0010309647277482797,0.002347354342667807,0.002347354342667807
511,5.11,-0.04743250806789199,0.005646850056862059,0.08958478961911907,-0.006540202304982895,0.001782129484453271,0.001782129484453271
512,5.12,0.1694075842871941,-0.07417123620681551,0.05407397118497378,-0.009554209291420977,0.0018975161166759394,0.0018975161166759394
513,5.13,0.16111615750605957,-0.05376008515019809,-0.013379911177269471,-0.010466485468019369,0.0005008611519948967,0.0005008611519948967
514,5.14,-0.06486126080205228,0.027344134482508095,-0.0665886409882181,-0.0035228853863690257,0.00027020463608775155,0.00027020463608775155
515,5.15,-0.11293529892909102,0.15232104882514372,0.0015083698201892246,0.0040344970607572505,-0.00038628176092467997,-0.00038628176092467997
516,5.16,0.15846669937638236,0.18324652067813466,0.012792413721974961,0.004170181326936561,-0.000468130766298117,-0.000468130766298117
517,5.17,0.17290504449858934,0.20147910665036434,0.038684348489965034,-0.001228636467828558,-0.0018780269606016445,-0.0018780269606016445
518,5.18,-0.12307336302123395,0.141313236996571,0.010933657908665115,-0.006881892494643252,0.00022715724532637723,0.00022715724532637723
519,5.19,-0.13300087605020045,0.1619449971834781,-0.12112245062632424,-0.010115970271285768,-0.0008165462714983824,-0.0008165462714983824
520,5.2,0.10321836597928989,0.15260926202254382,-0.16757764077639883,-0.0054475855317316895,-0.0029648838302178643,-0.0029648838302178643
521,5.21,0.08523287674221128,0.12345627984777029,-0.06988304300348214,-0.0018605831734608363,-0.003359285229164109,-0.003359285229164109
522,5.22,-0.20274655027335006,0.07355738699202982,0.11312373871833124,0.0002587522227457753,-0.002751758517621352,-0.002751758517621352
523,5.23,-0.09750008387683133,0.020292580288085338,0.12250606616988238,-0.006789189610600587,-0.0017479786172828822,-0.0017479786172828822
524,5.24,0.1586114998812844,0.08299534384583615,-0.07022476929390155,-0.015014984633736713,-0.0038728844584388993,-0.0038728844584388993
525,5.25,0.04874071298802972,0.0863489771611712,-0.09715179590461037,-0.016686916166337773,-0.003286130915255992,-0.003286130915255992
526,5.26,-0.19074318664206547,0.04631370083357691,0.011055632865062025,-0.01236475861111114,-0.006001782052443609,-0.006001782052443609
527,5.27,-0.06745343865971143,-0.06369391072996294,0.09698416881422108,-0.00815108395830913,-0.0047071581771693785,-0.0047071581771693785
528,5.28,0.15656765221303331,-0.011328057258740157,0.06338377319250348,-0.007878309333800551,-0.0014080587182430352,-0.0014080587182430352
529,5.29,0.05789012601915322,0.18260857233999206,-0.03228745138126362,-0.011009781350739056,-0.0029344437539264683,-0.0029344437539264683
530,5.3,-0.1776138890931763,0.3246004445643163,-0.05444730725075278,-0.010745729032072096,-0.004260457265747905,-0.004260457265747905
531,5.31,-0.11158749530456083,0.23097189052554967,0.010743548273605755,-0.00870038316283045,-0.0017980738145266188,-0.0017980738145266188
532,5.32,0.1081134660256512,0.022012428961545885,0.08042290888982317,-0.006250368949918811,-0.0020683212489573874,-0.0020683212489573874
533,5.33,0.12321932110040563,0.0022989920045264345,0.14869614485776608,-0.006552617219121439,-0.005446887582997793,-0.005446887582997793
534,5.34,-0.06315483769716247,0.08330353321588971,0.09818068635258835,-0.006317597517277486,-0.002631394309548941,-0.002631394309548941
535,5.35,-0.13887141942552728,0.0905906493952554,0.05486770033433594,-0.004892385623106752,-0.0003655669411548772,-0.0003655669411548772
536,5.36,0.08706684943297338,-0.06920891961538751,-0.05894714180889689,-0.005796634190457691,0.002257255861221508,0.002257255861221508
537,5.37,0.15665349525103373,-0.19391267251388178,-0.07583724115929388,-0.01266197817293627,0.003940860343667545,0.003940860343667545
538,5.38,-0.05548635633153166,-0.21577735564487688,-0.05043744442384623,-0.015639438740630295,0.0018929522468428507,0.0018929522468428507
539,5.39,-0.1914447557604575,-0.1894877815100075,0.032150467771015455,-0.0142869015810328,0.0015318091104015966,0.0015318091104015966
540,5.4,0.031554875145260515,-0.22163453256037152,0.04920135139088341,-0.009810052852729786,0.003383197934400828,0.003383197934400828
541,5.41,0.20974306898943645,-0.2671608927878174,0.012637548406122651,-0.00646904527677815,0.005826509571781147,0.005826509571781147
542,5.42,0.04937005293376261,-0.23252971833978628,0.025146264992264116,-0.007744076496994949,0.007479953477009351,0.007479953477009351
543,5.43,-0.12675037615074475,-0.11110181830367162,0.010245848816903689,-0.00695878154063745,0.0064259940957342035,0.0064259940957342035
544,5.44,-0.08177193628300711,-0.023686011767683812,0.04084073293525231,-0.008067717972431238,0.007883604040560046,0.007883604040560046
545,5.45,0.08977167572368332,-0.09804456306039222,0.07428443056815287,-0.0018285644281915304,0.008198722738755966,0.008198722738755966
546,5.46,0.13231413256643743,-0.18918281779226315,0.07924842962830364,-0.003027551114403662,0.008396164054264917,0.008396164054264917
547,5.47,0.015423041628958332,-0.2699033342359711,0.07532075626231165,-0.006392351779169435,0.009306287015265178,0.009306287015265178
548,5.48,-0.08982899597727306,-0.19831173477681938,-0.02001969495878714,-0.008162399342134311,0.0106874521215338,0.0106874521215338
549,5.49,-0.04445507631726699,0.0195968698602101,-0.04838842259597863,-0.003973797432263827,0.013027218857776014,0.013027218857776014
550,5.5,0.07558171987650657,0.12248856667896918,-0.01150016408910365,0.002498080815016805,0.011906753583942309,0.011906753583942309
551,5.51,0.04744688022510954,0.051581294226725874,0.0946404295121229,0.007249191063077386,0.013078513126844191,0.013078513126844191
552,5.52,-0.0859225052178757,-0.10160897562807249,0.06281535896465167,0.002467698402705394,0.011383678970120138,0.011383678970120138
553,5.53,-0.06545356077007602,-0.1014738893717917,-0.09677712869037429,-0.005841969259513639,0.013301656887267064,0.013301656887267064
554,5.54,0.0574016302396613,0.05100873729229233,-0.20342307438539345,-0.008848397814789695,0.012651274462376596,0.012651274462376596
555,5.55,0.0689936552597882,0.15092222356518614,-0.21296120737324617,-0.003157878585862468,0.013425018539231864,0.013425018539231864
556,5.56,-0.06615203383379825,0.052279434168262084,0.06013863856036514,0.004588987619291848,0.014227191941965638,0.014227191941965638
557,5.57,-0.08294870686941311,-0.043797174407140316,0.09602985717117715,0.003598172276554342,0.01117506329479944,0.01117506329479944
558,5.58,0.06854930204789117,0.05594001891429198,-0.035557978532076595,-0.0032797088598255863,0.013109015698348374,0.013109015698348374
559,5.59,0.05622879948273592,0.20580193125240645,-0.18641140473125675,-0.007675103879796889,0.012842063899405952,0.012842063899405952
560,5.6,-0.14100325982989598,0.2477428323339917,-0.08721305918296353,-0.003689773170638743,0.009287199376437924,0.009287199376437924
561,5.61,-0.10919851321688731,0.03983088484056366,0.13034833326655493,0.00010061200558893332,0.005468440813369157,0.005468440813369157
562,5.62,0.10205387653774518,-0.07986092361371522,0.24883542602080622,0.0016791695325179315,0.005755480679462089,0.005755480679462089
563,5.63,0.10958488258731812,0.028516117268559002,0.1462268721667143,-0.004136546205085891,0.00726426825987058,0.00726426825987058
564,5.64,-0.1009263837916791,0.24799027430722775,-0.03325102995124815,-0.00827540860040885,0.009012452206366341,0.009012452206366341
565,5.65,-0.11778423049003678,0.22286284935398315,-0.16449330797816952,-0.0043883470707754176,0.008186242033174255,0.008186242033174255
566,5.66,0.012480731816661296,0.005202646597137595,-0.17643232520564486,-0.001110135547042719,0.006850253099789651,0.006850253099789651
567,5.67,-0.001987679030078897,-0.103162236393184,-0.08757853950733421,-0.00336945429240306,0.006695937770228743,0.006695937770228743
568,5.68,-0.11242794990832698,0.044614561691325196,-0.06784810454533162,-0.004737569603187696,0.009536004130565304,0.009536004130565304
569,5.69,-0.08441982250622147,0.25039214281524597,-0.14858256713625506,-0.0021499570687502907,0.011501194436890313,0.011501194436890313
570,5.7,0.059049161495718316,0.17517196398734294,-0.23380673423621434,-0.0005567979587327098,0.009120898682194943,0.009120898682194943
571,5.71,-0.010846206045862661,-0.02385211677971759,-0.15550828725264054,-0.005242193201011764,0.008325239630875557,0.008325239630875557
572,5.72,-0.1358524411211111,-0.16531345168553274,-0.025005433163672597,-0.013304256858796994,0.008269447351238786,0.008269447351238786
573,5.73,-0.031945364101327936,-0.04935956804108535,0.08043986159378032,-0.016255979714536857,0.005421678862962545,0.005421678862962545
574,5.74,0.1626906443209994,0.16301045108364257,0.08068388181857991,-0.010349563613959379,0.005499608279001292,0.005499608279001292
575,5.75,0.12341274824591,0.15199897109792915,0.10679789604292685,-0.00034647323356872683,0.006127249741641179,0.006127249741641179
576,5.76,-0.07846629875024683,-0.04987245612938263,0.23893775272452158,-2.5986277700723944e-06,0.003589661376524821,0.003589661376524821
577,5.77,0.01806526435224169,-0.1535626243214217,0.2151701805839533,-0.010413668173581202,0.0028865796165711967,0.0028865796165711967
578,5.78,0.24292667420312308,0.00023029975307207323,0.11548085512359667,-0.021457806514873792,0.004039174495492505,0.004039174495492505
579,5.79,0.12722985076706783,0.07041782966854754,0.03194089189536305,-0.021473603266828085,0.004639238898223301,0.004639238898223301
580,5.8,-0.16922577318843027,-0.028766957379288038,0.06964477907452696,-0.015440223353131869,0.00540223991387768,0.00540223991387768
581,5.81,-0.00946979309723514,-0.12777028648305438,0.07843411081281974,-0.009783639309335013,0.002938935166966887,0.002938935166966887
582,5.82,0.29676339772576293,-0.052273855846179336,-0.011167391251234407,-0.012011462597461268,0.0020829313556199954,0.0020829313556199954
583,5.83,0.16060892091869783,-0.002894310114629678,-0.03155726583945286,-0.019530537149120772,0.0051216805535881284,0.0051216805535881284
584,5.84,-0.16818448272855854,-0.06719544543549567,0.040812134857285895,-0.028347842997675367,0.0023268938695093933,0.0023268938695093933
585,5.85,-0.10049862629178526,-0.20498908910309646,0.08492668937665382,-0.033026963350869784,0.00246853087526149,0.00246853087526149
586,5.86,0.16798190321615727,-0.2273289972260864,0.0036917491288588154,-0.02932330174961045,0.0037341939917034032,0.0037341939917034032
587,5.87,0.11538732305161237,-0.10760125318567314,-0.02626450973673388,-0.024843157473296986,0.002592689138218041,0.002592689138218041
588,5.88,-0.1644763493896028,-0.01533628493680303,-0.04631577262704003,-0.023002726775328646,0.005488287876688262,0.005488287876688262
589,5.89,-0.16513460509405636,-0.034353382804163266,0.008082966602742214,-0.02633098079815357,0.004165259368709857,0.004165259368709857
590,5.9,0.09988281075270737,-0.08434006007180389,0.023641137620500276,-0.0361239448865739,0.0024051324420085573,0.0024051324420085573
591,5.91,0.14121469392008362,0.04575642276358847,0.056000075593427984,-0.040107410364082,0.005643743205601808,0.005643743205601808
592,5.92,-0.06032629986869927,0.05510276389195744,0.06861107236376592,-0.03414304488346021,0.00594297927397306,0.00594297927397306
593,5.93,-0.11537393586427228,-0.040867570907666205,-0.011324698882403617,-0.02569075839072531,0.005707686888427858,0.005707686888427858
594,5.94,0.08522055909502571,-0.011673953328680979,-0.1232070904777858,-0.02181391373526089,0.003080337197462969,0.003080337197462969
595,5.95,0.1558493380873609,0.17794918032133653,-0.11232121161469086,-0.024313630934120197,0.0034183468717603922,0.0034183468717603922
596,5.96,-0.05493102053461421,0.2412020215462561,0.01203142215629091,-0.030070537916529718,0.004366516959440628,0.004366516959440628
597,5.97,-0.14474174979181711,-0.027681996326569897,0.06839439415587578,-0.032883723783645034,0.003834559222035319,0.003834559222035319
598,5.98,0.013902156924037887,-0.22188763042735937,-0.0014679549677733758,-0.035568194279604136,0.005512141617924006,0.005512141617924006
599,5.99,0.07099385749890696,-0.12026990579711663,-0.13831448501530044,-0.03374240052189058,0.0059437208105800115,0.0059437208105800115
600,6.0,-0.11326761684792398,0.1536591752224999,-0.09671713780032758,-0.026497125003473045,0.006330105719598444,0.006330105719598444
601,6.01,-0.16440811344815615,0.21312436062730045,0.033991367493151445,-0.018006058866026062,0.0025640343169371963,0.0025640343169371963
602,6.02,-0.02319097336273257,-0.01666353881229482,0.10132409620521209,-0.01822351589161733,0.0018594647405278887,0.0018594647405278887
603,6.03,0.028356914907453207,-0.19783804784337902,0.060394088780543115,-0.029258228854683876,0.003677527990922336,0.003677527990922336
604,6.04,-0.09630438451962497,-0.14986409835102416,-0.0388587016574261,-0.03846901292762107,0.0037157389079154187,0.0037157389079154187
605,6.05,-0.1286563346709637,0.03175858674552852,-0.034741236961394,-0.032269938184090435,0.0011889724576355756,0.0011889724576355756
606,6.06,0.02351434431865665,0.053430922861032175,-0.008061547748081179,-0.018060735092013544,-0.0008130789768870001,-0.0008130789768870001
607,6.07,0.04367847178605496,-0.0717464145749752,0.0058648296053235155,-0.00956240009848677,0.00043027304802836287,0.00043027304802836287
608,6.08,-0.12123323092975236,-0.022177018342564248,-0.06183435847688763,-0.008413651324719081,0.0020450910441313407,0.0020450910441313407
609,6.09,-0.22968778049519595,0.25906529859770994,-0.15081232357971602,-0.016260225039653412,-0.000210287838711052,-0.000210287838711052
610,6.1,-0.021353441194158815,0.30499789135695504,-0.18526337680152027,-0.019879936888337543,-0.00016140629804288235,-0.00016140629804288235
611,6.11,0.17253168587773887,-0.03316780992338314,-0.06624922163951232,-0.016207430752291162,-0.0012225763554969302,-0.0012225763554969302
612,6.12,0.07811941169380988,-0.42865636449066047,0.0744325950898075,-0.014693977497907868,-0.0027064251894761125,-0.0027064251894761125
613,6.13,-0.11868730247079465,-0.3544829378437449,0.11797259343654101,-0.016105818768874132,-0.003187545164046993,-0.003187545164046993
614,6.14,-0.05397450304696021,0.11020849381704959,0.003461113541509353,-0.011630123457877341,-0.006098359069773849,-0.006098359069773849
615,6.15,0.08547815413815496,0.2780199510701393,-0.08259093856439144,-0.004848550651638541,-0.00533619323357694,-0.00533619323357694
616,6.16,0.12588370533450813,-0.025226058765820236,-0.0664279682909167,-0.0049483918359509785,-0.00774058606380897,-0.00774058606380897
617,6.17,0.0476082651639901,-0.22018065167283685,-0.016332070479972823,-0.01116433323220378,-0.009854698409266293,-0.009854698409266293
618,6.18,-0.04509471898257934,0.0014386042123087084,0.048482639704189444,-0.01861909592782348,-0.010823795108709993,-0.010823795108709993
619,6.19,-0.00607654860293224,0.15152337500419327,0.0566264181451666,-0.010684306859404115,-0.013485169242859954,-0.013485169242859954
620,6.2,0.12217518207207517,0.05651340429513734,0.04074195682144001,-0.0014434257690944365,-0.015513006518138353,-0.015513006518138353
621,6.21,0.15877403704580437,-0.08323372256162102,0.03802884440491561,0.0009205641058658938,-0.014218498083218312,-0.014218498083218312
622,6.22,-0.013586059617093721,0.01648916996154705,0.06656324437524466,-0.003941058466679269,-0.016492597237839645,-0.016492597237839645
623,6.23,-0.11452292331922073,0.25684047913272673,0.05801375920716514,-0.007511858262613444,-0.016836011735944137,-0.016836011735944137
624,6.24,0.023253902055376807,0.30207146688258446,-0.04559164190990551,-0.004348049345030678,-0.01912939684034386,-0.01912939684034386
625,6.25,0.10624573290850634,0.09665343023782899,-0.08132442287897204,0.0022757137690391648,-0.017469422257051292,-0.017469422257051292
626,6.26,-0.030237134188332362,-0.059395815021641304,-0.07196110475184492,0.004365643690692507,-0.016119178659109987,-0.016119178659109987
627,6.27,-0.1518602400876064,0.13126778836606084,-0.01010360626872931,0.004277233152249358,-0.016374133520976792,-0.016374133520976792
628,6.28,-0.042261270162392055,0.2886755107542772,-0.04967182321557006,0.0031290134225511364,-0.015330723874205825,-0.015330723874205825
629,6.29,0.09520369920975214,0.22253846905110655,-0.08388509964019185,0.0031636591711470497,-0.016341229462235728,-0.016341229462235728
630,6.3,0.05812624440293689,-0.010314395704138751,-0.04391794458757648,-0.0010841253226570656,-0.016645246710258476,-0.016645246710258476
631,6.31,-0.0630184414795796,-0.16742984448764286,0.05677290273722373,-0.006153866381074864,-0.016491550322474114,-0.016491550322474114
632,6.32,-0.06008743137097956,-0.07553349915239684,0.10562343414835026,-0.007494577938482632,-0.016269680105728858,-0.016269680105728858
633,6.33,0.05945299476383253,0.011778166550391517,0.08628210467231429,-0.0065606293411116885,-0.01771506682955434,-0.01771506682955434
634,6.34,0.12496759604689295,-0.11094001088195704,0.04833243882130331,-0.0011096203027257704,-0.017132261997350212,-0.017132261997350212
635,6.35,0.11746685554567592,-0.2673013290391252,0.09227238805520585,-0.0002083033415513935,-0.019277413132658468,-0.019277413132658468
636,6.36,0.10170305616917703,-0.14061647766954177,0.13003629369086803,-0.006881543767081109,-0.014924627737534226,-0.014924627737534226
637,6.37,0.018236156802599806,0.12500202974186864,0.2021557526339328,-0.0098232182565021,-0.013746891451763518,-0.013746891451763518
638,6.38,-0.03041861151594779,0.2844019540490045,0.1333783326661051,-0.004254678467926321,-0.014971271253855447,-0.014971271253855447
639,6.39,0.10332224359109043,0.09808563706958683,0.007634025429117661,0.0018832518408328925,-0.015929015339458102,-0.015929015339458102
640,6.4,0.15694452180454407,-0.26047010704805335,-0.011361142105025174,8.350195512034147e-05,-0.015456501149247272,-0.015456501149247272
641,6.41,-0.056926194581302623,-0.3584857090370449,0.0720695613873223,-0.012357611199386418,-0.013719793455876778,-0.013719793455876778
642,6.42,-0.1867504680430876,-0.06036326684051618,0.14728072826163074,-0.020481565277823258,-0.015003986708302159,-0.015003986708302159
643,6.43,0.04171481049533827,0.2147330887014455,-0.008392251574219935,-0.008541818664501032,-0.011133512758671409,-0.011133512758671409
644,6.44,0.21272720754181665,0.1132344153589486,-0.18114004093834485,0.00505323555706197,-0.008169281613707748,-0.008169281613707748
645,6.45,-0.029447169810591853,-0.21788856200012985,-0.09122307916016792,0.004401676131333258,-0.008184879977132827,-0.008184879977132827
646,6.46,-0.20906965811837974,-0.3889663423761871,0.03185956803479953,-0.01038970222076452,-0.008779369734270657,-0.008779369734270657
647,6.47,-0.023463542257709247,-0.1985193726510155,0.07778091651188043,-0.028465235968642377,-0.007633466386699488,-0.007633466386699488
648,6.48,0.04868251610836835,0.04507888643663549,-0.05621381232213316,-0.02629115867299369,-0.0065580795184815716,-0.0065580795184815716
649,6.49,-0.1831970724440295,-0.04540625187465101,-0.07772166922831926,-0.00931207657111717,-0.007513387958089528,-0.007513387958089528
650,6.5,-0.14690719653961282,-0.31394784180535346,-0.02597882694982925,0.0032468611600794065,-0.008199512809969455,-0.008199512809969455
651,6.51,0.1895667521173098,-0.19190063483020725,-0.05262708317020303,5.6737458732909585e-05,-0.006874412273860611,-0.006874412273860611
652,6.52,0.15189333491840468,0.21592531738357837,-0.06644371927367795,-0.01422013483280432,-0.004693266277956287,-0.004693266277956287
653,6.53,-0.260484223977443,0.2896895005917245,-0.08917062595610568,-0.01770039690203468,-0.003974749983161932,-0.003974749983161932
654,6.54,-0.3224132386450274,-0.0408361586121562,-0.16519583331225113,-0.015574887277257326,-0.0051986497108079755,-0.0051986497108079755
655,6.55,0.10102178778848764,-0.2528126913068987,-0.2055663486885445,-0.011298401036354228,-0.0057117666495602615,-0.0057117666495602615
656,6.56,0.21825252383348961,-0.08044745910159137,-0.0780797410490783,-0.010052280005550984,-0.006175610888698997,-0.006175610888698997
657,6.57,-0.14132908441549147,0.12160503641672857,0.15099651312111648,-0.008290338713339455,-0.005126672698697951,-0.005126672698697951
658,6.58,-0.24813377341100792,0.04146272746573842,0.09983638726818808,-0.011847837266220304,-0.004399112277919357,-0.004399112277919357
659,6.59,0.052988531310580955,-0.09097201834975012,-0.08540116271705882,-0.01855016187389216,-0.004817627492299114,-0.004817627492299114
660,6.6,0.09956983008911056,-0.007757550123714874,-0.19212789234052902,-0.021857610620574282,-0.006147965169421626,-0.006147965169421626
661,6.61,-0.14137847123436986,0.15286078173018852,-0.04525848368292329,-0.019783838005582286,-0.004408282095679647,-0.004408282095679647
662,6.62,-0.14908457554689405,0.10461352253302189,0.08849135255080404,-0.011999947108761332,-0.006945394148796141,-0.006945394148796141
663,6.63,0.08232536678197636,-0.012498515174850344,0.0325866009442637,-0.008268312265300056,-0.007620200474179684,-0.007620200474179684
664,6.64,0.10182451669687935,0.08252603003017246,-0.09760486302449234,-0.015068994795697725,-0.0063984406344280795,-0.0063984406344280795
665,6.65,-0.10821621905827307,0.21048366334823526,-0.1254596002739339,-0.02133458800872927,-0.00807192370976474,-0.00807192370976474
666,6.66,-0.09752432108127124,0.01980455137360959,-0.06722916268510347,-0.02374609976734984,-0.010553329419469092,-0.010553329419469092
667,6.67,0.0730833413733473,-0.232622858417643,0.05454442894293135,-0.021469437487676147,-0.01080242359360937,-0.01080242359360937
668,6.68,0.07457322684043176,-0.053462552269935446,0.09413586537074736,-0.020137284583517642,-0.010344994924533337,-0.010344994924533337
669,6.69,-0.0782189585401801,0.41177971064296304,0.078392348629201,-0.012020700036835046,-0.011050864762341772,-0.011050864762341772
670,6.7,-0.058494546214859874,0.4577012965981042,0.02272787708957863,-0.004731630213310562,-0.010705418680410549,-0.010705418680410549
671,6.71,0.11085024379320897,0.03327331066199343,-0.03302862346307615,-0.008963400557721286,-0.011091499340673678,-0.011091499340673678
672,6.72,0.09501147497944015,-0.27092102523147343,0.02469627666793087,-0.024126214585619928,-0.011433528455256487,-0.011433528455256487
673,6.73,-0.029089990520122178,-0.05571904873999267,0.01152796340239843,-0.034155088990234686,-0.01313127726899255,-0.01313127726899255
674,6.74,-0.039198499428260467,0.31156908286414164,0.012261354942495244,-0.02286838644623612,-0.014800895376500704,-0.014800895376500704
675,6.75,0.1378868550186421,0.27253858934920483,0.02834081996604986,-0.0028786025175556,-0.017606957472885085,-0.017606957472885085
676,6.76,0.19956824128557554,0.01367795769052868,0.16929957927078987,0.003865252232023443,-0.015712010806692583,-0.015712010806692583
677,6.77,0.08532839405519765,0.03418130919629793,0.25289587323250984,-0.009055859881653269,-0.013945126216478622,-0.013945126216478622
678,6.78,-0.00040564085644055614,0.2325065183325256,0.13204383160584382,-0.026224923787169282,-0.01042295234101922,-0.01042295234101922
679,6.79,0.06555889327486134,0.2209782637869212,-0.07906009094715769,-0.030693313974717806,-0.010704107994174077,-0.010704107994174077
680,6.8,0.029761957924433258,-0.08213151489890179,-0.1897292548940095,-0.02056325082544614,-0.010764456894509384,-0.010764456894509384
681,6.81,-0.13285506429841265,-0.38531073996199094,-0.057070973754855786,-0.01128570052426192,-0.013180059894037768,-0.013180059894037768
682,6.82,-0.06997298685919615,-0.1579602254170002,0.0480670989154028,-0.007268222229523444,-0.011226536787536887,-0.011226536787536887
683,6.83,0.1262062050816516,0.2950496880368153,0.06816322612503112,-0.0037671585358225327,-0.009518984018904924,-0.009518984018904924
684,6.84,0.15610956745818916,0.3671733770125333,0.07465178113595455,-0.0063044239423877295,-0.007052254588001137,-0.007052254588001137
685,6.85,-0.025235670775082,-0.1429278463660565,0.05848950990375233,-0.013570168563338477,-0.007093051317707945,-0.007093051317707945
686,6.86,0.06332846373787371,-0.5493289474866715,0.045793773414819196,-0.025376275001744608,-0.008430965207568067,-0.008430965207568067
687,6.87,0.13529801721440962,-0.28120291363901584,-0.004964266400350741,-0.026225630695545697,-0.009828202756471716,-0.009828202756471716
688,6.88,-0.0034688676906608693,0.18779026915718494,0.009108826697720632,-0.009754130006586663,-0.0061279744214421394,-0.0061279744214421394
689,6.89,-0.12789570455949076,0.14931756030428348,0.013425839813161908,0.01142504686724258,-0.005261206397302052,-0.005261206397302052
690,6.9,0.05319660958053693,-0.20392024470274053,0.046247449151654824,0.01282433850162052,-0.0060920496135225075,-0.0060920496135225075
691,6.91,0.3016426265687383,-0.28271947927994495,0.011146199362024399,-0.003769321614091593,-0.006224119863250116,-0.006224119863250116
692,6.92,0.09694444342007993,0.02221796924334679,0.08143155621428859,-0.018454704736704575,-0.004113935940061582,-0.004113935940061582
693,6.93,-0.3027320763059055,0.21310273330088744,0.11249823512046221,-0.013012184290012923,-0.002406520133389196,-0.002406520133389196
694,6.94,-0.22865589817984497,-0.05072351127014135,0.07067131993815887,0.0010616105234424918,-0.005071922334575307,-0.005071922334575307
695,6.95,0.16124509635332795,-0.393840992887614,-0.014278555122487907,0.015113369809437074,-0.004666805579414313,-0.004666805579414313
696,6.96,0.19040933871997934,-0.28421515578539996,-0.011856779456298934,0.010346573262597,-0.0029702161398647282,-0.0029702161398647282
697,6.97,-0.12700589159709727,0.04869172168569563,0.1374612497653692,-3.2400254792366162e-06,-0.005468336670275221,-0.005468336670275221
698,6.98,-0.24589063800567057,0.006410998155375394,0.07664380747162719,-0.007203307727959237,-0.0033747068096486275,-0.0033747068096486275
699,6.99,0.03950087572572834,-0.30254920878468816,-0.12021505749892795,-0.0061060507542068975,-0.0033005307500018764,-0.0033005307500018764
700,7.0,0.10967382692485649,-0.42425600302053335,-0.22241075383974163,-0.0006325067117785056,3.4241782602108944e-05,3.4241782602108944e-05
701,7.01,-0.16998593253890454,-0.20773135412014773,-0.1641378278722078,0.007926342541797601,-0.001776685963488501,-0.001776685963488501
702,7.02,-0.3236136720323252,0.03495666658304511,0.01963583778579285,0.013550848799061106,-0.002243626773054344,-0.002243626773054344
703,7.03,-0.12257737492671628,0.10254004746896982,-0.08620810109845078,0.01501649833641211,-0.0016950944426864572,-0.0016950944426864572
704,7.04,0.11789571003740454,0.08430967157008917,-0.17127189020674294,0.006860657365694072,-0.0010503469979865091,-0.0010503469979865091
705,7.05,0.013500089821218232,0.1224295680282072,-0.2185933805309425,0.0006875703548784111,0.0018638002161271614,0.0018638002161271614
706,7.06,-0.11314989539348642,0.08713095111942586,-0.24188486055339248,-0.0012502480957976515,0.0009711478323253084,0.0009711478323253084
707,7.07,-0.0059877971080606815,-0.037345523302933406,-0.23834439780489586,0.005231525113379695,0.0017106580458527078,0.0017106580458527078
708,7.08,-0.03425392695523708,-0.0675198217306487,-0.20217430237154868,0.008110786274273026,-0.0011753678350834547,-0.0011753678350834547
709,7.09,-0.20038023722709208,0.06873055062950607,0.011356245881774765,0.0012554181851042552,0.00045910289087986193,0.00045910289087986193
710,7.1,-0.04773914315210029,0.21097663239881326,0.18451520715180234,-0.0019142296946935745,-0.0023972363195702033,-0.0023972363195702033
711,7.11,0.3414436152470493,0.19546420797408054,0.07164893293520957,-0.0029154180830421182,-0.004882969384184717,-0.004882969384184717
712,7.12,0.16674561635439977,0.11147745796233025,0.05407801110104214,-0.0005035973901925182,-0.00530657546080817,-0.00530657546080817
713,7.13,-0.35461512348653884,0.06783438684125052,0.0005778764177909665,0.0007757631515937772,-0.005499148146300991,-0.005499148146300991
714,7.14,-0.4325615321117563,0.17408971444068688,0.035260192837642604,-0.003654361785031446,-0.005734909116876583,-0.005734909116876583
715,7.15,0.101701235277396,0.3384248479250066,0.028954685629091145,-0.002395876545354477,-0.007961532618835577,-0.007961532618835577
716,7.16,0.3432102798945928,0.3318033000389467,0.05774276293651559,-0.0019851727895755732,-0.00757435950180876,-0.00757435950180876
717,7.17,0.04175609021547686,0.00822797431181492,0.18298466754790982,-0.002379439520807569,-0.0090174543634583,-0.0090174543634583
718,7.18,-0.13513635787773615,-0.22714676796462047,0.1315945399958195,-0.01040959755106813,-0.010264957577195236,-0.010264957577195236
719,7.19,0.17495627778295825,-0.013162507714226501,-0.0289383552227985,-0.015864565758381882,-0.008142694297100288,-0.008142694297100288
720,7.2,0.282469467271481,0.31067487950826467,-0.13350084409517526,-0.007483899484030294,-0.009482222965322844,-0.009482222965322844
721,7.21,-0.15194248929234483,0.28963971805155075,-0.03548637597446255,0.0024553785420061702,-0.011605234121023949,-0.011605234121023949
722,7.22,-0.3715117057491987,-0.010944318143550777,0.0529405258326516,0.0019343924761093816,-0.01051910223432894,-0.01051910223432894
723,7.23,0.09783046537871179,-0.05542233340270873,-0.07757578589839596,-0.008900316242475542,-0.012364837152326695,-0.012364837152326695
724,7.24,0.3981586002545246,0.13795128040830013,-0.16905909339071531,-0.019372868404349285,-0.01207496361020335,-0.01207496361020335
725,7.25,0.05736401979367026,0.08297105067412498,-0.03253265006213096,-0.017058435610903148,-0.014075788139297182,-0.014075788139297182
726,7.26,-0.21627467869730388,-0.21980354705253177,0.22149833148228265,-0.013155875169137148,-0.01583063771046005,-0.01583063771046005
727,7.27,0.03298554219493845,-0.3407024395818277,0.28825167704826565,-0.009364483764029877,-0.01329397037812001,-0.01329397037812001
728,7.28,0.2513978027472903,-0.05242156111309451,0.1466737433227623,-0.009733203875232148,-0.011099608434597476,-0.011099608434597476
729,7.29,-0.023073587047834673,0.2264071815642416,0.03602665672424597,-0.00732849679435799,-0.011343365003621113,-0.011343365003621113
730,7.3,-0.17840864387128655,0.1511075462242232,-0.022404032536545423,-0.00537368885495229,-0.009981820490177824,-0.009981820490177824
731,7.31,0.08122022555290528,-0.16590985800910135,0.0026053069268407447,-0.007349907280930635,-0.0114899336477997,-0.0114899336477997
732,7.32,0.2391454622334772,-0.28238329369468473,-0.00535111473193433,-0.014079344998955945,-0.01034727219304373,-0.01034727219304373
733,7.33,0.04341260914094068,-0.1597716429794252,0.054303241865690875,-0.012864108435477813,-0.009382358638780534,-0.009382358638780534
734,7.34,-0.08900696807118463,-0.058897400571121014,0.06330750019404446,-0.006209342071642453,-0.01111577560521093,-0.01111577560521093
735,7.35,0.04917600522755854,0.0159402691500289,0.10728798753391787,-0.001628344402441782,-0.012603793435307296,-0.012603793435307296
736,7.36,0.15188447900707627,0.0911529971201786,0.14973720331272872,0.0002511607069000189,-0.010345843514057469,-0.010345843514057469
737,7.37,0.12251396907795914,-0.011493887552766091,0.170456400722121,-0.0024779139619850203,-0.009629820892512535,-0.009629820892512535
738,7.38,0.15699165253118497,-0.27130822660437137,0.08364783961015533,-0.01472832912157796,-0.012039269886952331,-0.012039269886952331
739,7.39,0.14704017656329577,-0.3926757844384995,-0.017854935709645414,-0.02548253680148909,-0.011626502568006828,-0.011626502568006828
740,7.4,0.026879135923465226,-0.3071883305746445,-0.05847402447018811,-0.026934565233034925,-0.00877138959602062,-0.00877138959602062
741,7.41,-0.10922886692063866,-0.08321788410550533,-0.014119719221342832,-0.015607485174152138,-0.009319672265004502,-0.009319672265004502
742,7.42,-0.08346266063058254,0.0424824136483653,-0.019339570340367863,-0.002232363409657781,-0.009914227465542243,-0.009914227465542243
743,7.43,-0.0319490244849164,-0.03229100067551001,-0.05606900003869848,-0.0006696913585861371,-0.008779639445760086,-0.008779639445760086
744,7.44,-0.08138454084551697,-0.16599141521669739,-0.06805264001371784,-0.0137477371575588,-0.006254030114266656,-0.006254030114266656
745,7.45,-0.09410424297642601,-0.032078368271566085,-0.10549407522248132,-0.029206642126576636,-0.00697300163250765,-0.00697300163250765
746,7.46,-0.09832783852927059,0.2806624027804366,-0.07296411692360502,-0.025658677814445592,-0.0056615176250705565,-0.0056615176250705565
747,7.47,-0.15717125582740643,0.21390392475756753,-0.038341789292329,-0.00930756575498632,-0.0048036157576810574,-0.0048036157576810574
748,7.48,-0.08335194309454302,-0.19972141482237174,-0.03647730724931741,0.0007317412576076003,-0.004500421317153089,-0.004500421317153089
749,7.49,0.07528130201797076,-0.34601991941565813,-0.08127271727385921,-0.005984467334368152,-0.004464008275144128,-0.004464008275144128
750,7.5,-0.027667741219566264,0.08017796741178614,-0.05453257580012354,-0.022982128665105888,-0.0032381012421958235,-0.0032381012421958235
751,7.51,-0.25816233484821105,0.5548946062237946,0.06761618071218777,-0.02513335803571141,-0.0025562781956605337,-0.0025562781956605337
752,7.52,-0.17145591943064453,0.38938142739624376,0.04243194853919434,-0.010982041766159164,-0.0015430525977458572,-0.0015430525977458572
753,7.53,0.1207905688377704,-0.23725969159726962,-0.166599953053848,-0.002860977312813295,0.001916542752108913,0.001916542752108913
754,7.54,0.014737579033811288,-0.3940926997027376,-0.2736567453537503,-0.010510344781468384,0.0039835349610685715,0.0039835349610685715
755,7.55,-0.32739826459948035,0.166545840739356,-0.18617023723060178,-0.02203931010015854,-0.0005219565140434047,-0.0005219565140434047
756,7.56,-0.19659815293044225,0.6815629647928627,-0.02613121602800511,-0.019752694017430586,-0.0017608340462226934,-0.0017608340462226934
757,7.57,0.24769152844470305,0.4031747931807559,-0.01934664104907278,-0.005924189521891648,0.0018555097810433504,0.0018555097810433504
758,7.58,0.2657014488748636,-0.24035348211180607,-0.09069124797250708,-0.004689200346325323,0.0007776160218849063,0.0007776160218849063
759,7.59,-0.10303240905744254,-0.3200299555993917,-0.16408271661377238,-0.019548237323719127,0.0031249045780355677,0.0031249045780355677
760,7.6,-0.24914379211570867,0.16142638880858964,-0.13022960211743198,-0.030697993789794507,0.0007099559428938129,0.0007099559428938129
761,7.61,0.027050331753235055,0.4332998588637864,-0.043272173187756585,-0.024359290738904627,-0.00044226136434861394,-0.00044226136434861394
762,7.62,0.23970915118372232,0.235865772116597,0.12106014298746624,-0.0064803140874389745,0.0005424033001301257,0.0005424033001301257
763,7.63,0.10553028286783082,-0.12214142608891071,0.16228065120124846,-0.00381510194329099,-0.0006061701935705419,-0.0006061701935705419
764,7.64,-0.10974756968494115,-0.17207377636038848,0.16111219324854606,-0.015481620339563143,0.0018801340745942835,0.0018801340745942835
765,7.65,-0.08079736845395191,0.04129237191460096,0.03523914405675671,-0.0276414431707081,0.0012598071878329006,0.0012598071878329006
766,7.66,0.14426478585922342,0.2122786688954431,-0.045283989939871205,-0.027771527482741844,0.0010257193807638,0.0010257193807638
767,7.67,0.1089555817245976,0.08497701387299067,-0.03873872837676129,-0.011770009245584523,0.0011626920190071393,0.0011626920190071393
768,7.68,-0.18283001997771753,-0.1738212515648517,0.06131640982301457,0.0017654016002508497,0.0005933491520084753,0.0005933491520084753
769,7.69,-0.22205564902225522,-0.27371641318282863,0.09834669556772314,-0.0020015469294041065,-2.036383564745192e-05,-2.036383564745192e-05
770,7.7,0.12726413722375943,-0.11180370175137935,0.03154150025151385,-0.014880959600417031,0.00110590099461482,0.00110590099461482
771,7.71,0.2774611671519571,0.07433623094264867,0.0037221864528840937,-0.019114347673607285,-0.0009526991312345076,-0.0009526991312345076
772,7.72,-0.08976120051369103,0.02669247039416539,0.04722214656308273,-0.01154837195597529,0.0007550613379716561,0.0007550613379716561
773,7.73,-0.19690800410714726,-0.17709102392645043,0.016156965323380047,-0.0020215222384425344,0.0008249986673458107,0.0008249986673458107
774,7.74,0.07852152582712463,-0.25007883989087276,0.03547648608540713,0.0022145961978308594,-0.0016814757887765911,-0.0016814757887765911
775,7.75,0.2986803807552666,-0.06887352539977971,0.002793762989263787,-0.0009219557968834555,-0.0011972309090443414,-0.0011972309090443414
776,7.76,0.02940839372760529,0.07477409778207439,0.229455664388728,-0.007467039135369733,0.00047776699314017374,0.00047776699314017374
777,7.77,-0.11606001288735332,-0.005531287357983354,0.1856791919131694,-0.007936005648481077,0.0010129814686916734,0.0010129814686916734
778,7.78,0.09835408498401783,-0.1597105770202199,0.02520063723008341,-0.007907362348789,0.0015625078086313074,0.0015625078086313074
779,7.79,0.18995002029463445,-0.15184129245504394,-0.17339362211602033,-0.008683865044455846,0.0016934171585035167,0.0016934171585035167
780,7.8,-0.04167205099342476,-0.12167580148334978,-0.058142970856462584,-0.005141454893802249,0.0007773316901058053,0.0007773316901058053
781,7.81,-0.04715833694126871,-0.12356751380276922,0.10231620076869773,-0.010828577218276306,0.0015209878546834706,0.0015209878546834706
782,7.82,0.1611790917317411,-0.1265015727805585,0.1944855574005119,-0.01922685505793533,0.0021696017363298306,0.0021696017363298306
783,7.83,0.1481600663680062,-0.017494549839806153,0.08025125846412322,-0.0227109365859224,0.004984687984971422,0.004984687984971422
784,7.84,-0.1296780456929344,0.04580150298070204,0.016619176970414068,-0.020741229870194944,0.005844772744581768,0.005844772744581768
785,7.85,-0.07444749023968798,-0.09635517509260959,-0.07828067522406446,-0.018806051399907292,0.006740674870272125,0.006740674870272125
786,7.86,0.11368011631223449,-0.1584797287894451,-0.047713040980750174,-0.01906141664113968,0.006554144523822332,0.006554144523822332
787,7.87,0.03133244246660413,0.039304812330267724,-0.0005591046467448291,-0.02089329691160811,0.009717658103776686,0.009717658103776686
788,7.88,-0.11142648131590638,0.3605566277573319,0.06324855050454856,-0.020387245347387298,0.012467685685770042,0.012467685685770042
789,7.89,-0.0044273774731225825,0.27849165989476066,-0.016077333158766235,-0.019820323336091187,0.012182077739454166,0.012182077739454166
790,7.9,0.15975602189748883,-0.0834041527070147,-0.0747969745449138,-0.02283322203008913,0.0095203657797468,0.0095203657797468
791,7.91,-0.01120094234745253,-0.21370284645308443,0.026439454687012563,-0.030678029701936463,0.007606879850800972,0.007606879850800972
792,7.92,-0.09693236814731676,0.1211462768825897,0.0719705982355773,-0.034374749911131486,0.008492163901777755,0.008492163901777755
793,7.93,0.04174159710381982,0.46016024686899815,0.04295341362467767,-0.02795325363342873,0.009383487378042643,0.009383487378042643
794,7.94,0.10988328087145617,0.3555354090070709,-0.0649105909667125,-0.014458496448217853,0.00950147384191952,0.00950147384191952
795,7.95,-0.057946189404449955,-0.055699179019574316,-0.05825143787072394,-0.016091047129325596,0.008799794363107145,0.008799794363107145
796,7.96,-0.10935034681771359,-0.2827997003066868,0.02794424205704496,-0.03215508635970092,0.008835175322240901,0.008835175322240901
797,7.97,0.04955001415995633,-0.08314230353622049,-0.033543841456572354,-0.04872182885721624,0.009732588490414515,0.009732588490414515
798,7.98,0.08350708010792807,0.218591761493527,-0.02753464754719469,-0.045627778745648134,0.010080891175623686,0.010080891175623686
799,7.99,-0.11897597696030032,0.2413286989026916,-0.038567286580215215,-0.026090904473152796,0.007826618943384892,0.007826618943384892
800,8.0,-0.1449988349271017,-0.07646363672722548,0.03647156950372695,-0.013477044808815536,0.007518661833424796,0.007518661833424796
801,8.01,0.0512556105724814,-0.23536280418189576,0.014335431723000641,-0.024366908892162663,0.004340247159380706,0.004340247159380706
802,8.02,0.019741590773502196,0.014010007318509494,-0.02680997745332435,-0.03967030114172156,0.0059781129056213815,0.0059781129056213815
803,8.03,-0.19087873503648958,0.2552676923711657,-0.057051184803772165,-0.04323482518009887,0.0058031321343133034,0.0058031321343133034
804,8.04,-0.12594823257434914,0.08936325078968813,-0.14428825961942582,-0.0356550758847325,0.0032644812596360233,0.0032644812596360233
805,8.05,0.07941630389411913,-0.2517735638375431,-0.14914381480689765,-0.02487807707328189,0.003714915094140889,0.003714915094140889
806,8.06,-0.07380911089069972,-0.12290514245947087,-0.05957408125429315,-0.020869750281404902,0.002721976873347096,0.002721976873347096
807,8.07,-0.2772283287538943,0.3166695556234692,-0.028957249757541832,-0.020005371172930712,-0.000986979532213651,-0.000986979532213651
808,8.08,-0.07911758814365155,0.41327846049490874,-0.17487793309528968,-0.02075161422025068,0.0030900277298752487,0.0030900277298752487
809,8.09,0.07568365820325713,-0.13008214300916163,-0.35492291208533777,-0.022482933163546284,0.002435961048223004,0.002435961048223004
810,8.1,-0.18540856691487448,-0.6527591474421732,-0.16461562434028446,-0.030239046467254126,0.0005519369819800592,0.0005519369819800592
811,8.11,-0.25548027393734785,-0.4554923465846615,0.04874450201242431,-0.03204744803411263,-0.0044428944766677185,-0.0044428944766677185
812,8.12,0.15113492267677867,0.1560761514838681,0.15701103991470106,-0.020403077319194152,-0.002835064965518678,-0.002835064965518678
813,8.13,0.30688178444716036,0.2922344848544318,0.1268554483015905,-1.1479552143450755e-06,-0.002815573528605077,-0.002815573528605077
814,8.14,-0.051061349751520546,-0.19710349999628068,0.05992297329884402,0.006722309985419654,-0.002696660438073997,-0.002696660438073997
815,8.15,-0.2725206341283301,-0.36049988569420555,0.0462868223028539,-0.010880980416434795,-0.00522657701726314,-0.00522657701726314
816,8.16,0.08644837504007158,0.04550314327630507,-0.08516923000818949,-0.025425861066313324,-0.0073755532545870155,-0.0073755532545870155
817,8.17,0.21676084223160863,0.3984846076846706,-0.0036903736806431636,-0.01887076744807521,-0.006275718921994264,-0.006275718921994264
818,8.18,-0.12087311206534114,0.10098325167891287,0.17330429856260102,0.0014769891190602109,-0.003605042739874644,-0.003605042739874644
819,8.19,-0.09506116363126413,-0.4730110160342199,0.158735186206611,0.012084806523042444,-0.0050407056877928725,-0.0050407056877928725
820,8.2,0.2878057771459983,-0.43821667710533185,0.05008361893265925,0.0011121787136064813,-0.004061792385271835,-0.004061792385271835
821,8.21,0.25753837791380535,0.15918592242973198,-0.05082169548284665,-0.01035527953508646,-0.00784373587043173,-0.00784373587043173
822,8.22,-0.16537090412476005,0.40866944278579764,0.08639341227281244,-0.004448789927767517,-0.006274182439209755,-0.006274182439209755
823,8.23,-0.10443295896991994,-0.09096767588721393,0.13026731636535632,0.005404865054392445,-0.007464028183328033,-0.007464028183328033
824,8.24,0.27146661024186325,-0.4428383942704598,0.016404489651171115,0.006915670717219278,-0.007559952533987217,-0.007559952533987217
825,8.25,0.19881094727285148,-0.05913712946212715,0.029547101017615478,0.0031613483991579875,-0.007557360224265368,-0.007557360224265368
826,8.26,-0.1764443120437728,0.5003800688410835,0.1234683649185446,0.00522646788508753,-0.00687128035036694,-0.00687128035036694
827,8.27,-0.05462998306374783,0.4460133069757388,0.1403333279783881,0.011627116600935695,-0.0050109166480101115,-0.0050109166480101115
828,8.28,0.35807020961288616,-0.017857606732019082,-0.04511716415550637,0.011299086575953096,-0.00438578973339409,-0.00438578973339409
829,8.29,0.23404447738504963,-0.19777287431868848,-0.12758053563113658,0.002545774567837675,-0.00334449813082322,-0.00334449813082322
830,8.3,-0.19106861141529954,0.024320512240916414,-0.04574903406825611,-0.006155508144581554,-0.004719927850809345,-0.004719927850809345
831,8.31,-0.13979602245031977,0.19808020386494823,0.021982338568613327,-0.003380335043042891,-0.00587676167226429,-0.00587676167226429
832,8.32,0.26144082144366265,0.04227532187870177,0.009197621170106918,0.008301919406262358,-0.006803088745630449,-0.006803088745630449
833,8.33,0.2667856383732443,-0.15996827259612512,-0.05309415554624414,0.010272997788402427,-0.004422614308805129,-0.004422614308805129
834,8.34,-0.11594715265587559,-0.08953227729769997,-0.01584963789868227,0.002648383553735125,-0.004422244005630977,-0.004422244005630977
835,8.35,-0.19597714381859396,0.12953733591989738,0.04855423503449322,-0.004543391645654093,-0.005241132954711964,-0.005241132954711964
836,8.36,0.14752015391204298,0.20038299117100777,0.043217598704376206,-0.0054176147413989755,-0.005715241030944934,-0.005715241030944934
837,8.37,0.21080583444233933,0.11666360019644742,0.06268793362678851,0.006295489136884688,-0.0027714809014056587,-0.0027714809014056587
838,8.38,-0.14538342628420448,0.0337112832167652,0.037180274028932335,0.00934952814000622,0.0007492340122981052,0.0007492340122981052
839,8.39,-0.23243596444460643,0.06516988363095884,0.030903887328296277,0.0072936457411442515,-0.000965289916481132,-0.000965289916481132
840,8.4,0.002117920253605514,0.19515897664190857,0.028320039792353334,0.0035608028882008623,-0.0037558529738182397,-0.0037558529738182397
841,8.41,0.07737392251306474,0.28607003546249976,0.06525425767562265,-0.0016025240151108981,-0.001758838905711772,-0.001758838905711772
842,8.42,-0.11196474749189965,0.19147931520830766,0.1002827142137447,-2.7709225872972133e-05,-0.0026984182109195754,-0.0026984182109195754
843,8.43,-0.1290020844108664,-0.1566497637616826,-0.01998328126358171,-0.00026101807460214257,-0.002126232227780727,-0.002126232227780727
844,8.44,-0.010590055145904186,-0.3167335139659682,-0.10746262933149084,-0.007014940798150385,-0.001769746885524155,-0.001769746885524155
845,8.45,-0.05051295165941313,-0.19109863406888808,-0.08479753241908192,-0.012099591758742038,-0.0022653351805172004,-0.0022653351805172004
846,8.46,-0.15701915090729435,0.06049875920401035,-0.04459793960140533,-0.012739208258744026,-0.0026707419735250877,-0.0026707419735250877
847,8.47,-0.1319387474327679,0.12073046292695788,-0.02864801773861407,-0.005751972568370861,-0.0005474723169800981,-0.0005474723169800981
848,8.48,-0.013339257565232888,-0.07595945324827241,-0.17662947552565444,-0.002646641949231488,0.0010827292398168915,0.0010827292398168915
849,8.49,-0.07495758115274954,-0.23667110333899816,-0.13639462185906162,-0.011908768756060664,-0.0005811130574384074,-0.0005811130574384074
850,8.5,-0.1480158422664994,-0.11550515592655716,-0.028319978292087933,-0.02130491773099045,-0.0005615007053716525,-0.0005615007053716525
851,8.51,0.009941625850568625,-0.01542503708839077,0.0036974164382300306,-0.022415727320550458,-0.0015527436532023105,-0.0015527436532023105
852,8.52,0.15426515271882923,-0.15807516591051668,0.06379282287390899,-0.018560772598820684,-0.003114902395118601,-0.003114902395118601
853,8.53,-0.00951722466392639,-0.25274493592773734,0.04791826642518004,-0.012217575130745088,-0.001824353149480468,-0.001824353149480468
854,8.54,-0.0966433079857524,-0.19325267413343195,0.043996962900113006,-0.011675365879954241,-0.002197483914538016,-0.002197483914538016
855,8.55,0.061207974943156496,0.0057444897871712225,0.013056123997425784,-0.014209813915082924,-0.004479560557923923,-0.004479560557923923
856,8.56,0.09629254917437093,0.07937775230958045,-0.04535646863958516,-0.016036000256291788,-0.0047193563245167,-0.0047193563245167
857,8.57,-0.12855031743963494,-0.023301224951339128,-0.07349003723290415,-0.014428215034538384,-0.00021855795281913466,-0.00021855795281913466
858,8.58,-0.28976318159795333,-0.06820140687635318,-0.09115821391748039,-0.012094197545975354,-0.0010428843861811383,-0.0010428843861811383
859,8.59,-0.053140152245404526,0.03258120518758337,-0.182998497872004,-0.013701618981598943,-0.0050017388747626325,-0.0050017388747626325
860,8.6,0.14843306769087175,0.06298731000349729,-0.04555931963387942,-0.015895919249328976,-0.005490560548061663,-0.005490560548061663
861,8.61,0.0966686872784521,-0.1212343010845728,0.08980637913179103,-0.021811952324882374,-0.007601107106560245,-0.007601107106560245
862,8.62,-0.00618222229898846,-0.2882960019280821,0.18262645053686463,-0.026088509656814,-0.0065782274467444755,-0.0065782274467444755
863,8.63,0.011598109483290504,-0.2684232442780111,-0.008909772596281687,-0.030045617978552538,-0.006435807810387952,-0.006435807810387952
864,8.64,0.07637895449048747,-0.03260171001323586,-0.18513481643675248,-0.027857718094328517,-0.004261702209709071,-0.004261702209709071
865,8.65,0.04815923174549309,0.10429602132418282,-0.15292344765879132,-0.019579091517186103,-0.005137073106106605,-0.005137073106106605
866,8.66,-0.00794887035289625,0.07180149425970608,0.050196105579839514,-0.01840407987360036,-0.008365483537595399,-0.008365483537595399
867,8.67,0.0041967802842315105,0.0012306517113710586,0.2307585113672121,-0.02191181655777324,-0.006961781233544582,-0.006961781233544582
868,8.68,0.15383602862722068,0.12667313832447663,0.11370378191135933,-0.032890131921165806,-0.004115377921038024,-0.004115377921038024
869,8.69,0.16271534548834687,0.25300158388124144,-0.13096691435977043,-0.03481037117634782,-0.00442987170045149,-0.00442987170045149
870,8.7,-0.018103192285725878,0.10436184509120966,-0.2051889207637161,-0.02713157008493207,-0.0054662935326098465,-0.0054662935326098465
871,8.71,-0.1413732216784862,-0.15219531736475223,-0.05149402894577927,-0.02093360950660067,-0.006805382660792645,-0.006805382660792645
872,8.72,0.057232370854282864,-0.10126179852841573,0.14992781128229427,-0.021573766187280515,-0.007575770344951337,-0.007575770344951337
873,8.73,0.28224792847791913,0.3448899926872714,0.1467214030421617,-0.02157242410320991,-0.005332489456314579,-0.005332489456314579
874,8.74,0.12542225271077806,0.5983941835804528,0.043092241071789286,-0.016710708042097157,-0.0017157518297787394,-0.0017157518297787394
875,8.75,-0.20815638831486488,0.2486118365702284,0.004585306755632797,-0.0123969127077775,-0.0011975957651585824,-0.0011975957651585824
876,8.76,-0.15669926001501522,-0.30821775517363625,0.0542010914459809,-0.01987657686781779,-0.0024927802461110265,-0.0024927802461110265
877,8.77,0.16986391128994388,-0.2670323798859367,0.010257634524818378,-0.02987248385397248,-0.004414236779900572,-0.004414236779900572
878,8.78,0.1961386714036157,0.2099806046286839,-0.014404696830242626,-0.027918267751445104,-0.0006666431143777482,-0.0006666431143777482
879,8.79,-0.08815835719110986,0.3572105802350303,0.04689202876437133,-0.013499320753136326,-0.003205773216789866,-0.003205773216789866
880,8.8,-0.18484120918804925,0.0012261097990517028,0.09549685579111865,-0.0031225515052369004,-0.00344850478138214,-0.00344850478138214
881,8.81,0.052936821596801284,-0.23737892286519396,0.13642941150214577,-0.011909677423848264,-0.00046303738377331084,-0.00046303738377331084
882,8.82,0.24544792616969952,-0.035773666911790174,0.05112255844405322,-0.02575451292420269,0.0002211872103629978,0.0002211872103629978
883,8.83,0.0869873130507457,0.2330191316276555,0.059038822709400085,-0.025770642058020272,-0.0017404125521569913,-0.0017404125521569913
884,8.84,-0.15905383133978845,0.15695795355923647,0.06712167344238465,-0.014253313160784991,-0.00230566017197267,-0.00230566017197267
