,ts,ax,ay,az,wx,wy,wz
0,0.0,-0.6863538110193386,-0.05099612332151459,-6.523810017326937,0.04268365741645681,-0.058545757489446314,0.315668863381579
1,0.01,-0.13864599260978183,-0.010274892805547678,-1.2833800107458977,0.04345456233392371,-0.05599678945192864,0.31302222699816445
2,0.02,0.18837571115311252,0.014186520033501623,1.838117312270446,0.040614202164322495,-0.052782514513777135,0.30770572870679197
3,0.03,0.35574166808836916,0.026670753685488272,3.406255241924957,0.037942888729370336,-0.049488615164757374,0.3039180944337868
4,0.04,0.40909557457409607,0.030606787304390228,3.876503909046918,0.035441503363557086,-0.04611467627860452,0.3016672949961686
5,0.05,0.38318951487596375,0.02889531670715628,3.610698727633558,0.03219496786679053,-0.042495753340084486,0.3014377588440069
6,0.06,0.3084475174252075,0.02343562141898855,2.891032408934865,0.028566275192424623,-0.03875118805095558,0.30224484637379645
7,0.07,0.2078442121691444,0.016281223779975117,1.9332960091103928,0.02657989380866093,-0.03458504334055392,0.3005432429245617
8,0.08,0.09850876638793479,0.008530850002700093,0.8980001314802815,0.026513698510872485,-0.029925989068186932,0.2959084845128669
9,0.09,-0.0064026171930677,-0.000248088714946134,-0.1003215251576628,0.027330727824873457,-0.02739182052620569,0.2945947902764567
10,0.1,-0.09913667233903126,-0.008675722588931907,-0.9836417930287196,0.029126697004819395,-0.027212812069537105,0.2969620647032281
11,0.11,-0.17615220400976675,-0.01503951469350938,-1.7035880204412006,0.030222979279837855,-0.02934551336144355,0.2943415069633831
12,0.12,-0.23377111696543335,-0.01947206975351856,-2.2354227897811394,0.030998401632293313,-0.03253831025567203,0.2894336469581003
13,0.13,-0.2701013888954533,-0.022225706567869107,-2.572841542588848,0.032884171882550106,-0.027886076930603645,0.28374555554176184
14,0.14,-0.286633538629518,-0.02328589008974312,-2.7223753259473567,0.03538053022043852,-0.01891980652895973,0.2776284094065105
15,0.15,-0.2861263332707265,-0.02310322386991782,-2.700592705730062,0.03770354520126338,-0.014441183800735159,0.2696088330226198
16,0.16,-0.26874566598908806,-0.021573944252212165,-2.5296611070670574,0.03948948343511415,-0.011326905807749369,0.2660387563245776
17,0.17,-0.23809232613641873,-0.018716393853121988,-2.236708574750267,0.04099768799446047,-0.007595632108991573,0.26586053033487866
18,0.18,-0.19805273589644024,-0.014930405839811714,-1.8506494768669128,0.04302210183790503,-0.002535898741736512,0.2631278439898179
19,0.19,-0.15134517558734656,-0.010583985710649555,-1.3998746146039875,0.04556791299845383,0.003865645647468047,0.2578150243209997
20,0.2,-0.0997572572145519,-0.006351806388863925,-0.9113021919832403,0.047262805238718286,0.014201730900312803,0.2544099520721793
21,0.21,-0.04647035696658035,-0.002225097500528142,-0.4102221050089292,0.04807346362544093,0.0286264010310349,0.252987318822606
22,0.22,0.003652870414396256,0.0024960012723713324,0.08058342777266447,0.048461496502222236,0.03418672986952796,0.2530427550231179
23,0.23,0.05068581424812889,0.00696888437506728,0.5422330685723757,0.04865401022031633,0.035646150194444816,0.253781990210118
24,0.24,0.09786440904148815,0.010553711849968155,0.9596107534294147,0.04533505593959486,0.04836572107726644,0.2617369551038989
25,0.25,0.13894251295617183,0.01341420960132151,1.3200902763600122,0.04003231457347053,0.0674466602721438,0.2737684120542492
26,0.26,0.16699880902585973,0.01591841072787429,1.6139189398122316,0.03939586822869347,0.07442378927313194,0.2809817065375004
27,0.27,0.18714882998495747,0.017639254620626064,1.8367795605222792,0.04091918745552885,0.07579874515336736,0.28596494454826743
28,0.28,0.20403960028838902,0.01809615998721465,1.9861246128468317,0.04019027127976022,0.07898702008002315,0.2924828828942542
29,0.29,0.21407470765310171,0.01784066913593485,2.062693134253874,0.038419885618318286,0.0830138025856174,0.2997104910939942
30,0.3,0.21613422651082503,0.017537748876974575,2.0688295526215317,0.036448389449915054,0.08632421450080753,0.30085870110749063
31,0.31,0.2108349632810816,0.016688630629917524,2.00921826705592,0.03437356765925529,0.08926657286107308,0.29888346615518163
32,0.32,0.1982082560116551,0.015188941792612034,1.8902619313113647,0.030306319256512813,0.08720614168458192,0.29812233692008944
33,0.33,0.18028964218730478,0.013110497807324602,1.718849233812144,0.02527931697676917,0.08273586182176751,0.29794604361427146
34,0.34,0.1591826890772408,0.01085157118940522,1.5031975681672822,0.018682505642069254,0.08028998585955133,0.29740681159363835
35,0.35,0.13502664170907372,0.008381933708833115,1.2521585958550778,0.01051211318419932,0.0798733782045828,0.2965037687587552
36,0.36,0.1061111171821389,0.005767448831138382,0.9749652730173225,0.008254700879589755,0.07647707195542586,0.2908771464708461
37,0.37,0.07548253766499936,0.0028729550997534502,0.6807832376206685,0.008874229862570677,0.0716310030336394,0.2829522819427477
38,0.38,0.046528298268231,0.0002664415014432143,0.3779005532216895,0.008346872481887428,0.07044124721146681,0.2743392621796497
39,0.39,0.01772093298206895,-0.002427258316121535,0.07595850749276217,0.007179138937730792,0.0712930325823621,0.2653420036434486
40,0.4,-0.013383001138454031,-0.005201910964504764,-0.21587596810440657,0.003821032780633061,0.07477793710476703,0.253753647682617
41,0.41,-0.04318845562996324,-0.00792430893582616,-0.4915079742910527,-0.0005452589015800795,0.07947481469457239,0.2409726604305419
42,0.42,-0.06911853210006336,-0.010185080661935724,-0.7448318635718293,-0.004124942596420353,0.08525753834254267,0.2312104166458141
43,0.43,-0.09167974422781168,-0.01196920757795602,-0.9707078942349009,-0.006903730772331033,0.09214583078232766,0.22452174718858744
44,0.44,-0.11106969915994716,-0.013587748977078087,-1.1649687310097054,-0.0074532571770496514,0.09996016534589278,0.21786775417341445
45,0.45,-0.12739094488723046,-0.014800726696369587,-1.3244090176662824,-0.00572484403635689,0.10872076292878352,0.21124919478908252
46,0.46,-0.14078783808814638,-0.015327195576692609,-1.4471235925848194,-0.0033257556133657047,0.1157573125599105,0.20592822030064115
47,0.47,-0.1510597588678558,-0.015232457926277296,-1.531701892071026,-0.00023804923737009032,0.1210236905405236,0.201939545180376
48,0.48,-0.15941137901853505,-0.01488709880941624,-1.5778669390403366,0.0039592268759333,0.11546492641074922,0.1935958790295366
49,0.49,-0.16466075927158969,-0.014148293560506236,-1.58615510946132,0.009272303763978204,0.0990202291599394,0.18087276542035413
50,0.5,-0.16808243473697415,-0.013742928164212947,-1.558317201074955,0.013138389287223672,0.08694586581425245,0.17377096141368029
51,0.51,-0.16665314929702868,-0.012643509806565296,-1.4961712954111177,0.016188066574456074,0.07733729230053457,0.1698407613075615
52,0.52,-0.15782961721083724,-0.010312821043350327,-1.402559546146521,0.019429791703860125,0.06614214535746295,0.1691051551449009
53,0.53,-0.14447993050367527,-0.007324194582609199,-1.2808644222674401,0.022769527656206028,0.05413729721853172,0.16999989680506838
54,0.54,-0.12987072133347133,-0.0041422334680320805,-1.1354211909789873,0.02560167916822857,0.04169306201365092,0.16455164341730594
55,0.55,-0.11287462006585819,-0.0010062086144152459,-0.9700218450331919,0.028153485222525167,0.029006147643813776,0.15560007174631862
56,0.56,-0.09390613326752092,0.0014796548772852327,-0.7885671162502135,0.028844755276548176,0.023215550786027574,0.15437437623558914
57,0.57,-0.07304756425416914,0.0037167843997637116,-0.5961980572209591,0.028560378403598437,0.021041315550414438,0.15720005480889726
58,0.58,-0.050696252495028925,0.005885284465904457,-0.3977695594011897,0.0282760015306487,0.01886708031480129,0.16002573338220538
59,0.59,-0.02789439626542997,0.007770889870104011,-0.19766073685740282,0.027991624657698968,0.01669284507918815,0.1628514119555135
60,0.6,-0.00486245174849724,0.007666865625516569,-0.001326320879503462,0.03692443895331218,0.00845700136721817,0.162234797299156
61,0.61,0.0163634516086045,0.00801601164399805,0.19022609317466233,0.045563668551172436,0.0063340233714733974,0.16252584383601842
62,0.62,0.03582459824197095,0.008697970653342485,0.37241683168019546,0.053612704290752926,0.009307382396378764,0.16367199595601736
63,0.63,0.05358816555965845,0.008847587520901007,0.541128943421489,0.059454589963069786,0.0102030362821496,0.16946290352912485
64,0.64,0.06951649234676728,0.009119197935447453,0.693443705499887,0.06420247394186113,0.010068849481248018,0.17755604256672558
65,0.65,0.08378739038797196,0.010271588244238294,0.827207377687955,0.06251122106455828,0.012623997648816172,0.17842916050227112
66,0.66,0.09576745824445147,0.011175147468583047,0.9404112196413379,0.05769129396445776,0.016485850919935003,0.1757941849751539
67,0.67,0.10517881533247563,0.011032786347552481,1.0317744439342222,0.056523161783204025,0.01845008113039381,0.1736008589836655
68,0.68,0.11206730837590566,0.010218942067807706,1.1003925306499605,0.057685860696941614,0.019203115494795687,0.1716894246354946
69,0.69,0.11675318188121796,0.009214922913570726,1.1458428877728621,0.05561361067229508,0.02350772965093376,0.1699010715262005
70,0.7,0.1190336693577606,0.007839882885468559,1.16825214591784,0.05198023999613775,0.029526264077212858,0.16817211492284315
71,0.71,0.11926703539780836,0.006366642572849944,1.1680153306386805,0.048122142309673085,0.034455318464179215,0.16646060588356715
72,0.72,0.11742245895619877,0.004713523400749644,1.1461382956288615,0.04403182366623773,0.03825856204191674,0.16476712623035475
73,0.73,0.11344841884261378,0.0024305222654997715,1.1038224091398192,0.03897801727374477,0.040169764586226266,0.16562086786503805
74,0.74,0.10755044963965449,-8.412561142714155e-05,1.0427395050507644,0.032957635030434404,0.04018286186302629,0.1690299949584116
75,0.75,0.0996702529077056,-0.001895575639046102,0.9648195140388234,0.0266203394754194,0.041664451941586,0.17981807633383548
76,0.76,0.09028536998567951,-0.003563522447533987,0.8721862370258797,0.02011795979985864,0.04391099834653763,0.19444994758241868
77,0.77,0.08019331274474169,-0.004607212955205713,0.7673147641567285,0.011732278644164798,0.04686873388017454,0.2113423430658048
78,0.78,0.06922657314824998,-0.005623602869820142,0.6521126102137604,0.002134908861565291,0.05028403809726302,0.2296891267791421
79,0.79,0.05730361111602076,-0.007055095652695829,0.5287110859681841,-0.007462460921034219,0.0536993423143515,0.24803591049247944
80,0.8,0.04483341569258994,-0.008476449988814673,0.39964668340843906,-0.017059830703633726,0.05711464653143997,0.2663826942058168
81,0.81,0.032145896661547615,-0.00960715496821615,0.267452648896364,-0.026657200486233237,0.06052995074852846,0.2847294779191541
82,0.82,0.02013117948171215,-0.00951066787606798,0.13498726138282807,-0.03697738577902412,0.06599324705614285,0.3049659186880148
83,0.83,0.010384886202027696,-0.006405417324658538,0.005470786774962155,-0.050199707969805066,0.07967932404417365,0.3327894178252405
84,0.84,-0.0007169312425566645,-0.005095540258490358,-0.1215327907228766,-0.059646261783135375,0.0942616195325212,0.3580190501539533
85,0.85,-0.012448152348088725,-0.004826932180880374,-0.24325724093601067,-0.06518801363736093,0.10977076100451612,0.3805661725448144
86,0.86,-0.024752201167581082,-0.005597757716758127,-0.3571963858298585,-0.07072976549158648,0.12527990247651105,0.4031132949356753
87,0.87,-0.03204733979398372,-0.0038719066279076894,-0.46094599919427015,-0.07673033999186495,0.14629069758328864,0.4228756400551192
88,0.88,-0.03845930683950598,-0.0018905104780774233,-0.5533981633748134,-0.08309450203797597,0.17166120065195448,0.4404312276343344
89,0.89,-0.05597062902436678,-0.006218908034614756,-0.6348918942142084,-0.08819571440472354,0.185772719751555,0.442403801889829
90,0.9,-0.07251570671622884,-0.010336603854687992,-0.7027822097083134,-0.09268076667645056,0.19439127523940647,0.43677383177864015
91,0.91,-0.07624684193198447,-0.007675242772615836,-0.7561065599339638,-0.1017281978277833,0.20824700320745487,0.4311544554739956
92,0.92,-0.07685285017785465,-0.003780390093003667,-0.7941467013464621,-0.11294540131628135,0.2245934212896651,0.4255401173630196
93,0.93,-0.07889128257588218,-0.0012986294790242239,-0.8167705662801171,-0.1241626048047794,0.2409398393718753,0.4199257792520436
94,0.94,-0.08024492624409388,0.002208977824313435,-0.8253618942611574,-0.1308404387847531,0.2552119963354231,0.4039190729955197
95,0.95,-0.08109959140178367,0.004881232318232083,-0.8194343065919136,-0.13531767269860476,0.26847859093038384,0.3828743441710353
96,0.96,-0.07952702375695377,0.006113774449471377,-0.7996383938908005,-0.13457701012469803,0.2813959193533809,0.3652569870909435
97,0.97,-0.07718777149556613,0.006562405252411362,-0.7668458085471792,-0.13083578997057296,0.2941124018488556,0.3496105442081706
98,0.98,-0.06886528227209009,0.008839692958731746,-0.7222659420673394,-0.1227361608421374,0.3077891001642046,0.33422659852972203
99,0.99,-0.061333301186484786,0.01058440487753904,-0.667219415084233,-0.11214101872809656,0.3220155933844382,0.3189929520053771
100,1.0,-0.06733637521321345,0.0054467229027808164,-0.6021514357839254,-0.10602340796569022,0.3324387817453061,0.30729028139323283
101,1.01,-0.07618217843295788,-0.0012000789208370995,-0.5294507688589526,-0.10401413613282774,0.33937226468871184,0.29882744198720185
102,1.02,-0.06717236623424619,0.00020916888589457127,-0.45154298685983274,-0.10144893106306588,0.3484183020354252,0.28526130331224897
103,1.03,-0.05316910777248526,0.004320585006186405,-0.3699288098383603,-0.09861629839356334,0.3584805681590851,0.2692402600126727
104,1.04,-0.038860778366966935,0.008056168669889549,-0.28537778281941145,-0.09543484079058684,0.36853988279428346,0.2589286732818221
105,1.05,-0.025798572354947688,0.011176653621840577,-0.19957564320571392,-0.09201197980725358,0.3785971548596328,0.252568300995318
106,1.06,-0.015427472001114736,0.013299777289315747,-0.11403836472183679,-0.08848760780251905,0.3874622905547925,0.2427965826047029
107,1.07,-0.006660433703819099,0.014582549781593533,-0.029889320301277916,-0.08491131419917178,0.3957176636325516,0.2312800039939681
108,1.08,0.0021092284080432163,0.014710553282163545,0.0516023080246128,-0.07957861678295326,0.4043321141659579,0.2216189774141299
109,1.09,0.010109794223588799,0.01410677022940205,0.12968140084872382,-0.07335594105986626,0.4131285109828267,0.21289816802276615
110,1.1,0.017631334383288233,0.011815868880793164,0.20346786618043788,-0.056326615888224824,0.4201557944368448,0.20395895238687647
111,1.11,0.024290796193145704,0.009247713186097925,0.27194503132280506,-0.033536947295975755,0.42624007510646417,0.19490331815337567
112,1.12,0.029910496160772636,0.005705231301430495,0.33364140457939495,-0.013216317106134887,0.4290981995391819,0.18543930891052288
113,1.13,0.03481322828468568,0.002716306813502111,0.38847159571377093,0.00597940912453019,0.4304864740415501,0.1757892423489987
114,1.14,0.046229612922775096,-0.0014298792458176625,0.43550131283310967,0.022488742795259076,0.4277551342730975,0.16592497917119434
115,1.15,0.05490726840863254,-0.00450852457092514,0.47465340900629155,0.037691614448135534,0.4230203197879199,0.15595654665205988
116,1.16,0.04519314478188217,-0.006386715474759545,0.5057604781332974,0.0484403176055825,0.4186578627425279,0.1512518673125229
117,1.17,0.029230726822012866,-0.007596415188885542,0.5281993652621676,0.054727719892106924,0.41466835938582425,0.15181936990066922
118,1.18,0.03320746450363587,-0.008601535088392315,0.5410785288134459,0.060227244744144925,0.4075350548223221,0.15050664364641764
119,1.19,0.04326507696111738,-0.009205548773570875,0.5449480025114094,0.06528474157564841,0.3986379629442344,0.14813904033010278
120,1.2,0.05071916621595858,-0.009320799403209498,0.5402954848658889,0.0703422384071519,0.3897408710661468,0.14577143701378786
121,1.21,0.054660349459132285,-0.010503613779928034,0.5270474904455579,0.07520677739370835,0.3785673517751199,0.14444818191488554
122,1.22,0.056455364084716575,-0.011691831374148181,0.5058608830259713,0.07997580383360317,0.36626701963250935,0.1436418705964964
123,1.23,0.06330285146143803,-0.016610039669226313,0.47778399150190753,0.09397974837096944,0.35536801835826354,0.1440279963285736
124,1.24,0.06679444504630522,-0.020237260473836317,0.4429086480080432,0.1128457342025166,0.34520679607424665,0.145041921692319
125,1.25,0.04742961538243528,-0.016459157426777973,0.4025409142002122,0.12166636405926698,0.3382832693824676,0.1534411749042794
126,1.26,0.028455941394259977,-0.011880626967214088,0.35658699457615145,0.1256986877898148,0.3329030506309931,0.16536078226479833
127,1.27,0.026401903638189565,-0.013017443409418086,0.30676552039963334,0.12431619975187565,0.3225092734054225,0.17842406411591774
128,1.28,0.02910186062238595,-0.015030878443414079,0.25305869439525297,0.11984001976072806,0.30925105579458884,0.1921407715559472
129,1.29,0.02730968592543384,-0.014460003276557188,0.19675038954740404,0.10862239201399583,0.29503579604036945,0.20294398563854674
130,1.3,0.02338482435995211,-0.012806398542775738,0.13853065116161725,0.0934978977666728,0.28026590232246623,0.21205874495437801
131,1.31,0.017659946411759858,-0.009538043281657641,0.07896634708982356,0.07676474948681647,0.2639838258595268,0.21585690860824336
132,1.32,0.011548564497397489,-0.0067119641174987355,0.020032069217579933,0.05917639548680032,0.2468978305257004,0.216828620501857
133,1.33,0.004038848148229933,-0.0047542861210627535,-0.03788287617850624,0.051305445520576434,0.23131414044436385,0.2216975147114572
134,1.34,-0.002927979724967891,-0.003801854054143774,-0.09236308537011842,0.04833852401197205,0.21648861043176806,0.2285331783293961
135,1.35,-0.009929711118410305,-0.0037877738578904543,-0.14266375583159258,0.04747545383947475,0.19984472385319907,0.2339909703650899
136,1.36,-0.015791196021464293,-0.004025673735492676,-0.18768346534879848,0.04767126735207765,0.18228564518460025,0.23875526960803614
137,1.37,-0.02171343872249383,-0.0033143515546790042,-0.22719214172270577,0.0418463475769647,0.17004489332015885,0.2400332040567761
138,1.38,-0.02628939680266868,-0.0023994028602537625,-0.2608359636663567,0.0331659510236442,0.16032648515746808,0.2396576466076887
139,1.39,-0.029734619492983772,-0.0009201991125281726,-0.288880865727229,0.019089903186770743,0.14656641810328538,0.2397201980512922
140,1.4,-0.032526745572529214,0.0010826560628037912,-0.31130113253118735,-0.0015330592885350466,0.12790232846318886,0.2403143371331717
141,1.41,-0.033984413333104646,0.0026188450648150976,-0.3275491384883379,-0.02215602176384084,0.1092382388230923,0.2409084762150512
142,1.42,-0.03787211161172222,0.006820048818499911,-0.3378326656167149,-0.035411706671642916,0.0956233102431424,0.24049794422500725
143,1.43,-0.040384889398677806,0.010338174254393987,-0.3427115097858938,-0.04529832760293282,0.08431736846102701,0.2396279750703325
144,1.44,-0.04014046713240612,0.01194084409675187,-0.34256449675128,-0.05518494853422271,0.07301142667891157,0.23875800591565785
145,1.45,-0.039354413796853435,0.013383295650221507,-0.33760160080048085,-0.055774524227589904,0.056285414842543374,0.24385852724457974
146,1.46,-0.03751987909986376,0.014361642081257207,-0.32806706829802795,-0.052015107821550124,0.037023990814350184,0.2517519376343005
147,1.47,-0.0346167083025672,0.014880771116006358,-0.31423746316167195,-0.048255691415510345,0.017762566786156998,0.2596453480240213
148,1.48,-0.03363879777288253,0.015451566732783055,-0.2951832509630687,-0.04903504469042783,0.002001448706492135,0.2613744278372097
149,1.49,-0.03202519920602347,0.016225438683516474,-0.2728146903986159,-0.05231903250685432,-0.011828091478547229,0.2597018379529821
150,1.5,-0.02939525186676828,0.017906383027114423,-0.24820583148453026,-0.057382824580415576,-0.025420045143914608,0.2557644975135184
151,1.51,-0.025568687269089202,0.01963737171651915,-0.22145852507961275,-0.06349279565682106,-0.038872344110040064,0.25049592389598474
152,1.52,-0.021606959224499,0.021775554438740727,-0.19308810573029297,-0.068304788520475,-0.050746074986501265,0.2455948421187713
153,1.53,-0.01698815789452284,0.023289024000881276,-0.16288323413557712,-0.07237198620570715,-0.06171400491003266,0.2409046314856887
154,1.54,-0.012593406494554153,0.02411382661618771,-0.13138701319633153,-0.07414338199636968,-0.07432254083024198,0.2329737263816999
155,1.55,-0.00778508517430067,0.023945413559018164,-0.09854335315284506,-0.07464511626403761,-0.08783839123316135,0.22325059996836225
156,1.56,-0.0029281194743254776,0.022285337530142175,-0.06505894854634572,-0.0705733913180005,-0.09851522105004393,0.2181511226538315
157,1.57,0.0020251706414059598,0.019980880302899445,-0.03112341169081012,-0.06388302114518246,-0.10756650063044908,0.21569902800461851
158,1.58,0.006285634539710771,0.01729421968162856,0.0025474295249107333,-0.05813975076690243,-0.11732693334489636,0.21280294114097031
159,1.59,0.010393212346012,0.014568394502329982,0.03557691605703146,-0.05283342238063708,-0.12741453198717806,0.20970201964032484
160,1.6,0.011057140392966739,0.012650319154558234,0.0663463554070239,-0.04398752485448018,-0.13467678482792989,0.20250485097549406
161,1.61,0.012079434488980637,0.010502722090365556,0.09546040278197905,-0.03317128186688924,-0.1403662735674565,0.1930274550598652
162,1.62,0.016751821397799398,0.005843821193674041,0.12294321640518135,-0.01896994263263916,-0.1478960343530321,0.18613300432835045
163,1.63,0.02257323790483698,0.00029715768186378,0.14796450311600287,-0.001388918976264978,-0.15726312510304832,0.18181736937218226
164,1.64,0.031033103486674967,-0.0043286521067539396,0.17124996386775312,0.006120591945534642,-0.16274653523385665,0.17698153051429327
165,1.65,0.03672649620314427,-0.007682970463582286,0.19069523388875242,0.008209364048956103,-0.16613965179650494,0.17186570496941442
166,1.66,0.030153538679596234,-0.009845645553720469,0.20454294342689364,0.014251480181343562,-0.1717218310838275,0.16108297591147333
167,1.67,0.018695582398723216,-0.011460669162229065,0.21360024258457613,0.024312311226015272,-0.17952927054358042,0.14453963773690653
168,1.68,0.02021060409560156,-0.013271376883723193,0.22009097929045726,0.03200052387049026,-0.18480499038696185,0.13482763254032865
169,1.69,0.02728189032021876,-0.015277771287823386,0.22321504666693093,0.03724189848575566,-0.18746979402227534,0.1321606562954569
170,1.7,0.025307422707479755,-0.01751415091904756,0.22153662409833513,0.04058611978814413,-0.19041731745841556,0.13178220579539188
171,1.71,0.020701272974070387,-0.01956849584827675,0.21573165044298115,0.04298701931301138,-0.19350541769625432,0.1325416792358124
172,1.72,0.016514158759331262,-0.02175837157658904,0.20661345877215595,0.04754171344622366,-0.1925764130755422,0.1348667415670364
173,1.73,0.012866184318395469,-0.02391896237574013,0.19456149195412342,0.05425710537562824,-0.18761742826019406,0.13876241070217546
174,1.74,0.007117010425522091,-0.0279524269750705,0.1797339232923352,0.061790974500245385,-0.18168520333520352,0.1520906244884681
175,1.75,0.0014055949282036333,-0.032092471011029536,0.16270848017558504,0.0701439758638488,-0.1747789593969212,0.17485893198125746
176,1.76,0.005499635537533299,-0.03181295382813166,0.1442248332483015,0.07390802320522595,-0.16713318043865713,0.19389850743685472
177,1.77,0.010845856034318766,-0.029678962029625486,0.12444458398318699,0.07499542288702718,-0.15905604508178428,0.2107631859917212
178,1.78,0.013285304841097289,-0.02697022085464802,0.10366545865770742,0.06821157765439194,-0.15108526313852086,0.2262326431414273
179,1.79,0.012756114988941549,-0.02442815680214218,0.0822516057135355,0.05690136367351169,-0.14317563985222514,0.2408997765629492
180,1.8,0.011721994996420175,-0.02122305176117288,0.06042237322571671,0.04738588091730255,-0.1360692295852942,0.25518309862465544
181,1.81,0.009724210198236268,-0.018154604769659487,0.03865579806303545,0.039697727934749454,-0.1297806214743057,0.26907563797994993
182,1.82,-3.4855509739414176e-05,-0.019032641955837086,0.017425150789791094,0.023514306681365886,-0.12072543472280807,0.2894005228656473
183,1.83,-0.009928558469980451,-0.020182076599208947,-0.0029834874788218376,0.003118198170270571,-0.11029833949063916,0.3129151198580441
184,1.84,-0.01398106323867664,-0.01771681242427443,-0.02227161230953788,-0.016349543394580994,-0.10175072079583324,0.3321027595393891
185,1.85,-0.01505964903118635,-0.013898301906187946,-0.04032935771105373,-0.03501394710014796,-0.09482945756769906,0.3475461807976845
186,1.86,-0.013891519736126075,-0.010340789791092554,-0.05712834535813722,-0.04567448928623325,-0.08939622977689184,0.35280391850177273
187,1.87,-0.013358265976494995,-0.007718305555839208,-0.07242444374377333,-0.052180513044235766,-0.08473538799388447,0.35277463194568703
188,1.88,-0.016569318102031935,-0.004802487484870572,-0.08548806586750955,-0.06901170704206608,-0.07766334127405776,0.36068141271864296
189,1.89,-0.019945039776303512,-0.0025379836887617895,-0.0969224464620765,-0.09104897363976144,-0.06937553658969757,0.3725896522291063
190,1.9,-0.020639927361858882,0.00031456740442678544,-0.10682112956683908,-0.10776490470881517,-0.0598200799666964,0.3792570384683221
191,1.91,-0.0201403085629212,0.002666609068885689,-0.11508586099914156,-0.12178569717478165,-0.04962258570921025,0.38327004858552294
192,1.92,-0.018509867896458372,0.005869118912739901,-0.1214060595895477,-0.1374985172246206,-0.0380433683132069,0.38136249006574463
193,1.93,-0.016603607976645927,0.00863594292181281,-0.12585405248209977,-0.15413733163685422,-0.02570797658006361,0.3762147874535949
194,1.94,-0.013260015692680104,0.01229215873198474,-0.12822942654025074,-0.16971208487780348,-0.008911816716268554,0.371579323599252
195,1.95,-0.010390197194575939,0.015220406867306229,-0.12872754544057627,-0.18475560518016554,0.01011138330870648,0.3671995951367376
196,1.96,-0.00821333186539088,0.017783571488981596,-0.12756944957460808,-0.1937064721098391,0.024517064962899,0.3584752462133217
197,1.97,-0.006826966246370674,0.0197585633931149,-0.12454629492493342,-0.19958121382275268,0.036591403632294635,0.3475573379751843
198,1.98,-0.0035824114693710427,0.02631548843337138,-0.11945800177483391,-0.20150606565963675,0.054765999407025416,0.3258383294969948
199,1.99,9.169350314267716e-05,0.034201203836287455,-0.11255614368481372,-0.19929505532335984,0.07932807012419005,0.2928096735821897
200,2.0,-0.00099622525118199,0.028781941906017867,-0.10492691960692661,-0.19301398883574925,0.09553215761608212,0.2715166057858724
201,2.01,-0.004028045862403498,0.018586104753872634,-0.09614489563399045,-0.18263837237844185,0.10332796308696277,0.2620297515129685
202,2.02,-0.0034640753173548707,0.01954996502359494,-0.08505648081908938,-0.16545202889102262,0.11331392442660995,0.2455115112576613
203,2.03,-0.0011786313319115914,0.026206456011089996,-0.07247183471190395,-0.1413644594840237,0.12551914376655945,0.22186845408078446
204,2.04,0.00247493444391311,0.03277412709658316,-0.05967345714459781,-0.1140389496552588,0.13799659452831795,0.18761887403256555
205,2.05,0.004485914675563129,0.03743113218778707,-0.04647019974576885,-0.08499812887642877,0.15061826089566382,0.14775044914673652
206,2.06,-0.0011409359544631201,0.03165135478396157,-0.03354672831751435,-0.0714409347906595,0.1566807804416686,0.12595310247822336
207,2.07,-0.00705891088151717,0.02558811723136876,-0.020435431910580084,-0.06698900823615972,0.1588861425032481,0.11478259440566395
208,2.08,-0.006059499480719369,0.02695729026356731,-0.007757798978345337,-0.04800205649900675,0.15937950544187993,0.10182975132289404
209,2.09,-0.0015925808797115897,0.03163315433749971,0.004608572351482882,-0.01447426440609288,0.15816018432092754,0.08709386015329416
210,2.1,0.0013305279512718917,0.035255615470266,0.01746371649867251,0.01905352768682099,0.1569408631999752,0.07235796898369433
211,2.11,0.0031035272373202364,0.0326903317432417,0.029297252621322233,0.059325286296779765,0.15457354020964606,0.06523591144971748
212,2.12,0.004438269170236835,0.029131372947250014,0.04044988632998717,0.10348354263472027,0.15154463228324475,0.06250164959225987
213,2.13,0.004902576317711483,0.02477836471358121,0.051580347116669985,0.13704201078270198,0.14575020533763644,0.05767221098401513
214,2.14,0.005558556704075729,0.021348918148930644,0.06148264879823544,0.16443640789249322,0.13834755232313292,0.05162436894185541
215,2.15,0.007067061963805838,0.016779876054171833,0.07006929304936219,0.18735228628868908,0.1334978771524326,0.0476333156683685
216,2.16,0.008919476600369094,0.012644749610110865,0.07658709241347995,0.2073576078109611,0.1303073637911269,0.044978954518260936
217,2.17,0.009139435767403873,0.010101261844418796,0.0813441726762772,0.22139003105092486,0.1275446538501634,0.047244726891062766
218,2.18,0.009545727435091977,0.007551145714179565,0.08371547507056416,0.23232489200780845,0.12500380399735006,0.052062094705130436
219,2.19,0.01104937019012218,0.003769589255655209,0.08357987202708483,0.2434870219282259,0.12238087705783728,0.056907472262435185
220,2.2,0.02036842861645412,-0.02282333776842714,0.08304344280984137,0.2730504864534642,0.11311239714769515,0.0640207206697046
221,2.21,0.018223155298322084,-0.023739288406169408,0.07932720561689784,0.2917318663171353,0.10736600467677834,0.07064864594625911
222,2.22,0.01084457261037378,-0.013844284618389817,0.07374794989834609,0.2995006489646102,0.10515157531585574,0.07678988728219882
223,2.23,0.011375650485341487,-0.0273383479586633,0.0676726833147069,0.30291361558966506,0.0995250073421473,0.09430993646522466
224,2.24,0.012877502220965108,-0.04217679435741101,0.06140884075929541,0.3043021198975764,0.09231257210340743,0.1171185395223979
225,2.25,0.009208202132246619,-0.04288289862789585,0.054904527984516074,0.2941724348132912,0.0842759923997092,0.13322346097486013
226,2.26,0.004810673971275768,-0.04053284186245405,0.04847365796911218,0.2777969209345947,0.07579251387756655,0.14569325834925884
227,2.27,0.0018813687785240243,-0.04055841044428391,0.04211156372591499,0.25140319683302403,0.0676779315540472,0.16262205090639945
228,2.28,6.37993185615077e-05,-0.043177167323383954,0.0359530365961828,0.21979317835749948,0.059755426569957,0.1818725587168411
229,2.29,-0.002660954695270788,-0.03992057288665481,0.0302360056129357,0.1995965227863168,0.0563797784597132,0.19159446561487944
230,2.3,-0.004550274361853045,-0.04011049864531114,0.02460199043493677,0.1850877373110049,0.05527006471602816,0.1965677769728138
231,2.31,-0.004777473965596173,-0.052451735963323316,0.019153254975090954,0.15808639974984992,0.04619303296947322,0.2061028259379344
232,2.32,-0.004365378548870565,-0.06602120966314994,0.013557452471115682,0.1252869084387502,0.03341813913373854,0.2177551089022908
233,2.33,-0.0048395428959364314,-0.07257471488676988,0.008409025563369825,0.08771718288895683,0.021282784728297158,0.2333318436719778
234,2.34,-0.005259804763916192,-0.07558273825447709,0.0029559000924074905,0.0478809099895791,0.009451303534977735,0.25077325748945495
235,2.35,-0.007052059064647669,-0.07410912421934951,-0.0013365389762179593,-0.017557842699053125,-0.0025865587907320307,0.2615973665978111
236,2.36,-0.008757964056555786,-0.06993768500093217,-0.005817811786789128,-0.1029825767616333,-0.01478552775540178,0.2672558304346595
237,2.37,-0.009227362280397531,-0.05819572913092496,-0.013520918407855013,-0.17099427252691815,-0.025982423895423136,0.268264144381959
238,2.38,-0.008819818694651396,-0.045030195029949587,-0.021880856577816167,-0.2253797226371002,-0.03639516679120092,0.2656335709825348
239,2.39,-0.008835810924738619,-0.0342413779394362,-0.030125086970166602,-0.2601814841867377,-0.04921770107454696,0.2594630584984877
240,2.4,-0.008911824976540646,-0.02476895092619652,-0.037211581447107275,-0.27507572929481355,-0.06448987407229742,0.24969407194192944
241,2.41,-0.005840375571407331,-0.0219126698555316,-0.041009087873672946,-0.2824849138709461,-0.07552624553080199,0.24511016702558625
242,2.42,-0.002239780604351073,-0.01972748099715182,-0.04251393916760546,-0.2840391829819746,-0.08324931580310974,0.24458210301441216
243,2.43,-0.0035600702141383167,-0.009492262392411459,-0.04343030330211328,-0.2797991230157808,-0.09263857065285808,0.24342912068652006
244,2.44,-0.005396723042281568,0.003486860469339041,-0.04311946625980326,-0.2725514339356773,-0.10289268236135084,0.24195176559723866
245,2.45,-0.00970060968270033,0.024743104874716336,-0.041628946654834215,-0.28492153661798564,-0.11235280747989056,0.2233611150013733
246,2.46,-0.012064950822864344,0.044344551795562105,-0.039387452929699245,-0.30830271836131995,-0.1213672836068797,0.19516510962858846
247,2.47,-0.0038576285542476006,0.04661259962708189,-0.034985961660525686,-0.32269771136705144,-0.12468448165272755,0.1752918407910793
248,2.48,0.004975519659589878,0.04726352629797381,-0.03094612364002182,-0.33204674330151185,-0.12480252105088895,0.16009198865888735
249,2.49,0.005222360863283697,0.06382346045346578,-0.028820736305392707,-0.3417098273447148,-0.1257768505516679,0.13739980262422227
250,2.5,0.001286110334452896,0.08648943224354481,-0.02786888193671573,-0.3516894860035577,-0.12761434798721388,0.10715510329830917
251,2.51,0.0002202865142207429,0.0997574634238215,-0.02687251457688443,-0.3504395176587729,-0.12894822879198115,0.07445962533990892
252,2.52,0.0002919651573441281,0.10677852529484909,-0.02618637604611388,-0.3440422957523136,-0.1300512700064703,0.040640799380647186
253,2.53,0.00027138950689348327,0.11000738778039884,-0.02567746915274892,-0.3242263565742747,-0.13030875192760089,0.003730558187115568
254,2.54,0.00033323770632467465,0.11016810788147624,-0.02514121035499813,-0.29596742519961794,-0.13003421201899035,-0.035124786563723025
255,2.55,0.0005839620956028008,0.10439967279553175,-0.024598308050242657,-0.2572283137078382,-0.13401600382491613,-0.06632042052650387
256,2.56,0.0009317826607677807,0.097603505288909,-0.023602409883993623,-0.2133761966210509,-0.1400743484789247,-0.09377908206344908
257,2.57,-0.00019372494677629554,0.09051065837212285,-0.022469521304883458,-0.16063991476413142,-0.1464361220257325,-0.12558389502058126
258,2.58,-0.0008185800569017326,0.08393524282939487,-0.020479122774544452,-0.10378213998427988,-0.15293866063787204,-0.1594049506728639
259,2.59,0.0032168421433071193,0.06802466134738429,-0.017404208645128857,-0.05537350622756563,-0.15656766653915324,-0.183793676850505
260,2.6,0.003792542081513971,0.056917151896002764,-0.013656486762726704,-0.01046134554321743,-0.1606772162767961,-0.20033732973822588
261,2.61,0.0030769713503346697,0.05015222340887873,-0.009334202684061748,0.03286276665928285,-0.16524934125964996,-0.21274108244371545
262,2.62,0.00284504957911155,0.04189542976415797,-0.004511386993506053,0.07318973357942979,-0.17069259723413893,-0.2275815359478084
263,2.63,0.0030726296522004615,0.03453557116116043,0.0005049555534596944,0.11199258272211207,-0.1765788434896359,-0.2436611082318217
264,2.64,0.002785886603745902,0.025817832826796942,0.0051505762519241625,0.14500156769961134,-0.1813989758819997,-0.2591125189165113
265,2.65,0.00275596474603468,0.016635098587228288,0.009649654110201583,0.17398929882572065,-0.18547916782082186,-0.2741279516116311
266,2.66,0.003914694995317852,0.005028637909224615,0.013756689460016458,0.20154709310417612,-0.1886836166260165,-0.27710682065141923
267,2.67,0.005439344512517018,-0.006921426087208096,0.01774111558989753,0.2282340408873188,-0.19135472870381284,-0.2727552965398911
268,2.68,0.007203550393981545,-0.020205172987433517,0.02163396494029543,0.25680876408203895,-0.1902795384041421,-0.27210112103975714
269,2.69,0.008494027120762544,-0.03300232987194596,0.02527388651196882,0.28624556679828805,-0.1874935457806026,-0.2731353924291674
270,2.7,0.009641511942163124,-0.04813868933171176,0.028939046682026563,0.3141629986978309,-0.18680034696949904,-0.2706002867493751
271,2.71,0.010033798407422358,-0.06264210480667365,0.03188935303634944,0.341219088758633,-0.18729356746478745,-0.2660416764885151
272,2.72,0.009208958640532686,-0.07798998964920081,0.03405705366167323,0.3644277996916093,-0.18664067256407124,-0.25725839184297805
273,2.73,0.007675433928088818,-0.09278588829181107,0.035288573346364864,0.3837706196485104,-0.1848361476784362,-0.244230105590384
274,2.74,0.0062153654135349784,-0.1039299105055853,0.035580811318107475,0.3923797986299037,-0.18308918214792674,-0.23357187387250544
275,2.75,0.0047526907460008075,-0.11233654595339555,0.03493430985487569,0.3901734497943783,-0.18140021509229684,-0.2253017778120727
276,2.76,0.004853398710109973,-0.11400014756811123,0.03334161816709128,0.3790442902294669,-0.17892478810839285,-0.21761776462544655
277,2.77,0.005255896966359325,-0.11269113727938732,0.03097076837924196,0.3588845998861227,-0.1756534067101591,-0.2105269097597958
278,2.78,0.0033278346543398124,-0.11377136673385183,0.027646374109521414,0.33872490954277845,-0.17238202531192534,-0.20343605489414499
279,2.79,-0.012899368851822475,-0.14517564940944566,0.02375573140489864,0.2914253947461374,-0.17365737909811227,-0.16925943996260062
280,2.8,-0.014920529388642512,-0.14237022809718602,0.019444546500854098,0.2575810775532178,-0.1764092087999653,-0.13713318626025248
281,2.81,-0.007611610649621788,-0.11735489190240293,0.015123189314003976,0.24152151221227655,-0.17991815791106675,-0.1113600038391746
282,2.82,-0.002824440588681321,-0.09731674563718522,0.011981857176958047,0.22475771719847185,-0.1820797740524679,-0.08470863798819417
283,2.83,-0.0004487897880385188,-0.08254002624058364,0.009105407284783318,0.2075872042745309,-0.18346325704951305,-0.05755008968937125
284,2.84,0.0009057560776917269,-0.0688234940400767,0.006363200101751152,0.188369535793932,-0.18423223595054786,-0.036465267326223835
285,2.85,0.0011957560669504236,-0.05643863367819373,0.0036604067824769675,0.16708082621608242,-0.18437954092302994,-0.02152503714382719
286,2.86,-0.0006502882748905172,-0.04912970681053451,0.0005208790212323392,0.14579211663823285,-0.184526845895512,-0.006584806961430545
287,2.87,-0.005862150955760516,-0.0437182569341733,-0.0012113966909487424,0.10561936250612776,-0.1809112434644254,0.007416408873984205
288,2.88,-0.010704565391216288,-0.037536107478263823,-0.0031925367630003423,0.055309530207737975,-0.1752756878197741,0.020913555689265603
289,2.89,-0.012809093007772183,-0.023758735941118797,-0.006166337944802117,0.0042420404058786726,-0.1719991026363624,0.03224573487413128
290,2.9,-0.013274592547164902,-0.008869166700583186,-0.009520708861617938,-0.04717418427491401,-0.1698083052587082,0.04258142194873552
291,2.91,-0.012073189207475358,0.009191498251997478,-0.013042914484373785,-0.0913028515606995,-0.16335471928166584,0.04702290039068894
292,2.92,-0.010445734217948331,0.02592383632914063,-0.01608927585696315,-0.1319672948974273,-0.15487476787717755,0.048662499190505915
293,2.93,-0.008524012594820348,0.042782064061757,-0.018688094860785605,-0.1632826147767345,-0.14678090241864294,0.0535219479247054
294,2.94,-0.006821019616703356,0.057970044231145657,-0.02040681236034304,-0.18946127649365968,-0.13889916289198814,0.060150468221861264
295,2.95,-0.007716168536589531,0.07705565951815443,-0.02126866741994194,-0.2149283624652344,-0.12937294358131918,0.0600099929872539
296,2.96,-0.008339469773146795,0.09356691065884229,-0.021248329694638003,-0.24000260738043594,-0.1189388530007855,0.056132544742172864
297,2.97,-0.0033937416685174042,0.10344484884894026,-0.021842492236130516,-0.2579130129393892,-0.11080477193318086,0.050174043439862204
298,2.98,0.0015280823642765872,0.11026615027642143,-0.02147635904886634,-0.2721313109592303,-0.10385607234056814,0.04314300668556823
299,2.99,0.003586688694146768,0.11607694436072345,-0.019500344422246567,-0.2863496089790715,-0.0969073727479554,0.03611196993127425
300,3.0,0.005899357100338119,0.11842831757188338,-0.017139311688158923,-0.296146764077933,-0.09406805487371467,0.026770041540923502
301,3.01,0.007040051321024961,0.12086326724101949,-0.014410327285892048,-0.30284483260129585,-0.09410928846424876,0.01580824847423496
302,3.02,0.003587223521516523,0.13383631459003847,-0.012228678475858143,-0.3074867448005523,-0.0905031535291049,-0.004601865570724289
303,3.03,-0.0005671475811679216,0.14589948600112468,-0.009852715797593432,-0.3109457516917373,-0.08479869000924528,-0.030447592125551926
304,3.04,-0.002641490467697405,0.1500950006493431,-0.0075697316332262315,-0.3087898721766954,-0.0829033946153442,-0.05714900514244264
305,3.05,-0.0034291842670790326,0.14826654798261146,-0.0050539239818041355,-0.3040074488517834,-0.08278996019567328,-0.08425069303891576
306,3.06,-0.0035213539846712743,0.14161660887462243,-0.0024128890357013252,-0.2878226431792329,-0.08131110523854691,-0.11431944700049565
307,3.07,-0.002911175190103152,0.13143027878303798,-1.1663989656195833e-05,-0.26554116775542835,-0.07910218196458592,-0.14597464328417992
308,3.08,-0.0017767909937430534,0.11775380032012928,0.002682458891450079,-0.24455324975067005,-0.07573117586620952,-0.18065973342302416
309,3.09,-0.00019221301147022678,0.10210988056802808,0.004542822804996922,-0.2242409590110583,-0.07175321190962504,-0.2169273423344448
310,3.1,0.0028734384640539175,0.08305938192096984,0.006337323812651499,-0.20387406264986607,-0.0649643198858731,-0.2461439326993443
311,3.11,0.005704004552088368,0.06361298719698366,0.00673940338350697,-0.1834804045706917,-0.05679781760837155,-0.27190488307027755
312,3.12,0.007527620953532693,0.04354467835799281,0.005548254222412942,-0.15375529647675132,-0.0509771816997698,-0.2953366290386863
313,3.13,0.008624390964267493,0.0239380126037873,0.003316602872934867,-0.11826464759549635,-0.046605965571596526,-0.3173292500089975
314,3.14,0.010368960385644884,0.0023127347059448827,0.0005883768268562638,-0.08353508480901953,-0.03951361569785939,-0.3350258017223329
315,3.15,0.01138274999911071,-0.01785831768960524,-0.0022342356818091666,-0.049173978959492264,-0.03110391078137525,-0.35064254074403056
316,3.16,0.01223816621419271,-0.03867738397648633,-0.004821943849039042,-0.015657110326901796,-0.021110472763847126,-0.3630965426038626
317,3.17,0.012012212927079774,-0.05698373251053927,-0.006898634193615227,0.0174536441942238,-0.010355191572120115,-0.3740291329853563
318,3.18,0.011124628852785147,-0.07510857703879043,-0.008563611114200126,0.05328502814943045,-0.002156040241668084,-0.3849073185564351
319,3.19,0.009449008498904139,-0.09047405897560845,-0.009399526812190914,0.09059363706660764,0.004655204749974096,-0.3957559638516535
320,3.2,0.008014078726637999,-0.10530033587490939,-0.009490550363380913,0.12330643717361765,0.010600058162777095,-0.3957996494550288
321,3.21,0.006118361684352831,-0.11697071508105977,-0.008645742632206032,0.1536632856760812,0.016100772858186962,-0.3903043835539939
322,3.22,0.004102597163612411,-0.12753342215840863,-0.007496379628726834,0.1744766018604679,0.01938040737713013,-0.37867808993087976
323,3.23,0.0018306264799939453,-0.1348422024790704,-0.005488307014184674,0.1906423242393971,0.021578400620544905,-0.3640660541828869
324,3.24,0.00022430324036474365,-0.14513714671215833,-0.004284456015729859,0.2033816513374144,0.020033064355470063,-0.3445224952597406
325,3.25,-0.0014151154630336767,-0.15098863551500227,-0.0019807246869818964,0.21450559137244726,0.01672292118262585,-0.3226539510138763
326,3.26,-0.0046181979856303535,-0.14154078384109386,0.0033316975426419867,0.21929767667321892,0.01502483346612306,-0.3062174528757384
327,3.27,-0.007228565037931622,-0.13046701761281104,0.00897396063095052,0.22082935078754093,0.014156828539516424,-0.29257803468308785
328,3.28,-0.0076919485517004445,-0.13082158952794856,0.012826677784128476,0.2224191246781208,0.010789756762621418,-0.2677430557548857
329,3.29,-0.007067640881624149,-0.13277606626949248,0.015726153618524155,0.22404102984735488,0.0060406105869258405,-0.23671652662023865
330,3.3,-0.005022954455329662,-0.13703286617811808,0.01850997244416596,0.2144051398107351,0.006844324609050438,-0.1961828283567017
331,3.31,-0.003075693204446577,-0.13578526496988777,0.020557986321264005,0.1995103266615217,0.010241980366776478,-0.15120798770666455
332,3.32,-0.0034966098842106135,-0.11484387145812913,0.02283743276888872,0.19104217865565865,0.01035400332772453,-0.1264714988789127
333,3.33,-0.00401506907129841,-0.09128681027527225,0.023950048624835456,0.18627288172410766,0.00857498853750983,-0.1133831429023989
334,3.34,-0.002621892793473617,-0.07997444379516827,0.024187718297376665,0.17416316038097393,0.008628116053870906,-0.0913104919764822
335,3.35,-0.0007591842162905922,-0.07153130830710473,0.02281835587880572,0.15843964107726544,0.009583233940235487,-0.06481474165673168
336,3.36,0.0007708548791755406,-0.060872988167773104,0.019746771988406017,0.14271612177355694,0.01053835182660007,-0.03831899133698119
337,3.37,0.0017895844973872515,-0.04565753342687191,0.016754377082050367,0.11930649502876566,0.01229308546615225,-0.017574274970068166
338,3.38,0.002448924034290144,-0.028990495660897758,0.01319152599622398,0.09154333374341113,0.014500734294226726,-8.703648120345771e-05
339,3.39,0.002847310056394524,-0.012788165575581864,0.00876958645925353,0.06378017245805656,0.016708383122301204,0.017400202007661254
340,3.4,0.0034125324241886497,0.006027498712741539,0.005440979096334772,0.01699119637746642,0.019081085263429817,0.029208010241112674
341,3.41,0.0035791337433101313,0.02487451808757493,0.0021373557528589627,-0.041257167271668935,0.021553200223621168,0.037595056043848094
342,3.42,0.0017262602170593977,0.04737590310929972,-0.004313290612779153,-0.07326863116768327,0.020907200712994345,0.04007397092793912
343,3.43,-0.00027729418172536303,0.0675153915391579,-0.010048745057189183,-0.09129485814179028,0.018599130986970497,0.03940363374946285
344,3.44,-0.000754419692960165,0.08673661280144479,-0.012639623218709085,-0.12020732871574948,0.016659095471359242,0.036315611198347066
345,3.45,-0.0009359071859624812,0.10160771981642078,-0.013367791115367227,-0.1547178736787302,0.014908315585451375,0.031984333116419066
346,3.46,-0.0019888228981970314,0.11173013919808711,-0.0140807745188945,-0.17577994637833874,0.012341576496492156,0.02666413834170415
347,3.47,-0.003139356998003668,0.11862634194153959,-0.013834472993020444,-0.1901459852547824,0.009368568924767402,0.020851559042300245
348,3.48,-0.004460277524464618,0.12208527352836795,-0.012411912857722054,-0.2003477981819731,0.007209317870694133,0.016902138488655256
349,3.49,-0.005549929875703805,0.12478761756453009,-0.010343432444226992,-0.20762458620847996,0.00562166358063687,0.014261433118020353
350,3.5,-0.006091453403276523,0.13315027965562787,-0.008430758183086723,-0.21584590431985268,0.0039411482718628415,0.004067375915477572
351,3.51,-0.006258017358339881,0.1406763611792576,-0.0064693689493793265,-0.22453920417129344,0.002214230306465499,-0.009901091650580058
352,3.52,-0.0064933353321937086,0.14553808670685583,-0.004839033018088681,-0.23397639081430846,-0.0012489023384562696,-0.02600030288093581
353,3.53,-0.006516924507674878,0.14702707010317848,-0.003333420746782419,-0.2437952570019184,-0.005602866270753938,-0.043192773570458594
354,3.54,-0.007140701239458447,0.1523897486696036,-0.002585275293115046,-0.2511352489614441,-0.009684187689562132,-0.06488337634891246
355,3.55,-0.00735102229906677,0.15316907246675954,-0.001974206695278382,-0.2571334088788871,-0.013617925799588723,-0.0890088496415966
356,3.56,-0.005725048426931936,0.13384880039890035,-0.00027133656671993536,-0.25864837996570383,-0.015473495905400987,-0.1032028120686046
357,3.57,-0.003728503646169771,0.11039607741671374,0.0011701630411350503,-0.2571092351914415,-0.015913340262545386,-0.1106310579475763
358,3.58,-0.0024879304362323356,0.09530441082678993,0.0013401733315151782,-0.2555700904171792,-0.016353184619689785,-0.118059303826548
359,3.59,-0.004454606459136889,0.11296467035394028,-0.0010776002210380244,-0.22752412753731316,-0.022056640996619217,-0.14019939617082094
360,3.6,-0.0038243703614926497,0.09799383053881944,-0.0019737679671849523,-0.2068758168349718,-0.02653695675451747,-0.1547625645051613
361,3.61,-0.0017136735856370976,0.06492829893392155,-0.002136460406827292,-0.19589034304122616,-0.029347388681486012,-0.16044827345175475
362,3.62,-0.00171695626179382,0.04831925264688859,-0.003046253269426459,-0.1754969072274638,-0.03140120283550103,-0.17480474629571308
363,3.63,-0.002487878535925735,0.03909579474437186,-0.004424422390790264,-0.145600957011574,-0.032690795017839384,-0.19791912639278855
364,3.64,-0.00042257354997155775,0.01670368336369798,-0.005793282351410924,-0.12317826811482956,-0.033711828623941294,-0.2118220789147214
365,3.65,0.0022308049335046697,-0.0073954226481274254,-0.007306237953926872,-0.10501428229320248,-0.03457982178550032,-0.22047581917640807
366,3.66,0.004529170160796253,-0.028466751997776638,-0.009195033421839338,-0.09231214262237568,-0.03555133154280827,-0.2286603779821071
367,3.67,0.006281967112774493,-0.04687894842090655,-0.010960426649237714,-0.08515772372435326,-0.03662798544967858,-0.23636837856230286
368,3.68,0.005471813398459686,-0.05942314265428145,-0.012464689695501994,-0.06553598820644213,-0.03927623041775393,-0.2530588833672668
369,3.69,0.004422568371577514,-0.06991459548983596,-0.013172093262452562,-0.03968994019314431,-0.042709092812188015,-0.2742339067732019
370,3.7,0.004224758777785327,-0.08325308850454252,-0.01301878182967111,-0.016310392597094832,-0.04675544587765162,-0.2913293305205492
371,3.71,0.004568500746706136,-0.0959792859950174,-0.012019213828506334,0.005877787379352406,-0.051098126855845916,-0.30645422837615377
372,3.72,0.003384853720996045,-0.10880688852970272,-0.010689099969974572,0.034638924240965735,-0.056485088741480026,-0.3233812955033757
373,3.73,0.0016500529487131184,-0.12105171962092058,-0.008981766729003637,0.07095034634282359,-0.06307160493119085,-0.3423784951888415
374,3.74,0.005938695906349359,-0.12908059418232892,-0.005682993308722746,0.08835795983672838,-0.06663489557197354,-0.349317271067529
375,3.75,0.01068341399672285,-0.13435777022301476,-0.0020459540499761873,0.09499773132180224,-0.06847611973699727,-0.3493874203578006
376,3.76,0.010529921689678184,-0.1417294384668973,0.0010696847633306092,0.10242235573772557,-0.06961760090763831,-0.34306294276049315
377,3.77,0.007970419992988122,-0.14855581989769656,0.003771985850198406,0.11065025537101772,-0.07004291452150316,-0.33019374181284666
378,3.78,0.007884956900742994,-0.1488261199561755,0.006572011843970729,0.1196660196305302,-0.06827023132440604,-0.3152285938903732
379,3.79,0.008795803934917879,-0.14486154500472742,0.009163980524008382,0.12947852229322768,-0.0642747951173498,-0.2981438921888511
380,3.8,0.010368332712126583,-0.1351731059181675,0.010975619072549578,0.13373507304527493,-0.06182344616123349,-0.2851846012013621
381,3.81,0.010690986135516682,-0.12469549074466452,0.012214952793567851,0.13513329142711494,-0.06016647315414685,-0.27434768189274195
382,3.82,0.008212174832698621,-0.12024834533304803,0.012730357346804068,0.13669710280077116,-0.05860398681866566,-0.2530659019651166
383,3.83,0.004863411476832449,-0.11497991379805836,0.013016819398464824,0.13834184938242686,-0.0570876817758569,-0.22667909339193604
384,3.84,0.0010688179515989096,-0.10916063136845158,0.013098343232231512,0.13180648870843148,-0.054849690493575035,-0.19763551113066014
385,3.85,-0.002110156812166539,-0.0991885617617487,0.013179042657669574,0.12137549384389427,-0.05226800865792139,-0.16732668648411764
386,3.86,-0.0033915370939318797,-0.08040123386301107,0.013598863703744081,0.10929605152444488,-0.05022611979147139,-0.1407612063377754
387,3.87,-0.003820042231910712,-0.05834005355542042,0.01395052067055957,0.09586242013001298,-0.04862766740791909,-0.11727085983367412
388,3.88,-0.004556633962088011,-0.03800447275581593,0.014102351973641958,0.08104202317078707,-0.047777151424256745,-0.09620640805920064
389,3.89,-0.005345046973533072,-0.019145499873924283,0.013913999016248166,0.06481924140468584,-0.0476829959029127,-0.07759517404429445
390,3.9,-0.005376131250709646,0.000735898022237471,0.012976555779198002,0.05415478956119326,-0.04542131707932325,-0.06539326284595788
391,3.91,-0.005171342541081387,0.01958659422190464,0.011564478877377507,0.04818344623590472,-0.04132951622001276,-0.058602985704105215
392,3.92,-0.006912443796123846,0.031369897519121184,0.010757152361529078,0.03226848262620099,-0.039343416027884236,-0.04846926317372087
393,3.93,-0.008327823916172141,0.04185978911419777,0.00953026398248772,0.011667714136258646,-0.038349600555041295,-0.0367599844303798
394,3.94,-0.007000795810396078,0.058477768311782544,0.006886115332220433,0.002002428874489249,-0.03613796730462331,-0.032111693480658364
395,3.95,-0.005308172891955081,0.0744201770709178,0.004060131192973087,-0.002643447248699445,-0.03336735320678032,-0.030704410351002187
396,3.96,-0.004135213617017699,0.0875438537248078,0.0016354248892649788,-0.009528363776537686,-0.03184865596286822,-0.02963603609218249
397,3.97,-0.003426184952544962,0.09820686409666962,-0.00042266966605444,-0.017674928462342934,-0.031035385288932186,-0.028758629245885417
398,3.98,-0.003111631362244109,0.10668140760038927,-0.0021538556352985344,-0.025821493148148186,-0.030222114614996163,-0.027881222399588342
399,3.99,-0.0029821321818043842,0.11369410885999591,-0.0036083690841272283,-0.03396805783395343,-0.029408843941060137,-0.027003815553291267
400,4.0,-0.002901881380152662,0.11961165461347228,-0.0048296788997134014,-0.042114622519758685,-0.028595573267124114,-0.026126408706994196
401,4.01,-0.005201301059606903,0.13498137128417642,-0.0026073440616222777,-0.0864384197752433,-0.011569323992607784,-0.046802812724840666
402,4.02,-0.004003452385988883,0.1411319044060281,-0.004400366732690869,-0.1157622967135816,0.0017826290687387157,-0.060583985661303
403,4.03,-0.0005855663429722834,0.138191652335105,-0.008837512669088799,-0.11980264477852352,0.0068822765605026925,-0.061363637008490124
404,4.04,0.0011361272146538674,0.13075978617053668,-0.011080674509267863,-0.11972832010886594,0.011540445560579758,-0.06504649453030388
405,4.05,0.0016557417763718896,0.12293812428231472,-0.011893314526807839,-0.11757187188676045,0.0159752158058273,-0.07019844433325399
406,4.06,0.002087203728407167,0.12153042015925876,-0.011437400430127712,-0.11886230272558206,0.020903314925006918,-0.07972257083516368
407,4.07,0.0018686494744698497,0.11904932568615226,-0.010578982335115922,-0.12173852943547706,0.02605837845968661,-0.0912581922674897
408,4.08,0.0003274531513414937,0.10764059979895543,-0.009914670322791719,-0.12378609406509952,0.030322637006566955,-0.0987815579494294
409,4.09,-0.0012969204074799756,0.0948249597326708,-0.009268324456962651,-0.1254536537967674,0.034178393382846214,-0.10446499771549762
410,4.1,-0.0016767139862823546,0.08707240435899154,-0.008530918249553661,-0.12913187377872626,0.036331405442368965,-0.11290737315764833
411,4.11,-0.001746861659161106,0.07926585284841359,-0.007809695575819529,-0.13395638161887424,0.037513674117664535,-0.12292263216705535
412,4.12,-0.001399878694107294,0.0681862279339123,-0.007973562513913346,-0.12750013648827296,0.03990030219095673,-0.13067101108646045
413,4.13,-0.0012565515606528773,0.05479801370687855,-0.007993253466135195,-0.11497764606492827,0.04293457670662847,-0.1372003711415357
414,4.14,-0.0020762631670160647,0.038198467419443806,-0.008003401006087974,-0.09790141851477574,0.04232997303446028,-0.14383681333663256
415,4.15,-0.0028758747791196903,0.021086257098441627,-0.007422837269366299,-0.07871459745070541,0.04003880018025069,-0.15052288660701826
416,4.16,-0.0031889357349524456,0.004734185102682968,-0.006129596920467179,-0.059527776386635076,0.03774762732604109,-0.15720895987740394
417,4.17,-0.0036333539863622,-0.012859118250838186,-0.004159633635780702,-0.04675451071173206,0.03647309196227519,-0.16776294696807176
418,4.18,-0.0035212250087579295,-0.029442130276939878,-0.0022853419686705923,-0.036915533094924985,0.03566368195669363,-0.18008655677873167
419,4.19,-0.002559619442941039,-0.04463560151574879,-0.00030692527219858354,-0.03260444487989031,0.03493813107236023,-0.1905683685933804
420,4.2,-0.0011620382672736938,-0.05842703573450768,0.0011791093468669998,-0.0318949295286033,0.0342672167253223,-0.19985019806380705
421,4.21,0.0006134387169951139,-0.07043695744252114,0.0019638011926468722,-0.030194689627956118,0.03422688965606987,-0.20737575831731506
422,4.22,0.0023281489166161033,-0.08131634743829858,0.002137739726705607,-0.027832038035454063,0.034608181679439916,-0.213727053469506
423,4.23,0.003286261701061273,-0.09255423824266582,0.0015412985428652148,-0.01825459310497329,0.03577794672906171,-0.22032231398640312
424,4.24,0.004013546292738169,-0.10255030577420748,0.0007678824072607227,-0.0052537915007066964,0.03732183537031992,-0.22703333394647696
425,4.25,0.005277239823597336,-0.11158078274576444,-2.777499245381265e-05,0.011407009205814004,0.03917564261907816,-0.2279844061926703
426,4.26,0.00654421073526399,-0.11901804055648009,-0.0006526755036866212,0.031743948517545216,0.04134073512383614,-0.22315013107581388
427,4.27,0.0071054780208313776,-0.12543049572496573,-0.0007433682188255613,0.05204832247068877,0.0430996448356525,-0.2199564455245336
428,4.28,0.007101052971701892,-0.12977472031788112,-0.0004553947328942744,0.07232011803649546,0.044452209248908935,-0.21840400590592898
429,4.29,0.00851141288985386,-0.1326874215823298,0.0008926009561984606,0.07912126148768478,0.04891751580801107,-0.21081117973205127
430,4.3,0.008886608235053758,-0.13116878718639383,0.0020911164137782557,0.07971925522113077,0.05481622034956557,-0.20043679392493613
431,4.31,0.004598725389618907,-0.12040912004978337,0.0024837930674476735,0.07752081917146958,0.056880450956303015,-0.19285206308246736
432,4.32,0.0001801290784228509,-0.10771345796248705,0.0026047533813930157,0.07391049118466395,0.05700869058466406,-0.18667580363298414
433,4.33,-0.00014233899929664987,-0.0987110274052899,0.002723544209707774,0.06988614431377183,0.05919598800651098,-0.17675230462672328
434,4.34,0.0005493724456894788,-0.09035034766545012,0.002949983968864143,0.06562535460805577,0.06255919667412711,-0.16468878742896412
435,4.35,0.00038978473554974634,-0.08090742351647723,0.0022812107503082796,0.06156662766243842,0.0632239473315483,-0.14970850894483662
436,4.36,-0.00024316090275971754,-0.07041697892761732,0.0020492446369472367,0.057611993653841675,0.06249858325644483,-0.13322565646470122
437,4.37,-0.000812631403447759,-0.05898647449177709,0.0030193483429176715,0.05557404022788922,0.06219832205582016,-0.1159191521743495
438,4.38,-0.0014403596059666343,-0.04683795492142482,0.004504689135762525,0.05452919911840329,0.0621183244214011,-0.09818587945705556
439,4.39,-0.002152789362897597,-0.034155705894958185,0.00604920314363549,0.05348435800891736,0.062038326786982026,-0.08045260673976165
440,4.4,-0.0013039918195660118,-0.02306382893493373,0.008684125547257941,0.04151586212896147,0.0619879096270638,-0.05154129993285452
441,4.41,-0.00048652436493556756,-0.01147854123968154,0.01087343243499492,0.02245113522193353,0.06195670855236236,-0.015368512056185476
442,4.42,-0.003918450154578942,0.006601867703364017,0.0112682917037881,0.008053965222546425,0.06164714992814771,0.0038543021945423093
443,4.43,-0.007459375452716087,0.024945639420692577,0.010648462247111249,-0.003295791589207415,0.06115585373028393,0.012010604739077032
444,4.44,-0.005608476893790806,0.03936228964263974,0.010452607333608374,-0.02942276979697845,0.06069522859305618,0.02559929453468996
445,4.45,-0.0024864979093475953,0.0507106601296967,0.009808271030550847,-0.06398160686005504,0.060252104313891997,0.04228769579302742
446,4.46,-0.003170422693987163,0.0613091489003675,0.0071457165186537015,-0.08197482145423032,0.06164873211695394,0.04953921656130168
447,4.47,-0.004092459155687962,0.06998711530340011,0.004278899173895229,-0.09064987340964864,0.06408022046626806,0.0514824920539154
448,4.48,-0.002141300964941361,0.07814895919214204,0.0024599993894434654,-0.09985896517200538,0.06637870288474286,0.05120871759725427
449,4.49,0.0004950781194903919,0.08422423107546484,0.0012186753724559816,-0.1093452579096482,0.06860814667862734,0.04978415175723112
450,4.5,0.002419251655643033,0.08876396392723675,-0.00017769685468680047,-0.1139880716864816,0.06726763666012565,0.04333098455399785
451,4.51,0.0037911180811834146,0.0916254677649627,-0.0013351975496522302,-0.11524275504137553,0.06342985779529807,0.03336018934074199
452,4.52,0.00451127916752815,0.09278414965424839,-0.0020412754361187756,-0.11432610660513702,0.06166961024824645,0.018480449283571246
453,4.53,0.004864203251340726,0.09273056309549213,-0.0023963271136007358,-0.112039227749735,0.06122039983518194,0.0005028936007102844
454,4.54,0.00522083119429477,0.09581236956747807,-0.002873708853324633,-0.1134604109400956,0.0573636546692767,-0.02974960641750907
455,4.55,0.005300744172475017,0.09694140915861064,-0.003121163350917052,-0.11661376395934532,0.05191512683713837,-0.06573617667689348
456,4.56,0.003075063984322654,0.08797056152721712,-0.002535908713130966,-0.1180249458711113,0.050818224112534255,-0.08322684735300555
457,4.57,0.0008652361389102307,0.07780646371270908,-0.0019491929851812844,-0.11834872099936905,0.05243746484874776,-0.0891729765156345
458,4.58,0.00027580113587355654,0.07246343649209336,-0.0019168057428501787,-0.11867249612762686,0.05405670558496127,-0.09511910567826344
459,4.59,0.0005332820895057695,0.06986319637105615,-0.00229301527070556,-0.11899627125588458,0.05567594632117478,-0.1010652348408924
460,4.6,0.0075310598622176875,0.0939469970384908,-0.00502006824421933,-0.07917725472848547,0.056809644463818226,-0.16684540975306322
461,4.61,0.007002674538459113,0.08252800086644088,-0.004712878405292433,-0.04857778394827862,0.05986108758506345,-0.1942342198702376
462,4.62,0.0037508153118939918,0.062198575351339006,-0.003934984939160755,-0.023352050865151144,0.06384284129581533,-0.20180451767489896
463,4.63,0.0014059502976597428,0.04522753662457764,-0.0038236161345080056,0.0012189429358831268,0.06597694411136107,-0.1972426753056468
464,4.64,-0.000813486243279587,0.032688826775713026,-0.004294807937265347,0.02546657730061621,0.06719853813402492,-0.1866890708487105
465,4.65,-0.0031684362929416737,0.022564042826414974,-0.0051079928967816554,0.04851709401854177,0.07040255145726694,-0.1809200164717312
466,4.66,-0.005414750357859653,0.014903620425092426,-0.006090931053732523,0.07083762334977918,0.07481541930571663,-0.17806852096514428
467,4.67,-0.008378682216392803,0.00910357473833905,-0.007343028241970566,0.08760257149346698,0.07516697943780434,-0.17567177367597844
468,4.68,-0.011135748723776429,0.003816331079433438,-0.008506635966596208,0.09866559081953803,0.07135024705046482,-0.17374175378726608
469,4.69,-0.0092035466947126,-0.005678039728088887,-0.00935782077066644,0.1142504003768908,0.07051999969575219,-0.1661842907081821
470,4.7,-0.006854489369361612,-0.014619988859695721,-0.009643827102762587,0.13213361613023444,0.07120776962006711,-0.15576642287019132
471,4.71,-0.007470056908171453,-0.02055428053746488,-0.01009537532228373,0.1468919448891802,0.06891574510700238,-0.14749648531257092
472,4.72,-0.009248231566145772,-0.0256187277918107,-0.010257367941740035,0.15842376431244684,0.06354702227241553,-0.14144432942655247
473,4.73,-0.010067902453757088,-0.03257365412152316,-0.00970532360265973,0.17298127307841216,0.058380984901334726,-0.1386784291190126
474,4.74,-0.009948187085339908,-0.04090199337003131,-0.008478117857551943,0.19059732604822746,0.05341983388156002,-0.13923446864517705
475,4.75,-0.008745025901351164,-0.05056855210838672,-0.0059221752469343445,0.2069570614588849,0.049278626216618084,-0.13632968492414302
476,4.76,-0.006796033445560134,-0.06064647840413631,-0.002779748894870396,0.2220574605257009,0.045959332134834524,-0.12995576200097125
477,4.77,-0.004153940822182994,-0.06899336268827447,0.001475907641088234,0.23102316771574355,0.04495291288170363,-0.1201617481378466
478,4.78,-0.0012328282449224548,-0.07621909382355192,0.005894458227948046,0.23256923210122205,0.046743815062961776,-0.10623128314672776
479,4.79,0.0015526610032471772,-0.0822239368361283,0.008241212194050546,0.23411529648670054,0.04853471724421992,-0.0923008181556089
480,4.8,0.004056932492897951,-0.08724828805868605,0.009127564174360892,0.2356613608721791,0.050325619425478064,-0.07837035316449004
481,4.81,0.006185305813407892,-0.09131190471990762,0.009036163848677566,0.2372074252576576,0.052116521606736216,-0.06443988817337118
482,4.82,0.010817310551660467,-0.10253610966404327,0.011076249956396868,0.2271582728040536,0.05455710682568079,-0.026771834075520425
483,4.83,0.013486312394287134,-0.10825617241253949,0.011384724507169031,0.2137716690129931,0.05718469031754606,0.01772861044777084
484,4.84,0.010616889590258926,-0.09533208786259191,0.008622987544992668,0.2044379241875077,0.0602911041620835,0.03752025819022088
485,4.85,0.007197479311286097,-0.0813618081737098,0.005188194084160908,0.19703428314456514,0.06362555265641727,0.04554477005800398
486,4.86,0.005565583625063937,-0.07421428913309155,0.002364047578285121,0.1896306421016226,0.06696000115075106,0.05356928192578708
487,4.87,0.005057487232758987,-0.07068759177808463,0.0002482279671575348,0.18222700105868,0.07029444964508483,0.06159379379357019
488,4.88,0.008649718179229542,-0.07755563519606798,0.00019764605202059107,0.16177863157700256,0.07188188450272208,0.08912060545016348
489,4.89,0.011299012458610154,-0.08084695344661706,0.0003669165345164078,0.1353870306523498,0.0726733728271919,0.12553274437589446
490,4.9,0.009209388735559832,-0.06881987703122375,-0.001375555523122413,0.11167659085743503,0.07108217921528924,0.15034838456664446
491,4.91,0.005740822260546808,-0.051729621807164734,-0.002952874671714227,0.08958378924292812,0.06805343034820467,0.1681674519275511
492,4.92,0.003175344062353531,-0.0348077585784711,-0.0035696189709005493,0.06645958663182383,0.06718121786729239,0.18147822485039464
493,4.93,0.0013058067641551884,-0.019284229157714244,-0.00305813203926398,0.04274253147936824,0.06754858929339252,0.19219761593088705
494,4.94,-0.00039152041754173883,-0.003645690979832285,-0.0015892511242589233,0.017717631673139427,0.06674380684911996,0.2039558337430812
495,4.95,-0.0015866946324946316,0.010367885762017082,0.0004981069428070025,-0.008015524379228652,0.06530425077348939,0.21627662259095728
496,4.96,-0.002691856166175389,0.024926340984933,0.0028367982238618455,-0.032502541096634405,0.06368294398533407,0.22184463004033186
497,4.97,-0.003246107620210645,0.037437160774034,0.005147658922010406,-0.05632561233146367,0.06196480006095314,0.2238147423117188
498,4.98,-0.002098056875691202,0.04935104931873536,0.007426460984883435,-0.08205106276162992,0.061297514822176,0.2284607768807015
499,4.99,-0.0003442976165101133,0.060221600013352264,0.009326907043276447,-0.10975574835136023,0.061723542874134174,0.2358908407897048
500,5.0,-0.001682680105228499,0.06617887037666655,0.010378090262638483,-0.12687723305091836,0.061853411481400986,0.2390321681487789
501,5.01,-0.004176658945337978,0.06980930488655437,0.010684038987597292,-0.13335608452477984,0.061685457494267015,0.2378606745970337
502,5.02,-0.0036145277151603027,0.07647597826950825,0.0107835049973474,-0.14310601358093658,0.06226817795223275,0.2350349252736416
503,5.03,-0.0016889139337296364,0.08401344977734251,0.010436021101957824,-0.15612832891216,0.06360187318514224,0.2305542583439268
504,5.04,-0.0007147432846679094,0.08881322913118272,0.00915239189765251,-0.1680211586263022,0.06404317969375413,0.22341845790505488
505,5.05,-0.0003409384939428578,0.09127154411097209,0.007238679517790716,-0.1792334008532288,0.0639467647915713,0.21468276932604988
506,5.06,0.0015266879693397947,0.09829508548242138,0.005009125169900009,-0.19143787466649628,0.06852169000755481,0.20005551662202264
507,5.07,0.0027703785360570234,0.10276353364709197,0.002589125053470429,-0.2042479133287544,0.07594756193011648,0.18183260722977726
508,5.08,-0.0009666623465616289,0.09087908848764131,-0.0005287763704331537,-0.2072978461785879,0.07711276564690013,0.16969666802098587
509,5.09,-0.004953707313097542,0.07740777155212447,-0.0034005551803035555,-0.20530189908170676,0.075041264684483,0.16070763330024232
510,5.1,-0.004771944026963159,0.07404154041795524,-0.0057656417385122645,-0.19597883851528292,0.07743869787555263,0.1479741027558773
511,5.11,-0.0037475096834309633,0.07310480881385968,-0.007500041094988369,-0.18302564082838735,0.08205021493838863,0.1333854032772132
512,5.12,-0.003465212664184753,0.07033644482562115,-0.008702428841217594,-0.16990380473243147,0.08223860391199532,0.12482585785383148
513,5.13,-0.003674709952555087,0.06603511185826241,-0.009439150591098322,-0.15667590691675215,0.07964515585147362,0.12005822704316275
514,5.14,-0.0041971020583087895,0.05970924703179821,-0.009674113592073328,-0.14420497478597485,0.07969161369234662,0.10785288163358504
515,5.15,-0.004779611716978619,0.05224536475344714,-0.009648407389440773,-0.1321738606618402,0.08127192990280467,0.09132601825547126
516,5.16,-0.006077165700904009,0.040998934826374324,-0.009534765478315124,-0.1216588998351028,0.08175523689483652,0.07833954690689056
517,5.17,-0.006970976207171657,0.0297243144855024,-0.009333767680010307,-0.1120001113210405,0.08161906238643024,0.06735233621150731
518,5.18,-0.006838253844936897,0.020550313678294095,-0.009042503978802787,-0.10234132280697822,0.08148288787802394,0.05636512551612406
519,5.19,-0.0006110288895314546,0.023776765466158794,-0.00990119642425798,-0.08033327923987713,0.0749834238153623,0.032609758967245966
520,5.2,-0.003671170812750676,0.005827247659199654,-0.009396569145058552,-0.06592082841909984,0.07310620526047895,0.01573728072885127
521,5.21,-0.003421767767226279,-0.008670390559197189,-0.00950745454876067,-0.04089607134384947,0.0661573828378362,0.00675093552394088
522,5.22,-0.0020699259068290067,-0.020786124220526878,-0.00905640038030984,-0.01050220505766248,0.05661189014819841,0.0012966865287194172
523,5.23,-0.0029436408982013683,-0.03672958580055409,-0.007045331073113279,0.010831630000974856,0.05145551673948191,-0.0011172594352463617
524,5.24,-0.0034132900855058127,-0.05057833387292735,-0.004712793395068127,0.02802615009317925,0.048304428596640886,-0.002142162522461292
525,5.25,-0.0037461241013591632,-0.06096685215094476,-0.0019349111922065286,0.03771944139406407,0.04690409667704206,-0.005019310439113321
526,5.26,-0.0029608499557429915,-0.06855551588320109,0.00034050975985132413,0.04307863679185448,0.04651532507450113,-0.00896665724585665
527,5.27,0.0006707649566356846,-0.07517749605864367,0.0013127907386708349,0.05193921671657035,0.047523638576282536,-0.012911071753672327
528,5.28,0.0046948691760359965,-0.08017981468820218,0.0016606733661224252,0.06273787852250967,0.0493052648366006,-0.016853863179139197
529,5.29,0.00756584991348699,-0.0844837632766644,0.0021715780718191083,0.07028959220265155,0.04794073844155798,-0.013696227756796684
530,5.3,0.009477055915138465,-0.08736447668842418,0.0025168262741053706,0.0759973977436215,0.04478954460880505,-0.006506333625961602
531,5.31,0.010445896843221517,-0.08933313589574533,0.0023554605106493012,0.08341227565701775,0.04368809084370933,0.0011225647780286811
532,5.32,0.010751695126324727,-0.08991548657298204,0.0020861583220702974,0.0918164520279139,0.04377452150575535,0.009005879021255485
533,5.33,0.010536690286404523,-0.08985254356198467,0.0022912402985020967,0.09176215291590002,0.04027048383686627,0.020018264266937168
534,5.34,0.009935458227893545,-0.08831119959382754,0.0025607756785351998,0.08735045734299307,0.03491681096719244,0.032642595180550155
535,5.35,0.00991624351537019,-0.08664814046593272,0.00332270646133207,0.0771378935894746,0.03367334292973918,0.051640905599134916
536,5.36,0.00936193766875256,-0.08309916482621876,0.003848376225652574,0.06423049183523853,0.034339302210359114,0.07360029729917407
537,5.37,0.006923733851941959,-0.07451619332142823,0.004331916330689781,0.05566732064699169,0.034201408718859114,0.08874707823377002
538,5.38,0.004171611988226524,-0.06489217225289812,0.004502762833729322,0.049612017577281266,0.033599461418848245,0.09996102708610696
539,5.39,0.0020930243298330335,-0.0566261871354278,0.004223093791028963,0.04355671450757082,0.032997514118837376,0.11117497593844393
540,5.4,0.0007295499828877925,-0.04878862214368649,0.0037665908031846353,0.03945752691900855,0.03569634538433945,0.12002173841477218
541,5.41,-0.00022331893365058406,-0.0409575208866956,0.0033432251555207543,0.037419713028078484,0.04187356950661846,0.12637393664889454
542,5.42,-0.0019038330165256688,-0.031460697834207935,0.0029589124617833457,0.03304013183180432,0.04635835482087942,0.129844175562386
543,5.43,-0.0037057965588684068,-0.021179919438486797,0.002754997161530709,0.026283866791682056,0.049125466495006,0.1303894841720254
544,5.44,-0.0038353709010218754,-0.01253173374066227,0.0034891483377650317,0.015546892031166503,0.04950803595176408,0.12813577974185772
545,5.45,-0.0032133269370137624,-0.004369236998394043,0.00459888381991148,0.0008260217081445012,0.04750415479402092,0.1230808221654086
546,5.46,-0.002741200201357044,0.005310752123929587,0.004907592538959493,-0.01489877664831046,0.04859590268164291,0.12129947240738333
547,5.47,-0.002519296699128917,0.015835209411233928,0.004823868261410781,-0.03163314082097738,0.05280066381303965,0.12281011414586372
548,5.48,-0.0029087727883058668,0.027324907280945863,0.003875210082463296,-0.04543214285127215,0.05560661044442376,0.12255174374352895
549,5.49,-0.003646106580148343,0.03801514264951705,0.003273525366059598,-0.0577364404039992,0.05770027211911567,0.12139258146629076
550,5.5,-0.004343687946232077,0.04736642756913721,0.0025107467979068815,-0.06295756874120871,0.05810001784505343,0.12497067061598455
551,5.51,-0.00503362395305016,0.055670617038449985,0.002526340060345431,-0.0648759876788074,0.05770993179429934,0.13075762480052353
552,5.52,-0.0059386081824547845,0.06358323616197045,0.0037743795615014144,-0.07307796928030412,0.056875369932566325,0.13948968259447353
553,5.53,-0.006584827504194915,0.07076045092816685,0.00531309827345395,-0.08462046949206127,0.05580451223074938,0.14978744028553884
554,5.54,-0.006738349838078756,0.0783417488114106,0.00738498386617815,-0.0943212430309904,0.058165790188625915,0.14986672652105315
555,5.55,-0.006463089913511525,0.08463172744405284,0.008743758230954322,-0.10305751640619716,0.06232445505224165,0.14459466636121032
556,5.56,-0.007253002181546998,0.08704648596145148,0.008405731784609845,-0.10419166120613356,0.06478419007142985,0.1412066913891345
557,5.57,-0.007351710141997987,0.08821453465058358,0.007191364263609997,-0.10149100276959007,0.06638692016082033,0.13876912075504316
558,5.58,-0.0060115729180784195,0.08937087060256921,0.00560481659922131,-0.09879034433304656,0.06798965025021081,0.1363315501209518
559,5.59,-0.003878424854145272,0.08996355032506324,0.003733417094997817,-0.09608968589650307,0.06959238033960129,0.13389397948686044
560,5.6,-0.0014290419168923318,0.08955118700000086,0.0016704661109447913,-0.0933890274599596,0.07119511042899175,0.13145640885276913
561,5.61,0.004912213709860794,0.09909415238620431,-0.005122886493535714,-0.0386045419525779,0.06002321650818208,0.060521163657965976
562,5.62,0.006282581370113728,0.09482014976273452,-0.007277493972454585,0.004605592903756653,0.048810288287599035,-0.003587874658595761
563,5.63,0.0026600069286146777,0.07664994188719468,-0.004639724644470477,0.009493827201533078,0.04245409806935559,-0.03054086862872005
564,5.64,0.0017855529842730374,0.06453439370645889,-0.0038736012839831633,0.010875863888442416,0.03767639913191267,-0.059131953923610536
565,5.65,0.002372315470653604,0.054814955994269304,-0.004313866968852413,0.010470925464499205,0.033703196958356,-0.08855791185020552
566,5.66,0.0033996755047188097,0.04467829083783709,-0.005890532314561591,0.023255071318045373,0.026401129531057308,-0.10549843787633464
567,5.67,0.004599821726561889,0.03451743140197569,-0.007714114463105547,0.04293401332274445,0.01735884672137756,-0.11591201282673673
568,5.68,0.0067548428485897,0.02051644979303508,-0.007951302978014633,0.07735250641125119,0.017960300660544187,-0.10906292205820582
569,5.69,0.008372783366101547,0.0073556178737050615,-0.008220823401120528,0.11975662739191027,0.0237865604793664,-0.0928612245464849
570,5.7,0.00861138509754589,-0.005094468259380581,-0.007804041316271674,0.1457827345302905,0.025352225876010416,-0.07660081904685538
571,5.71,0.007916919720903496,-0.015036393144243279,-0.008221675370323402,0.16421786115667053,0.024943165305284547,-0.06031320321535012
572,5.72,0.0063887190621068546,-0.021575050308510618,-0.010202478808637422,0.17921348987543667,0.02415992629907272,-0.04690114666365065
573,5.73,0.00438513572828651,-0.026705007309010695,-0.012699314882457728,0.18991245386660785,0.02290925881092453,-0.03708127550107429
574,5.74,0.0036708830759168655,-0.03984259772953114,-0.0131269217455765,0.19754922221885451,0.0223678469243862,-0.013278945528382791
575,5.75,0.003670318891699802,-0.057441407420296096,-0.012021625987736675,0.2012296309981888,0.02274279392537358,0.028588734046100843
576,5.76,0.0009580717028978719,-0.05997290004872068,-0.015087034703251637,0.1971318770432561,0.01958773331513748,0.059458082650071076
577,5.77,-0.002257287765118849,-0.05810517485348897,-0.01773239419113852,0.1885978342926485,0.014419326655283969,0.0840545138412108
578,5.78,-0.004896306516198321,-0.05816213374578849,-0.018524540879442303,0.1778188851205843,0.01110432873317968,0.1064186899771216
579,5.79,-0.006745205403729285,-0.060227519461996996,-0.01702530508669279,0.1655074464058902,0.009054563731998932,0.12725901304908088
580,5.8,-0.007561604392875984,-0.0641762496934992,-0.01334073087474334,0.15143336480541392,0.008156800205690547,0.14872880411241662
581,5.81,-0.007653221669517799,-0.06928079821590825,-0.008304577342489258,0.1355767875432899,0.008424013231204015,0.17083515291119905
582,5.82,-0.007805277121067396,-0.07445287127348425,-0.0018448630001747304,0.1205914723036177,0.007123077607432475,0.18894275736046304
583,5.83,-0.007780886817922718,-0.07929312252213322,0.0049135979008670325,0.10653131158263153,0.004156994448853144,0.20280427244889812
584,5.84,-0.007069050201506628,-0.07913376886235261,0.01205989301150949,0.0955978254259049,0.0029001972527885273,0.2126221472027777
585,5.85,-0.005863008734515061,-0.07827551511330355,0.018057827064335414,0.08692198460204217,0.002877606366492156,0.21952027270182836
586,5.86,-0.00407629837492886,-0.08307342975294253,0.022337664380367703,0.07247231968402605,0.004746929430078636,0.2272143457669921
587,5.87,-0.002121757460738179,-0.08911968843427392,0.024858086080622503,0.05218379966838256,0.008529475208872473,0.2357133312139776
588,5.88,-0.0009680978424409814,-0.0883445336871995,0.026360309554142904,0.02601821304603733,0.009168228167428473,0.2407163719279009
589,5.89,-5.595336799072304e-06,-0.08434655758278065,0.025902309119215233,-0.003393353549397737,0.008070623650913655,0.24378855710623976
590,5.9,0.0015280845508639706,-0.07623169021143797,0.023892562799093672,-0.034056683471219845,0.011900016599371172,0.2403771133804269
591,5.91,0.002909455481602416,-0.06720284840903593,0.02040996920371292,-0.06535457213776256,0.0182270616684084,0.23367891142170766
592,5.92,0.0035377799785505817,-0.056077588102953956,0.015404759326948361,-0.09892204310637412,0.018161671267960762,0.2261241659995742
593,5.93,0.0038292074593955813,-0.04507018935088463,0.010176395666528776,-0.13358277412299666,0.01501703835583803,0.21815682274078949
594,5.94,0.004169772492444971,-0.028166238402701785,0.003943976952368199,-0.17410571056455382,0.0122720046317698,0.22072663147501867
595,5.95,0.0043230618639265896,-0.013129800171135568,-0.0010270020632218348,-0.21734193225545176,0.009711922901704558,0.228173495344692
596,5.96,0.003977708737733242,-0.007860852122887396,-0.00516175768865877,-0.23822182028413125,0.007417004639547683,0.22840825680902455
597,5.97,0.003491773817704039,-0.0031725170312881593,-0.007441527647774145,-0.2464661282761429,0.005271954163056343,0.22456680888445665
598,5.98,0.0030876679159840817,0.006257766923165077,-0.0074444699315178485,-0.2547104362681545,0.003126903686565003,0.22072536095988876
599,5.99,0.002657281016423256,0.04110298265626514,-0.010985245728253192,-0.2662920361888384,0.002531420409116103,0.22835443975906214
600,6.0,0.0016999403429578763,0.056560853415014836,-0.009185815333707955,-0.2756712107667316,-0.0005369212539324724,0.2286266369669326
601,6.01,0.000654224994353891,0.05963481111742196,-0.004249086900663895,-0.2824823920244584,-0.006268896143953226,0.2202885573477336
602,6.02,0.0007536365033866377,0.06160770305166269,0.0013008443396625765,-0.2919766877535939,-0.00810831614279283,0.21247586451280664
603,6.03,0.0013624133316697566,0.06452455045448684,0.006231348443281332,-0.3042203745213604,-0.005959029864194121,0.20520153622843665
604,6.04,0.0014853561623479547,0.07991863852614922,0.00880869820091643,-0.3213059065687673,-0.00407105932086011,0.19573385533839652
605,6.05,0.001407897391376572,0.0956451086210259,0.009468640464808553,-0.3407924434182697,-0.0023126716739213828,0.18517852091241085
606,6.06,0.0016439223396749803,0.10739807091831764,0.010035725869816858,-0.350476453630218,0.0021249719057484994,0.16883818760606126
607,6.07,0.0016902945364032779,0.11414575370822894,0.009057443366726826,-0.3556129295259009,0.0078055611816305066,0.14981410939385992
608,6.08,0.001689128095005421,0.11616980032377547,0.007035640957281904,-0.34675933978945944,0.010866593137990302,0.13647885320660366
609,6.09,0.001379209388013257,0.11456802125993491,0.0037720175364813133,-0.3299987024716123,0.012447077046017855,0.1263588633101718
610,6.1,0.0011314527319704797,0.1089681705263898,-0.00024576808517872036,-0.3119932917403473,0.01588598136564929,0.1192162910738478
611,6.11,0.0005600556502946877,0.10156290958100667,-0.004722629390046754,-0.29331732373559793,0.02032601352972221,0.11367764855410135
612,6.12,-7.689042321250002e-05,0.09287499816401314,-0.009204191866668812,-0.2743150344685056,0.02539519299260035,0.10324125696254892
613,6.13,-0.0009808550805185184,0.08364028435442683,-0.013289612872347978,-0.2551374196346356,0.03080240009718858,0.09017340756838896
614,6.14,-0.0024133362472234386,0.07292270598359973,-0.01737623114216132,-0.2348047889275079,0.03362135273099056,0.07322487822115473
615,6.15,-0.0037854527369635743,0.06200515511233311,-0.020317869766618372,-0.2138975905757317,0.035152766977258554,0.054345887837066266
616,6.16,-0.004069271431707201,0.04969367115895461,-0.022903899051825057,-0.1924612771170548,0.037674112319649455,0.04400043489329843
617,6.17,-0.004183870363277856,0.03767097420605956,-0.02364369141141428,-0.17078277394472366,0.040648574810994584,0.03756100346011467
618,6.18,-0.00487735457019987,0.027024868677594464,-0.024191520292674466,-0.1403577469224779,0.03815259131632832,0.017562729747272268
619,6.19,-0.005402129918457263,0.016201759967680487,-0.0225788421828074,-0.10577876609540547,0.033058549403526864,-0.008874994133785598
620,6.2,-0.005473996533300874,0.0016617537084906847,-0.01863806379631789,-0.0711647080211576,0.02913721830256401,-0.031354789329647005
621,6.21,-0.0051935533838465,-0.017360550265766588,-0.013732379350861962,-0.03647692679962036,0.02768061687313292,-0.04551605947250248
622,6.22,-0.005074937355457233,-0.033465564308316195,-0.007628532882940799,-0.005845296587689421,0.022378810027208262,-0.05603123908308608
623,6.23,-0.0046758084813031285,-0.04656817701442217,-0.0013093766530577755,0.02126231081660562,0.013736251923335836,-0.06337866035232563
624,6.24,-0.0037991730072716202,-0.05776797412395826,0.005810559524254664,0.040126488914470036,0.008609526657700555,-0.06989420520911065
625,6.25,-0.0023300816800045226,-0.06597070339693506,0.011779404803113574,0.054155515791348585,0.005544999393487253,-0.07592181620950278
626,6.26,-0.000264092373386933,-0.07058756273272637,0.015443302190681796,0.06818454266822714,0.00248047212927395,-0.0819494272098949
627,6.27,0.0017065171166763108,-0.07626263732493938,0.017431223042354796,0.08476284179476251,-0.0034747112159659588,-0.08265174480632377
628,6.28,0.003616452056620279,-0.08061156705735237,0.01793868061259595,0.10256242369258,-0.010814724474893955,-0.08080286800319092
629,6.29,0.004825460822340805,-0.08418239781972307,0.01812265844626601,0.11336709546637888,-0.015480026187845681,-0.07475703404578947
630,6.3,0.00587686494147055,-0.08636448691633102,0.01719405115785537,0.1207280710009392,-0.018828528409650457,-0.06664497689006953
631,6.31,0.006969618599964397,-0.0886854851169235,0.015503007242289141,0.12837610941266278,-0.020865948644610333,-0.061336498884284316
632,6.32,0.007827184722166878,-0.08987374366766844,0.012977222850247263,0.13618625233442894,-0.02216300040976529,-0.05761120303342233
633,6.33,0.007991197497619461,-0.0902179138800649,0.00979744826517856,0.14108384649180014,-0.02491429666196666,-0.05029296345780592
634,6.34,0.007746433734237147,-0.08917428055774819,0.0063826616999789875,0.1442435842333092,-0.028533309926477225,-0.04083089014445883
635,6.35,0.006733647500911321,-0.0897249344624718,0.0028078343386131587,0.14331153470384048,-0.02937896999987175,-0.03238726305882122
636,6.36,0.005525957286115441,-0.08853639604550148,-0.0003678218280657444,0.1397102227576797,-0.02841544329228045,-0.0246080156339564
637,6.37,0.004883380486881191,-0.08030149551422566,-0.0031547450007425254,0.1316890408730842,-0.029020449651138695,-0.018357901887583752
638,6.38,0.004300151961101804,-0.06920694775449364,-0.005208975742631138,0.1198340035516952,-0.030986022974265483,-0.01343417953926825
639,6.39,0.0035401506621091997,-0.059309461887190315,-0.006269917288117604,0.10610720719361402,-0.032125320815724764,-0.006741019215076027
640,6.4,0.0024937671255175547,-0.05025922346150226,-0.006488749923690381,0.09053688794151403,-0.032450807831452766,0.0016948864914703658
641,6.41,0.0013191373893520334,-0.039329870523605745,-0.005725797048418579,0.07739628212500924,-0.032385931511039606,0.006930847541263253
642,6.42,-6.546937432843226e-05,-0.028054523820715604,-0.004397138744244185,0.06668733429266757,-0.03193037943885013,0.008964302954185186
643,6.43,-0.0036014477939168635,-0.02261114516939034,-0.0029564826075352242,0.04318325873911805,-0.033454550232386346,0.0137710163521456
644,6.44,-0.0069939937008326545,-0.017946860531878647,-0.0015117713663218334,0.012428677628995008,-0.036100553644648835,0.020149228125773286
645,6.45,-0.00716230595118178,-0.006719948983856163,-1.770449272371806e-06,-0.001953409734605911,-0.03588098830403974,0.029019465359658287
646,6.46,-0.006686511889064951,0.005434975276929946,0.0013329145835719643,-0.007237403186791616,-0.03406904406093262,0.0392745057895668
647,6.47,-0.00825438755051481,0.015037389796243007,0.002647707100818975,-0.016216886956541776,-0.037025797551622816,0.04736381194411615
648,6.48,-0.009851355629794525,0.023712835969471352,0.0035934992885441157,-0.027107753899190932,-0.04244901904026707,0.054332956037567146
649,6.49,-0.009673118945898878,0.033692869585822724,0.004712190353850756,-0.040790840578125945,-0.04103669911123353,0.06662880119629967
650,6.5,-0.008933637104829466,0.043641026541301954,0.005247486045615349,-0.05587864083850525,-0.036185546005442513,0.08160441014061724
651,6.51,-0.008774847693005343,0.05425355291320364,0.005481573197319771,-0.07236549461901692,-0.03688598796890949,0.09086908113257228
652,6.52,-0.008400696684806815,0.06403676169056394,0.00501382754773972,-0.08952259456898706,-0.04024603892946664,0.09739780655024803
653,6.53,-0.007051815088275726,0.0744284349759917,0.004013344629436153,-0.11072511736689856,-0.03940227938694077,0.10484201459864413
654,6.54,-0.005413681850495803,0.08318669264025323,0.0026123790839728805,-0.13408304939525825,-0.036318721360552766,0.11277399358885265
655,6.55,-0.00486577292968619,0.094432331989817,0.00023673508033708016,-0.15126928672832907,-0.03561795523616003,0.11630982190904815
656,6.56,-0.004177117254108237,0.10264440424465854,-0.0019748481054796827,-0.1647414351666057,-0.03635113900377372,0.1172000730920918
657,6.57,-0.0007830340320797418,0.09864980386836494,-0.004627788646315966,-0.16736460364177766,-0.034461068198706625,0.11748196309905892
658,6.58,0.00262748494932796,0.09209178864698497,-0.006259037676332338,-0.1641383067004873,-0.031156612174599838,0.11743584183931895
659,6.59,0.002715379826628543,0.09432937656669187,-0.008265804547527907,-0.14870588408682492,-0.029240041847534943,0.1049878828467204
660,6.6,0.002086716721554609,0.09737742381961101,-0.009015844440536186,-0.12499951051403785,-0.02826425310034408,0.08413330901507005
661,6.61,0.0030276208611948463,0.09210614845082246,-0.007108330812738686,-0.10636437613311216,-0.02834551052181347,0.05751290176523534
662,6.62,0.0047031685230236615,0.08314560040652155,-0.00392201568366391,-0.09181682356784067,-0.02927878113647965,0.026245047423950958
663,6.63,0.005482136192709611,0.07362445839949018,0.0003581927855988683,-0.07799787242599998,-0.03399084728490629,-0.00098971855823788
664,6.64,0.006401404440177607,0.06482255711215765,0.004042355485883288,-0.06451490405627318,-0.04044544392786069,-0.0263646910189034
665,6.65,0.00981236991112604,0.05407988602818069,0.007540409651668949,-0.05786124705676931,-0.04092659586779188,-0.0417107597821812
666,6.66,0.012592716869043837,0.044523899681171375,0.00939867047947025,-0.05438899602832502,-0.038625043722966726,-0.052384905949402386
667,6.67,0.012362914619536015,0.03956549199773833,0.00960257135837574,-0.0483220428880862,-0.03513117463684859,-0.0709273074630893
668,6.68,0.011004150318997541,0.03473023012108521,0.008306262495573013,-0.040705562324752066,-0.030925267051529925,-0.09416854410541944
669,6.69,0.009254623697413573,0.02640226775329586,0.007032921553244451,-0.01725704581512139,-0.028055797518220675,-0.10704114361669634
670,6.7,0.007652540627622802,0.015956507763483577,0.004840656975366739,0.01580877721131603,-0.02599815878358424,-0.11361522525009987
671,6.71,0.007967469553181797,0.0017546343030201278,0.0008469868871846383,0.04326145534575632,-0.023313467332025408,-0.11858974745934844
672,6.72,0.009202244945707433,-0.01462102441152529,-0.003856459828852148,0.06350895251698223,-0.01982387445963517,-0.1215110329654285
673,6.73,0.007253732257813183,-0.0326617595154729,-0.005798027161767649,0.1045295043641448,-0.017095703872052937,-0.11631929572729224
674,6.74,0.00439067506216525,-0.04707287549378243,-0.00755598752706074,0.1558279053857992,-0.014744260902215782,-0.10711349192961103
675,6.75,0.002200868743556887,-0.05764510377827431,-0.012191999387404397,0.1888923000767628,-0.017028936682730658,-0.1016758633909002
676,6.76,0.0002424649439960497,-0.06460796970900627,-0.016270222341615938,0.21297982760089326,-0.021596041318253947,-0.0980933624718496
677,6.77,-0.0010204385739101425,-0.06593047745145031,-0.01922289467492882,0.2254807940293893,-0.023579666760912363,-0.09655289985882803
678,6.78,-0.002341029483876828,-0.06695525115601655,-0.020023644229541733,0.2325292611187633,-0.024347537289281428,-0.09597339644864368
679,6.79,-0.004806668661022203,-0.07991014863345419,-0.021662165841742676,0.2355053133792652,-0.02523008026175093,-0.09063632059649702
680,6.8,-0.007088646491542414,-0.09202645910329019,-0.020995277211345694,0.236206500498452,-0.026176679661847616,-0.08264164816829164
681,6.81,-0.007795811898282162,-0.0865963660304378,-0.014864519130604919,0.2352223428830717,-0.027287248333773446,-0.0818048718354206
682,6.82,-0.007966290777620838,-0.07931589782475985,-0.007218700941028994,0.23340508299902016,-0.028478870554893964,-0.08450639799558092
683,6.83,-0.008134297070354839,-0.08314918917280573,-0.0021234587137361725,0.22928184200192275,-0.027835633793312664,-0.08141739845605171
684,6.84,-0.008204902451514716,-0.08889139905963893,0.0024962511683018747,0.22398543137398788,-0.02625891114010937,-0.07538246459857544
685,6.85,-0.0084259356157562,-0.09251348605999157,0.008647939471365714,0.2228187183415887,-0.027379303649265874,-0.06975584833547008
686,6.86,-0.008413463501654974,-0.09350657580755505,0.01428158091574,0.22421116031413274,-0.030171086280092036,-0.06438226464704291
687,6.87,-0.007925421771883882,-0.09149727973786517,0.01804974982322429,0.2256036022866768,-0.032962868910918215,-0.059008680958615764
688,6.88,-0.0065144935729501835,-0.08869214258936317,0.021996157552772073,0.2233474595517724,-0.03056549609129935,-0.045906805360168806
689,6.89,-0.004923380534095964,-0.08397396730509854,0.02441725441057889,0.21832875285545605,-0.02423910010598595,-0.026953372945648164
690,6.9,-0.004876860059775823,-0.08029136139570313,0.02700036549737474,0.1989480594153541,-0.024823303609130216,-0.0027257325717515817
691,6.91,-0.004841492962190796,-0.07308135703651923,0.026475135232793816,0.17249035175802035,-0.02881277490021279,0.02410082711456477
692,6.92,-0.0031704279173980082,-0.04844293348088946,0.020467068624386443,0.15078780219689802,-0.029178745101490763,0.03293223948862675
693,6.93,-0.0013382860217161087,-0.023991728340827218,0.01269478286231401,0.13166038295672386,-0.027582427754058444,0.03201847651076187
694,6.94,-0.001013115737521672,-0.011853911273350289,0.007341603599528786,0.09982553975271934,-0.028497812612912125,0.03667930395375788
695,6.95,-0.0008606899989065946,-0.004673570426495126,0.0023799884317112965,0.0619914754899773,-0.03059898121614374,0.04397191580418815
696,6.96,0.0003917989025215688,0.0051761931407798625,-0.003656128252938957,0.026651921332744032,-0.02856879069576161,0.050025487882305764
697,6.97,0.0016481524386816131,0.014152172062350074,-0.008985825417287775,-0.007491493269532308,-0.024557577106932658,0.05548492948223645
698,6.98,0.0021062411652871716,0.023851851735522574,-0.014490095261179382,-0.031984693946906964,-0.02504423993989807,0.06046544268711813
699,6.99,0.0023007333781324443,0.032033661953639395,-0.017858271817040236,-0.05182513845150777,-0.027699509857508072,0.06521504525481374
700,7.0,0.002505810483409277,0.0380678265494225,-0.01825561425684158,-0.07166558295610859,-0.030354779775118083,0.06996464782250936
701,7.01,0.00223259464444622,0.04594840205437749,-0.01832511044721638,-0.0936609765878396,-0.03226458623536372,0.08297508143801934
702,7.02,0.0018347333483778568,0.05466810688148694,-0.017398781551355446,-0.11781304399586218,-0.033428332628835364,0.10425295741070567
703,7.03,0.0025779103720238545,0.06073785227032065,-0.01293484314920397,-0.13209941491091315,-0.036331869144787726,0.11415894782078816
704,7.04,0.0035498665553535275,0.06591490744007139,-0.006979585332938387,-0.13934948387286475,-0.04047623935611226,0.1159544089183608
705,7.05,0.002286004282217314,0.07714696130816208,-0.0024030664701954925,-0.1544249710031421,-0.044799041745482576,0.11967165900264512
706,7.06,0.0010040344202186164,0.08744670804387797,0.001848121759061054,-0.1741180645609368,-0.0492271330222321,0.12452291432300625
707,7.07,0.00243782219060615,0.08785828706771193,0.008314745924382083,-0.18570130312102426,-0.05455061881279908,0.1241250225616064
708,7.08,0.004137581508555902,0.08656739500744727,0.013719827913776777,-0.19350659984840654,-0.060291220370723424,0.12128183771521152
709,7.09,0.003461954285082446,0.09272281213373867,0.016975974961236026,-0.20244143449060134,-0.06378601327465314,0.11325970889496732
710,7.1,0.0025911214995293923,0.0982434534631503,0.018118320503795044,-0.21192759121026414,-0.066184637668895,0.10270976218272526
711,7.11,0.002297542498191771,0.10018498428075172,0.01803333447344858,-0.21530402686640746,-0.0668064264240982,0.08826232883035456
712,7.12,0.0024652521868636238,0.0987155648182309,0.01641181281698543,-0.21575614386476386,-0.06657776168771955,0.07194942686137934
713,7.13,0.0029329209094893587,0.0946476570749573,0.013724211977157653,-0.2108581427671872,-0.06415095829459129,0.05703767336873691
714,7.14,0.0034106861958510745,0.08846810003404643,0.010150162783001763,-0.2026531107429982,-0.06036543489033304,0.04299200194398951
715,7.15,0.003919775271926733,0.08044213062816434,0.005613600851772909,-0.19059415334683028,-0.05667379188852605,0.02356291097292154
716,7.16,0.004134500423183161,0.0711549334531977,0.000943814372967958,-0.1761650816392128,-0.05303988412130147,0.0008230865340905294
717,7.17,0.003851185418671824,0.058382818646593594,-0.004585970256607076,-0.15459785183863298,-0.05138229628123845,-0.02102236915913497
718,7.18,0.0031937894467115356,0.04553016161113112,-0.009214680908703563,-0.12898219794489688,-0.05084558319691867,-0.04236058139673498
719,7.19,0.002279499335864069,0.034535587666695115,-0.011946905419285057,-0.10336654405116076,-0.050308870112598894,-0.06369879363433499
720,7.2,0.00120141498148434,0.024401223264325794,-0.013300842996306671,-0.07775089015742465,-0.04977215702827911,-0.08503700587193501
721,7.21,4.701699071829558e-05,0.01443355018104387,-0.013677125803185322,-0.05213523626368853,-0.04923544394395933,-0.106375218109535
722,7.22,-0.0024071046912888484,0.0016891438914388261,-0.014560456430082417,-0.02502248866037564,-0.04961904210436945,-0.12960485716175169
723,7.23,-0.004304789407156407,-0.010600856934150311,-0.014557201878879591,0.0027318705327558854,-0.050397059369663794,-0.15364510770594694
724,7.24,-0.004134552148423761,-0.024603254946284903,-0.01278975615041618,0.0243799716009684,-0.05348924017121661,-0.17225077846034456
725,7.25,-0.003270649870202342,-0.03773909312071456,-0.010367748582808568,0.041470240460675184,-0.05830875854768538,-0.1867999710412188
726,7.26,-0.0015388128898119083,-0.048454069563619126,-0.007743374965646553,0.05683975609182827,-0.05929173650936816,-0.19858075061081054
727,7.27,-0.00024447908785214627,-0.05712759653019224,-0.005455101920384724,0.07096269743204257,-0.057495389366288764,-0.2083559942155124
728,7.28,-0.001542834978079301,-0.06582660791297387,-0.0042963553195791634,0.09419312507715737,-0.05562125787708108,-0.21137383868516504
729,7.29,-0.0033866528066058,-0.07279327953508968,-0.0035706924238296956,0.12157682108379632,-0.05371165455152018,-0.21131012024116394
730,7.3,-0.0047331940097492045,-0.08083055960367444,-0.002387547578143781,0.14818218336804775,-0.053555787411570514,-0.210128430424997
731,7.31,-0.00558023948108429,-0.08673503134199378,-0.0014308242827302219,0.17443227360365912,-0.054200416806095865,-0.2084364402475764
732,7.32,-0.00525154212055369,-0.09228377988136682,-0.0004140217842844734,0.1968102903395217,-0.04979593761797592,-0.20128263666026344
733,7.33,-0.004700332157795407,-0.09531299330218755,0.0001944917643266265,0.21729321718557584,-0.04292029804818,-0.19145568459739104
734,7.34,-0.0045640362503207585,-0.10048021469261337,0.00047785831061153937,0.2253776036298838,-0.03967546155204588,-0.17933813463336956
735,7.35,-0.004374955658826896,-0.10215621492897109,0.00046317236010270674,0.2276941709129399,-0.038119679965637185,-0.16615499516954618
736,7.36,-0.003908964094886313,-0.0984900882917363,0.00025547720943094486,0.23001073819599605,-0.036563898379228514,-0.1529718557057228
737,7.37,-0.0017147436200114908,-0.08384707025289967,-0.0004664776217644501,0.23080551622988005,-0.035424878179611916,-0.14246918969668246
738,7.38,0.0003019124958227931,-0.07023714521060147,-0.0008781003791047547,0.2307934083037975,-0.03450683398691723,-0.13338776936795171
739,7.39,0.0006836594489713825,-0.06914396254431338,-0.0010543316223506705,0.2313693748716817,-0.033153322883390915,-0.12020900411325912
740,7.4,0.00033510258013770837,-0.07354241457158653,-0.0008242772109149392,0.2325515693297721,-0.0313509023486336,-0.1028064121233548
741,7.41,0.0010073359377074736,-0.07274971670012265,0.0002628317241659371,0.2316881750296851,-0.029256190180107514,-0.08603283870955702
742,7.42,0.0018240128295941003,-0.06835793767319287,0.0019268744846012084,0.2297439920490204,-0.027007045461078797,-0.06959160783245495
743,7.43,0.0020863367090244956,-0.061011119155591334,0.004304517651900768,0.22027519823893169,-0.026161253261316183,-0.0582257850525671
744,7.44,0.0022716497650572516,-0.05193203071416502,0.006600314152524536,0.20697139746022344,-0.02603069628272542,-0.04944670408067972
745,7.45,0.0026221050795775577,-0.04185289676623764,0.008375564989733396,0.19366759668151515,-0.025900139304134654,-0.04066762310879235
746,7.46,0.0032851328688049686,-0.029370894773819267,0.01021545829550681,0.17859176042160588,-0.02372331729786764,-0.03320952171060289
747,7.47,0.003970753382108245,-0.01665131700794291,0.011420814885014348,0.16260102183971184,-0.02049000819239856,-0.0264334423667639
748,7.48,0.00428105384788109,-0.003407415376648449,0.012595809178781642,0.1444823226882344,-0.020457261388319808,-0.017708800006213804
749,7.49,0.004515079662417119,0.00912126344527936,0.012888016269004474,0.12515569984613756,-0.022241294031385504,-0.007878067869286392
750,7.5,0.005628411538382444,0.02188575921994678,0.01247023321422809,0.10785737855938447,-0.016197906919590273,-0.00026854951684161365
751,7.51,0.006522680335039574,0.03351608304530174,0.011139231336119805,0.0916734603273648,-0.0058539263075259316,0.006120574649086983
752,7.52,0.00648618216310106,0.044413234620187196,0.009055671101642373,0.0776342698130422,-0.002945306933532816,0.011708842364324972
753,7.53,0.005928591867963087,0.05402701326949186,0.006542902050437015,0.06472324600754029,-0.003947825998061225,0.016875844676613086
754,7.54,0.005432240771536196,0.06376447915952219,0.003632690651832895,0.04835113519942112,-0.002467336609832733,0.02121962841903187
755,7.55,0.0046959810262860256,0.07220496589656099,0.0009304648235242273,0.030211093411418418,0.00028147904803937224,0.025142910275255118
756,7.56,0.003665325190119172,0.08142232007068162,-0.0019205244675893174,0.012694827973641274,0.002433961388453639,0.02896757176901038
757,7.57,0.002442203464850647,0.08867700623883865,-0.00403970235289754,-0.004497081347078328,0.004276357655144958,0.032740951873496286
758,7.58,0.0011163272411078258,0.09269394338386347,-0.0050426779675948,-0.02168899066779793,0.006118753921836278,0.036514331977982206
759,7.59,0.0019979019275480655,0.0979838630910976,-0.0047770045263328155,-0.07307510458872774,0.015607845329997478,0.03580621140933271
760,7.6,-0.0004689515727826837,0.09989330128299566,-0.006558668453615,-0.07958248532167125,0.01635955807067826,0.03954960881013217
761,7.61,-0.002701635072479835,0.09929975540059058,-0.006663774053631923,-0.08545097443955102,0.01662063747383758,0.04221650075679047
762,7.62,-0.004549254559615101,0.09703995980722945,-0.005748911312504412,-0.09067929288007463,0.016390101290551455,0.04380473208323325
763,7.63,-0.004419031928574523,0.09635697927102094,-0.004940932377064645,-0.09195580393698988,0.01948331781640289,0.049806759793324336
764,7.64,-0.0041609766339483845,0.09386696540570144,-0.003745746027930965,-0.09115910730874023,0.02432025031605252,0.05812436508477446
765,7.65,-0.005804317925699993,0.08665009944119728,-0.0012069092064367895,-0.09128251216490896,0.023804869827697018,0.05631353723321299
766,7.66,-0.007532652988015303,0.07766632444253749,0.0011622539567669589,-0.09190813967395776,0.02036801505264404,0.04897426643405931
767,7.67,-0.0085758548058605,0.06813759912394818,0.0026116949110429177,-0.0929142558443273,0.01786494990709157,0.04469588732313805
768,7.68,-0.009050077659690086,0.05833178370842462,0.003240405440643322,-0.0944222782080161,0.01659365549729952,0.04445515940021909
769,7.69,-0.008065496908123856,0.05457613986360768,0.002824817406788238,-0.09571182238807567,0.01718353072859814,0.02597659110297931
770,7.7,-0.006698237882830161,0.04931583662546371,0.0018218514511158974,-0.0968986949889698,0.018648043523113986,-0.0010726630206170304
771,7.71,-0.005777902332429685,0.033791700735063795,0.0009431339713373912,-0.09541166732487616,0.019811241184793,-0.008690708675178373
772,7.72,-0.004894581336415691,0.017388980371656627,-0.0002544804232417451,-0.0926870415861158,0.020834977014948342,-0.007315140579589525
773,7.73,-0.003362219557110646,0.0061795149748570255,-0.0015257779720802469,-0.08612879513176637,0.024268858599504527,-0.0107346009492204
774,7.74,-0.0018061085920359592,-0.0029437805274762155,-0.002970704025583376,-0.07658156623303257,0.029581873223752823,-0.01789263040696795
775,7.75,0.0005362100890300273,-0.011958593780082155,-0.0037436232688168314,-0.06466355628055127,0.03627828513634415,-0.02582231822525731
776,7.76,0.0027593842347545033,-0.02128125305552557,-0.00434744230517789,-0.05037381677220056,0.04435864780688776,-0.03452397312917772
777,7.77,0.002366119806247106,-0.03520603620371202,-0.0065185572329587325,-0.04200737158464979,0.049104354857941145,-0.037916867144040266
778,7.78,0.0010109426056452158,-0.048837392869473674,-0.008959190708387143,-0.03680662136707697,0.052067860662610536,-0.0384725025772566
779,7.79,-0.00028064536038455287,-0.059478053030350184,-0.010875889140835902,-0.03160587114950415,0.055031366467279935,-0.03902813801047292
780,7.8,-0.0020263700247966183,-0.06965570884264126,-0.013073797146842077,-0.02914680409794702,0.059288387707114726,-0.03755212694258804
781,7.81,-0.0031592629265554803,-0.07766149724081896,-0.014216607255778974,-0.02794151171484765,0.0641369349503813,-0.03514704173881632
782,7.82,-0.0017448973170202525,-0.08282187042132949,-0.013858644926301357,-0.02877339605221832,0.0652028230744386,-0.02629862437507044
783,7.83,0.00015028914533521138,-0.08619053133228614,-0.012398863234882006,-0.030918723275155182,0.06382989150321626,-0.013295953381867535
784,7.84,0.0008449817853872247,-0.08858909214971168,-0.011225298877546128,-0.03366518456571558,0.06322289028593804,-0.0024379978692714607
785,7.85,0.0010154470683852112,-0.09008983150330688,-0.00934769193243753,-0.036760620951958166,0.06306053300576063,0.007174890477168638
786,7.86,0.0009545323325429195,-0.09074000921179005,-0.00705842172396578,-0.03937011680241481,0.06109517387387569,0.016673486174027037
787,7.87,0.0009655133030473297,-0.09053100187265904,-0.004157141618609042,-0.04160608991347886,0.05774392049941548,0.02608422975643867
788,7.88,0.0011616604511388434,-0.08939274229079155,-0.000576555488654487,-0.044861831067888366,0.05337106963954147,0.0368866547141771
789,7.89,0.0015847601222047122,-0.0872765882187928,0.0032086463897345215,-0.04915752553493192,0.047956399813023534,0.04910830796196298
790,7.9,0.001713131668953732,-0.0838022515295192,0.007627772217556061,-0.051300067710071236,0.042692172591052055,0.058694656303623936
791,7.91,0.0021587485952896447,-0.07928037725396166,0.011636544950117003,-0.05211957184468948,0.03752038717613641,0.06666170040364597
792,7.92,0.002308669794701573,-0.0734184062595453,0.015631395603383568,-0.056143340176041216,0.0314949558252824,0.06978275461401158
793,7.93,0.0031076727968412593,-0.06674358349234107,0.018187549034947986,-0.06163378337295319,0.02507878857955281,0.0706856735104528
794,7.94,0.004223618229659453,-0.057206796118419036,0.020212842885576447,-0.07005559462383494,0.016507213264715215,0.06667255011910646
795,7.95,0.005706595069706664,-0.04720951939607249,0.020633260804402677,-0.08034683712302301,0.0065610622831389215,0.059524302478063985
796,7.96,0.007039745395227541,-0.04089290674750182,0.018309131098266804,-0.08555387458582728,0.003390686849634372,0.055408540135508465
797,7.97,0.008438412263759666,-0.03420217172514871,0.014764266190735963,-0.08815808195289587,0.0036891314956234576,0.052845241539653386
798,7.98,0.009910651632609657,-0.025091263359010248,0.010975688036883598,-0.09076228931996448,0.003987576141612545,0.05028194294379832
799,7.99,0.011045190514323767,-0.014188647129248024,0.0072823506995473575,-0.09336649668703308,0.004286020787601631,0.047718644347943255
800,8.0,0.01160225926390273,-0.0020718651533546094,0.003912735749837382,-0.0959707040541017,0.004584465433590718,0.04515534575208819
801,8.01,0.009741098983681251,0.0248751375420063,0.004028415662280242,-0.07944191289328824,-0.002977063223783668,0.023561167671824958
802,8.02,0.008706257625374495,0.03655556769762753,0.0005116872336759382,-0.057666923428408776,-0.007652892175170085,0.0044008267561498685
803,8.03,0.00820944639187326,0.03778803372972126,-0.0048046816675479595,-0.0342164849143851,-0.007966040120621663,-0.008758666602552694
804,8.04,0.0072358583271223565,0.04080692673198065,-0.008384354940249722,-0.018804652140328663,-0.009596648682248413,-0.02156180118403669
805,8.05,0.005702115185347266,0.04665879555039314,-0.009908054276367852,-0.007200081206569098,-0.011851235790940736,-0.034196156350551565
806,8.06,0.0032983351358717595,0.0552987691275767,-0.010221358834033679,0.002341065475952458,-0.014233402107824618,-0.04625519341618317
807,8.07,0.0003843878838113747,0.06519789177548896,-0.009649455830168737,0.00943147265727709,-0.01676709490059387,-0.05763092224079633
808,8.08,-0.0015940921185167703,0.07337670468831246,-0.006648533183988425,0.016654264921623353,-0.01844224363146222,-0.07171747017444989
809,8.09,-0.003523349579109932,0.08108962310320834,-0.0031337479938313376,0.02394998395626937,-0.019644447494484425,-0.0872973229274756
810,8.1,-0.006219221200006808,0.08851875699185999,-0.001253160846561182,0.03389177801780281,-0.022745450325080324,-0.0907931631401732
811,8.11,-0.008927177077262396,0.09493580703074286,0.00019254199226883834,0.045231628226050265,-0.026849685316902308,-0.08790440433836456
812,8.12,-0.01207619699095032,0.09822758749156164,0.002119211743245003,0.05885008900102191,-0.03434542618848856,-0.08276813737338143
813,8.13,-0.014492065044912683,0.09977802418239493,0.0037896932467709186,0.07363611369009843,-0.04357898041770356,-0.0764802434185563
814,8.14,-0.016539478844487605,0.0963306264920488,0.005425947538991791,0.08983745725646287,-0.04955230751305362,-0.06333604282325031
815,8.15,-0.017374538380200234,0.09217127948342892,0.0062350238273920985,0.10674476323643854,-0.05389943018671568,-0.04677190989887951
816,8.16,-0.01533771385384734,0.09158227855487147,0.007174660639717166,0.11599557850130618,-0.057457285507728814,-0.037409858491225925
817,8.17,-0.012751051604011899,0.08979600601284081,0.00699077550802968,0.12110733569818526,-0.06058846710505606,-0.03194121396111982
818,8.18,-0.011376976256501846,0.08190397136026024,0.0059587231963949445,0.12267871768843502,-0.05940534981911255,-0.021731696595888042
819,8.19,-0.010383390778635069,0.07113507131469007,0.003856792135196258,0.12210586472694986,-0.05560926924034672,-0.008650860615676484
820,8.2,-0.009994530349132301,0.05733346138113371,0.0017879568624269253,0.11752644922530985,-0.051795319495147936,0.003900550726866953
821,8.21,-0.010153377211438728,0.040414144128250236,0.0003760948289871606,0.10618037082646296,-0.04795119060653285,0.015557819517866053
822,8.22,-0.006950184839610228,0.03173273347673142,-0.004625377359431918,0.09797591538371796,-0.044615468057069466,0.02585832067728302
823,8.23,-0.0024602415563610277,0.02574031056698974,-0.010668881485689577,0.09292946192191116,-0.041790802451293164,0.034794980622117826
824,8.24,-0.0006725063665493445,0.012420256310960033,-0.014231578081178187,0.07990986431281663,-0.042108566470707785,0.04497089672387994
825,8.25,0.00021162309881319653,-0.0036641105985698655,-0.016010003960241437,0.06311054506786165,-0.043916020005837934,0.055734290390600516
826,8.26,0.0011022462514687307,-0.019925927765852756,-0.01756678680668271,0.0320964501304818,-0.039053287206976615,0.06764393597289425
827,8.27,0.0020521559360720167,-0.035693261005944346,-0.017873695379751857,-0.008245061384140094,-0.02981372793324376,0.08030572631992812
828,8.28,0.004023795691976119,-0.045953314012022774,-0.01659866962489019,-0.029222964367120883,-0.029328772106624337,0.092820977648331
829,8.29,0.0057500952544704085,-0.05615131490395079,-0.01395060649303289,-0.04079667238799575,-0.0330956063065409,0.10526506034623248
830,8.3,0.006516728853447279,-0.06788733036035761,-0.010914793975716163,-0.0594794298834339,-0.033776063180924965,0.12305250695327725
831,8.31,0.006870654297993998,-0.07985834959538242,-0.007217984862329219,-0.08147085401591966,-0.03302007011599318,0.14332684156961847
832,8.32,0.006027117034537341,-0.0872564431181541,-0.0026212472925080006,-0.1087810065727563,-0.03177057484110949,0.15840471737789652
833,8.33,0.005492554154391947,-0.0936713708396996,0.0018810230741670752,-0.1387633087466346,-0.030273142157860537,0.17087187229462356
834,8.34,0.007235396044888202,-0.09946201403635099,0.007021208990316018,-0.16011282634616414,-0.027324033952367915,0.17738431872739374
835,8.35,0.009103714762506095,-0.10418033521812729,0.010950113324095697,-0.177364285614352,-0.0236858026815306,0.1810700129687678
836,8.36,0.009531468075135755,-0.10576117031598815,0.013643826675853904,-0.19494150161868312,-0.02342212461247945,0.18354036699148896
837,8.37,0.009437953911316618,-0.10590870453545594,0.014546956720720799,-0.20945224089473566,-0.02538330415049652,0.17961488392317718
838,8.38,0.009659681426405439,-0.1050941250902452,0.013435489868429573,-0.22054275989830247,-0.02616418531089687,0.17047724470041506
839,8.39,0.009203745618389846,-0.09060513623337411,0.013015074307478862,-0.23945896132959996,-0.02131929636980884,0.14802552848974904
840,8.4,0.008672495351119438,-0.0745921660756001,0.012063588564946173,-0.2628443466768127,-0.013261575642560506,0.11797025063713007
841,8.41,0.008630451313797992,-0.06558265878041653,0.00878965446258529,-0.2776212596899191,-0.008575798958111745,0.08992620709370086
842,8.42,0.008696392799619389,-0.059282447089921995,0.004726236469822141,-0.283689259532995,-0.007301309055243959,0.06391686428270278
843,8.43,0.008456198617566633,-0.049963269493460916,0.0011574997222968493,-0.28097239780658195,-0.005263340406911709,0.03145559586384097
844,8.44,0.007903649867445057,-0.03821802160816029,-0.0016723889517597842,-0.2683531788249632,-0.0023647731897183232,-0.008278328116831088
845,8.45,0.007446484760938123,-0.035563652542594706,-0.002471402429863913,-0.2584305525393225,-0.0022889791286164005,-0.03266157515084461
846,8.46,0.00657319664891566,-0.030172655572814008,-0.002104277728215762,-0.2499427763277023,-0.0037151754415156494,-0.048876766257825034
847,8.47,0.00507015623394549,-0.01187594717045921,-0.0019362292447134793,-0.2336278548710834,-0.0022398272054286717,-0.07042565315690523
848,8.48,0.0031924336188469734,0.012332550888018823,-0.0017426085844491146,-0.20926673604133567,0.0022182688138282897,-0.09745750577696573
849,8.49,0.0008240686570028617,0.03263775570223811,-0.0004660575267369767,-0.185851009172344,0.005567951474752603,-0.1268151436391431
850,8.5,-0.0016343445518594481,0.049614472800662,0.0011866092885113528,-0.1633825669407062,0.00780700173158184,-0.15850322297014827
851,8.51,-0.0031096409150107897,0.0619839600228306,0.0032959359170397504,-0.14416753344535346,0.011012678640100934,-0.18926761834244
852,8.52,-0.004302381751038479,0.07204867958496178,0.004853282878422763,-0.12689456987274633,0.014795367753030225,-0.21948063545895552
853,8.53,-0.00548409581875761,0.08305356143778106,0.005918560040760565,-0.09825677825926664,0.01938867384970769,-0.2557499277398577
854,8.54,-0.006704556992209712,0.09196108574612011,0.005985857779982121,-0.06295871073602899,0.024457036212039332,-0.295568456615908
855,8.55,-0.007158926677381392,0.08813880476072135,0.004839173202344306,-0.038854806533735145,0.028556854161275524,-0.3148211421099142
856,8.56,-0.007720971757899931,0.0830957840891003,0.002969345897071321,-0.02080240735273107,0.032133082163577215,-0.3229560422969427
857,8.57,-0.008483630749356567,0.08189764863787387,0.0008176669469149578,0.0030805302803103545,0.03598423371622672,-0.32803437030533106
858,8.58,-0.009478297253561802,0.08272012039797899,-0.0014020144593676728,0.02990593345174077,0.03997412941390579,-0.33157015496626857
859,8.59,-0.01062614853584164,0.0839934419390703,-0.003514947938260288,0.056731336623171175,0.04396402511158486,-0.33510593962720603
860,8.6,-0.009365256365596857,0.07532289397264738,-0.005206224271496253,0.11070163587799976,0.04769184207825728,-0.3339488757124728
861,8.61,-0.008535554559768871,0.06718947799259656,-0.00657028648378514,0.1771314978813504,0.05129936437207487,-0.3306377847158807
862,8.62,-0.011197314235203534,0.06650176372018833,-0.008094621930771309,0.2072630378180536,0.052705292865906375,-0.3287490117648517
863,8.63,-0.013937005171362874,0.06608914128368532,-0.00912737709042311,0.21678113740897484,0.05286095909201295,-0.3276679584690484
864,8.64,-0.012941908950061063,0.056805736207962115,-0.00997400499632018,0.22585313022717615,0.055133162765649314,-0.3172285356832995
865,8.65,-0.011062679293791698,0.04527561978745473,-0.009959368885602627,0.2347148043138009,0.05840321605404219,-0.3023770740738624
866,8.66,-0.008751094628514268,0.027522397881101477,-0.010011684160541446,0.2419456347847915,0.05539774391290662,-0.2832926070201933
867,8.67,-0.006745338056292893,0.010842607521004466,-0.009204070488620167,0.2482087690122158,0.04866855336839883,-0.2616963948622668
868,8.68,-0.00765561576365545,0.010252871447020435,-0.0062150042399693566,0.25198812861228165,0.04656549480475504,-0.24914204986819774
869,8.69,-0.008315018484501741,0.009791561265195859,-0.0027559574539184036,0.25438546575432314,0.047036509677934386,-0.24161878271238416
870,8.7,-0.006222132958593383,-0.005016180196296988,-0.0011945390770555747,0.2565134247598805,0.04581999546129142,-0.22966205737706824
871,8.71,-0.002696352034512084,-0.026513977213981615,-0.0005003246342832231,0.2583682077498895,0.042892160203912184,-0.2132093679060436
872,8.72,0.0008794206345709389,-0.045235607985773314,0.001623764167600789,0.2567927852224021,0.04082896435941365,-0.18916093157063701
873,8.73,0.004221501659077463,-0.060910435871539846,0.004236498261388402,0.2517844119148994,0.03963109991612143,-0.15751066934174546
874,8.74,0.006165456075518304,-0.06995143665613834,0.008028085231976428,0.24289647528977065,0.038666807010640666,-0.13356662047650095
875,8.75,0.007729389001839058,-0.07602664949434182,0.01073059678775121,0.2321303647937461,0.03781559073863292,-0.11335330298439646
876,8.76,0.009544762544222105,-0.08057989696689902,0.013053987804057619,0.2130250775038676,0.03635986299343723,-0.09089839434653917
877,8.77,0.011227222360337108,-0.08379499677296298,0.013782784267914867,0.1883091898351199,0.03449741976728439,-0.06693534258586192
878,8.78,0.01230477065091053,-0.0841804401985194,0.013334252501041515,0.16486734630713612,0.03518258871877741,-0.04665577764233931
879,8.79,0.012986966688257225,-0.08336953455803514,0.011148199297025924,0.1421353330400762,0.037287152932122966,-0.028428457456178783
880,8.8,0.013109088264288853,-0.07869964788884179,0.00739719890731824,0.11189994791760112,0.036953845060850775,-0.014608578165750832
881,8.81,0.012999499911801831,-0.07409255061924475,0.002887596108818013,0.07824281546676845,0.035508799366482664,-0.002798615137034364
882,8.82,0.013866483361402145,-0.07011554562786707,-0.0005585073886125915,0.031859489242503924,0.03488161863162484,0.013080412382097064
883,8.83,0.014723382528131629,-0.06570290694169267,-0.0032470096167714624,-0.027250030755192424,0.03507230285627731,0.03302850439164345
884,8.84,0.012659711465654404,-0.05599201117876209,-0.008923479098002457,-0.0689726857493608,0.035364945258559835,0.049313828785723116
885,8.85,0.009264578037600935,-0.043921041002674154,-0.014835531713646802,-0.0932387889063197,0.035759954488482966,0.06192170513301154
886,8.86,0.0068386144256196504,-0.03622024361770469,-0.016897619053153387,-0.11750489206327862,0.0361549637184061,0.07452958148029995
887,8.87,0.0047879030739431516,-0.025744071893866557,-0.01711340346224311,-0.15003960290337492,0.028598335614794582,0.08806750204112429
888,8.88,0.0030383237811008254,-0.013954617616971043,-0.015705604577411894,-0.1912218428916297,0.01272567435876303,0.10257808749957456
889,8.89,0.000734764545504963,-0.005606155258163943,-0.013217888388411545,-0.21563313441450413,0.003772994366049414,0.10630249154093993
890,8.9,-0.001127582439402702,0.001071133254760534,-0.009312237719898628,-0.22957654304758535,-0.0008604574319377481,0.10329451046197767
891,8.91,-0.002413621190338626,0.00464355347982847,-0.0029238384831536957,-0.2375546764886612,-0.0055599778996416205,0.10019579491612801
892,8.92,-0.0029948817454906003,0.00952769573842107,0.0036778106708239408,-0.2422366735521019,-0.010296004871851276,0.09704694368208516
893,8.93,-0.003239772960783629,0.023731184414874297,0.008777740600728126,-0.2492148787656715,-0.013653645641117741,0.08673432776890308
894,8.94,-0.0031525379989532478,0.03893311354898417,0.012639573929427168,-0.25738708429564033,-0.01629454234589588,0.07269664133325023
895,8.95,-0.004777048909620166,0.059366230381695834,0.016911731623461018,-0.2691828778069005,-0.0225224304097022,0.044152227481446704
896,8.96,-0.005848093460263359,0.0748889531631492,0.019576530765471795,-0.2827731275672692,-0.030526651514941126,0.008423860100592498
897,8.97,-0.0044091213263256854,0.07603742915942129,0.020337700394040106,-0.28705558929386704,-0.030871761963393564,-0.022640552882219046
