,ts,ax,ay,az,wx,wy,wz
0,0.0,-0.021603999999999998,-0.006232,-0.002690999999999999,0.012985,-0.011017,-0.001999
1,0.01,-0.01635,-0.017632,-0.003872,0.009796,-0.009949,-0.0030670000000000003
2,0.02,-0.031301,-0.030372000000000003,-0.015066999999999999,0.004471,-0.006744,-0.001999
3,0.03,-0.047162,-0.007476000000000001,0.009126,0.004471,-0.0035549999999999996,-0.0009310000000000001
4,0.04,-0.033714,-0.0062759999999999995,0.00812,0.004471,-0.000366,-0.0009310000000000001
5,0.05,-0.089068,0.031176,0.034918,0.008728,0.004974,-0.0030670000000000003
6,0.06,-0.054972,0.016668000000000002,0.019004,0.006592,0.007095000000000001,-0.001999
7,0.07,-0.033953,0.0026429999999999995,0.038596999999999985,0.009796,0.009231999999999999,0.00013699999999999994
8,0.08,-0.061702,-0.013969999999999998,-0.0014340000000000012,0.007659999999999999,0.009231999999999999,-0.001999
9,0.09,-0.042351,-0.004907,0.057534,0.004471,0.012421,-0.0009310000000000001
10,0.1,-0.021411000000000003,-0.0059960000000000005,0.041632,0.005539,0.014556999999999999,-0.001999
11,0.11,-0.0027030000000000005,-0.017626,0.014500999999999998,0.007659999999999999,0.019882,-0.001999
12,0.12,-0.007178,-0.003049,0.066324,0.006592,0.018813999999999997,-0.0030670000000000003
13,0.13,0.0051660000000000005,0.010036,0.041971,0.008728,0.02095,-0.0030670000000000003
14,0.14,0.007534999999999999,0.0015949999999999998,0.021312,0.006592,0.02095,-0.001999
15,0.15,-0.0033520000000000012,-0.0013290000000000005,0.03644,0.006592,0.02095,-0.0030670000000000003
16,0.16,0.005080000000000001,0.017145,0.031026000000000005,0.007659999999999999,0.02095,-0.0030670000000000003
17,0.17,-0.009699,-0.011656000000000005,0.018882,0.009796,0.016678,-0.0030670000000000003
18,0.18,0.004212999999999999,-0.009117,-0.015207,0.010864,0.017746,-0.001999
19,0.19,0.004867,-0.03728,-0.021812,0.007659999999999999,0.014556999999999999,-0.0030670000000000003
20,0.2,-0.010657999999999996,-0.027260000000000003,-0.03455,0.003403,0.015625,-0.001999
21,0.21,-0.007898,-0.004227999999999999,-0.05475999999999999,0.001266,0.014556999999999999,-0.0030670000000000003
22,0.22,0.021988999999999998,-0.018574,-0.005597,-0.002991,0.008163,-0.001999
23,0.23,-0.002542,0.009895999999999999,-0.034801,-0.004059,0.007095000000000001,0.00013700000000000002
24,0.24,0.018828,-0.004079999999999999,0.034780000000000005,-0.002991,0.006027,-0.0009310000000000001
25,0.25,0.003482000000000001,0.0018889999999999992,0.002527999999999999,-0.002991,0.004974,-0.001999
26,0.26,-0.010645,-0.008187999999999999,0.019251,-0.002991,0.006027,-0.0009310000000000001
27,0.27,-0.012118000000000002,-0.022824,0.0021200000000000004,-0.001923,0.004974,-0.0009310000000000001
28,0.28,-0.0020139999999999984,0.015222999999999999,0.019523,-0.0051270000000000005,0.0007020000000000001,-0.0030670000000000003
29,0.29,-0.029233999999999996,0.004243000000000002,0.016113,-0.001923,0.0017699999999999999,-0.0009310000000000001
30,0.3,-0.031294999999999996,0.025411000000000003,-0.005253000000000001,-0.004059,0.0007019999999999999,0.00013699999999999994
31,0.31,-0.015511000000000002,-0.029394999999999998,0.030019,-0.001923,-0.00036599999999999984,0.00013699999999999994
32,0.32,-0.009893,0.0012489999999999984,0.025162,-0.0008539999999999999,0.002838,-0.0009310000000000001
33,0.33,-0.02745,0.00016499999999999848,-0.003074,-0.0008539999999999999,0.0017700000000000003,-0.001999
34,0.34,-0.023374000000000002,0.0030080000000000003,0.026595,0.00019800000000000004,0.004974,-0.001999
35,0.35,-0.034057,0.039187,0.0029929999999999987,0.000198,0.007095000000000001,0.00013699999999999994
36,0.36,-0.06665599999999999,-0.011236999999999995,0.005479999999999998,0.001266,0.009231999999999999,0.00013700000000000002
37,0.37,-0.069691,0.036638,0.018796,0.003403,0.014556999999999999,0.00013699999999999994
38,0.38,-0.05745499999999999,-0.012185,-0.010102,0.003403,0.012421,0.002258
39,0.39,-0.013621,-0.013175,0.014577000000000001,0.004471,0.013489,0.0043950000000000005
40,0.4,0.033367,-0.027061,0.01091,0.007659999999999999,0.007095000000000001,0.003326
41,0.41,0.066898,0.008801,0.0041080000000000005,0.009796,0.003906,0.0043950000000000005
42,0.42,0.046581,0.015765,-0.015492000000000002,0.012985,0.003906,0.003326
43,0.43,0.019954,-0.016155000000000003,-0.080487,0.010864,0.002838,0.0012050000000000006
44,0.44,-0.007788,0.011397,-0.059682000000000006,0.008728,0.003906,0.0012050000000000001
45,0.45,-0.007103,-0.015978,-0.0864,0.004471,0.0007020000000000001,0.0012050000000000001
46,0.46,-0.021937,-0.0005639999999999985,-0.108661,-0.0008539999999999997,-0.002487,0.0012050000000000001
47,0.47,0.013247,-0.030786999999999995,-0.139062,-0.008316,-0.005692000000000001,-0.0009310000000000001
48,0.48,0.017060000000000002,-0.046288,-0.090919,-0.01152,-0.011017,0.003326
49,0.49,0.005947999999999999,-0.013538,-0.028436,-0.010452,-0.014206,0.002258
50,0.5,-0.011649,-0.009010999999999998,0.035755,-0.00618,-0.01741,0.0043950000000000005
51,0.51,0.011443,0.025238999999999998,0.045219,0.005539,-0.016342,0.002258
52,0.52,-0.027822000000000003,0.014146,0.018491999999999998,0.008728,-0.013138,0.002258
53,0.53,-0.019098,0.021705,-0.049547,0.010864,-0.007812,0.002258
54,0.54,-0.041423,0.027872000000000004,-0.076907,0.007659999999999999,-0.003555,0.0012050000000000001
55,0.55,-0.01856,0.003914,-0.023795000000000004,0.009796,-0.0035549999999999996,0.0043950000000000005
56,0.56,-0.039424,0.018783,-0.018322,0.008728,-0.002487,0.003326
57,0.57,-0.019588,-0.000914,0.033732,0.014053,-0.0046229999999999995,0.0043950000000000005
58,0.58,-0.007686000000000002,0.0158,0.010320999999999999,0.01619,-0.002487,0.0043950000000000005
59,0.59,-0.017561,0.007081999999999998,0.047416,0.021515,-0.0046229999999999995,0.0043950000000000005
60,0.6,0.030674,0.050350999999999986,0.040014,0.023636,-0.003555000000000001,0.006531
61,0.61,0.001485,0.014793,0.0004299999999999998,0.028961,-0.001419,0.003326
62,0.62,0.025274,0.018328999999999998,-0.024603,0.028961,-0.000366,0.0043950000000000005
63,0.63,0.028887,-0.0024860000000000004,-0.04425,0.032166,-0.000366,0.007599
64,0.64,-0.012971000000000002,-0.009197,-0.07432799999999999,0.030029000000000004,0.0007019999999999999,0.005463000000000001
65,0.65,0.00644,-0.039021,-0.054054,0.023636,-0.001419,0.007599
66,0.66,0.00405,-0.002602,-0.025677,0.022583000000000002,-0.001419,0.006531
67,0.67,0.012519,-0.005257000000000003,-0.051463,0.022583000000000002,-0.005692,0.00972
68,0.68,0.013812999999999999,0.005538,-0.044383,0.023636,-0.011017,0.010787999999999999
69,0.69,0.041544,0.007369,-0.038411,0.022583000000000002,-0.009949,0.010787999999999999
70,0.7,0.015525,-0.009849,-0.049611,0.022583000000000002,-0.015274000000000001,0.013977000000000002
71,0.71,-0.006717000000000004,-0.026586000000000002,-0.032344,0.021515,-0.016342,0.012924000000000001
72,0.72,-0.00040300000000000063,-0.05194,-0.020812,0.020447,-0.01741,0.015045
73,0.73,-0.030106,-0.0008510000000000003,0.025781000000000002,0.019379,-0.014206,0.013977000000000002
74,0.74,-0.017804,-0.032594,-0.006606000000000001,0.01619,-0.011017,0.011856
75,0.75,0.0010459999999999985,-0.005322999999999998,-0.058554999999999996,0.015121,-0.008881,0.010787999999999999
76,0.76,-0.031902,-0.021763,-0.029897000000000003,0.010864,-0.011017,0.010787999999999999
77,0.77,-0.004907999999999996,0.011851,0.019518999999999998,0.007659999999999999,-0.014206,0.00972
78,0.78,0.034988,0.042377,0.034115,0.008728,-0.018463,0.011856
79,0.79,0.02402,0.064401,0.041743,0.012985,-0.018463,0.00972
80,0.8,0.0022070000000000006,0.048635000000000005,0.032931999999999996,0.014053,-0.016342,0.007599
81,0.81,-0.030545999999999997,-0.003011,0.066476,0.015121,-0.011017,0.006531
82,0.82,-0.0016620000000000005,0.023798,0.066118,0.017242,-0.008881,0.006531
83,0.83,-0.048014999999999995,-0.016513,0.094411,0.022583000000000002,-0.0046229999999999995,0.003326
84,0.84,-0.033919,-0.035684,0.048981,0.023636,-0.002487,0.0043950000000000005
85,0.85,-0.025419999999999998,-0.029506,0.036499000000000004,0.024704,-0.001419,0.003326
86,0.86,-0.028723000000000002,-0.03664,-0.018587,0.022583000000000002,0.0007020000000000001,0.005463
87,0.87,-0.039649000000000004,-0.044838,-0.039788,0.017242,0.004974,0.007599
88,0.88,-0.048186,-0.035204,-0.079843,0.009796,0.003906,0.010787999999999999
89,0.89,-0.064486,-0.047541,-0.098868,0.003403,0.006027,0.012924000000000001
90,0.9,-0.038245,-0.029602999999999997,-0.09148300000000001,-0.001923,0.003906,0.015045
91,0.91,-0.043725,-0.052872,-0.074793,-0.0051270000000000005,0.003906,0.015045
92,0.92,-0.050047,-0.052453999999999994,-0.034630000000000015,-0.012573,0.002838,0.016113
93,0.93,-0.023206,-0.00022300000000000098,-0.045061000000000004,-0.013641,0.006027,0.017181000000000002
94,0.94,-0.044297,-0.015086999999999996,0.039977,-0.013641,0.006027,0.019302
95,0.95,-0.012241000000000002,0.041387,0.057609,-0.008316,0.007095000000000001,0.017181000000000002
96,0.96,-0.041012,0.023372000000000004,0.026438,-0.001923,0.009231999999999999,0.01825
97,0.97,-0.048216,-0.004668,-0.029022000000000003,0.003403,0.015625,0.01825
98,0.98,-0.03874,-0.0058649999999999996,-0.082558,-0.002991,0.02095,0.019302
99,0.99,-0.017241,-0.0016770000000000005,-0.080212,-0.01152,0.022018,0.022507
100,1.0,-0.008590999999999998,-0.00038099999999999934,-0.08568300000000001,-0.015778,0.017746,0.023575
101,1.01,-0.028699000000000002,-0.017339,-0.022494999999999998,-0.014709,0.016678,0.026764
102,1.02,-0.02045,0.002419,0.015056999999999997,-0.012573,0.012421,0.029968
103,1.03,-0.004998,0.004306999999999999,0.060137,-0.0051270000000000005,0.011353,0.031020999999999996
104,1.04,0.018861000000000003,-0.002741,0.038523,0.003403,0.003906,0.034225
105,1.05,0.047688,0.025285,0.022764,0.004471,-0.0035549999999999996,0.034225
106,1.06,0.035725,-0.025105000000000002,0.05441699999999999,0.006592,-0.006744,0.036345999999999996
107,1.07,-0.005111999999999999,0.00038300000000000134,0.002385999999999999,0.007659999999999999,-0.009949,0.038482999999999996
108,1.08,0.009547,-0.013071000000000001,-0.062958,0.008728,-0.009949,0.038482999999999996
109,1.09,0.012524000000000004,-0.019828,-0.083053,0.005539,-0.005692,0.036345999999999996
110,1.1,0.027252999999999996,-0.005594999999999999,-0.13048900000000002,0.003403,-0.009949,0.034225
111,1.11,0.034163,-0.017263,-0.151446,0.00019799999999999983,-0.015274000000000001,0.032089
112,1.12,0.050533,-0.017178,-0.154222,-0.0051270000000000005,-0.019531,0.026764
113,1.13,0.055295000000000004,0.016719,-0.092012,-0.007248,-0.028061000000000003,0.023575
114,1.14,0.014028,0.005299,-0.046333,-0.008316,-0.036575,0.022507
115,1.15,0.037391,0.036564,0.044855000000000006,-0.00618,-0.045105,0.02037
116,1.16,0.008533000000000002,0.049599000000000004,0.031243,-0.0008540000000000003,-0.05043,0.02037
117,1.17,0.011637999999999999,0.036552999999999995,0.009658000000000009,0.004471,-0.05043,0.016113
118,1.18,-0.005782000000000001,0.048389999999999996,0.050066,0.008728,-0.051498,0.015045
119,1.19,0.031404,0.035809,0.036868,0.011917,-0.051498,0.010787999999999999
120,1.2,0.006643000000000003,0.055963,0.011973000000000001,0.01619,-0.049362,0.006531
121,1.21,-0.013682,0.0581,0.009316,0.01619,-0.046173,0.003326
122,1.22,0.016334,0.075986,0.05505,0.020447,-0.041901,0.002258
123,1.23,-0.0009410000000000008,0.039377999999999996,0.040223,0.024704,-0.040833,0.00013699999999999994
124,1.24,-0.021855,0.059002,0.04203,0.024704,-0.035507,-0.001999
125,1.25,-0.036208,0.009148,0.039686,0.030029000000000004,-0.033386,0.002258
126,1.26,-0.08455,0.025133000000000003,0.079762,0.032166,-0.026993,0.00013700000000000002
127,1.27,-0.044574,0.030793,0.039319,0.033234,-0.021667,0.00013699999999999994
128,1.28,-0.024741,-0.025523,0.043052,0.034286000000000004,-0.019531,-0.0009310000000000001
129,1.29,-0.037925,0.043588999999999996,0.067905,0.038558999999999996,-0.012085,0.00013700000000000002
130,1.3,-0.025287999999999998,-0.000465,0.085506,0.039626999999999996,-0.007812,-0.0009310000000000001
131,1.31,-0.059190999999999994,0.019299,0.043338,0.042816,-0.0003660000000000005,-0.0009310000000000001
132,1.32,-0.045324,-0.0017590000000000036,0.038714,0.042816,0.003906,0.00013699999999999994
133,1.33,-0.0054299999999999965,-0.004378,0.030522000000000004,0.044952,0.006027,0.00013700000000000002
134,1.34,-0.003814,0.008273,0.015505000000000001,0.043884,0.009231999999999999,0.002258
135,1.35,0.020218,-0.014301,0.054809000000000004,0.043884,0.0103,0.0043950000000000005
136,1.36,0.030067,0.02053,0.06287899999999999,0.041748,0.008163,0.003326
137,1.37,0.061321,-0.006202000000000001,0.090652,0.041748,0.009231999999999999,0.003326
138,1.38,0.024786000000000002,-0.021866,0.050397000000000004,0.042816,0.007095000000000001,0.0012050000000000001
139,1.39,0.007581000000000002,-0.013593000000000001,0.0006929999999999992,0.04068,0.009231999999999999,0.002258
140,1.4,0.021922999999999998,-0.054103,0.034999,0.035355000000000004,0.008163,0.0012050000000000001
141,1.41,0.032499,-0.019494,0.010642,0.027908,0.0103,0.002258
142,1.42,0.030313999999999997,-0.030423000000000002,0.038182,0.022583000000000002,0.006027,-0.0009310000000000001
143,1.43,0.036752,-0.005557,0.037179000000000004,0.019379,0.009231999999999999,-0.001999
144,1.44,-0.009425,-0.004771,0.063294,0.020447,0.009231999999999999,0.00013699999999999994
145,1.45,-0.027247000000000004,0.00678,0.05392899999999999,0.020447,0.008163,0.00013700000000000002
146,1.46,-0.003658999999999999,0.008409999999999999,0.086115,0.024704,0.006027,0.00013699999999999994
147,1.47,-0.012371,0.014887000000000001,0.070052,0.024704,0.003906,-0.0009310000000000001
148,1.48,0.009713000000000005,-0.017190999999999998,0.043524,0.025772000000000003,0.002838,0.0012050000000000001
149,1.49,-0.006693000000000001,-0.016773,0.016714,0.022583000000000002,0.0007020000000000001,0.0012050000000000001
150,1.5,0.011998,-0.026381,-0.010013,0.019379,-0.001419,0.002258
151,1.51,-0.016597,-0.013904,-0.009817,0.017242,-0.002487,0.0012050000000000001
152,1.52,-0.021095000000000003,0.00168,0.007276,0.017242,-0.0035549999999999996,0.002258
153,1.53,-0.029283999999999998,0.036057,-0.002227,0.01619,-0.005692,0.0012050000000000001
154,1.54,-0.011913,-0.0004819999999999998,-0.051284,0.012985,-0.0046229999999999995,0.003326
155,1.55,0.0045520000000000005,-0.037638,-0.082287,0.0023350000000000003,-0.008881,0.003326
156,1.56,0.011116,-0.031225,-0.046415,-0.004059,-0.013138,0.005463
157,1.57,0.015259000000000003,-0.009412,0.037649,-0.0051270000000000005,-0.016342,0.006531
158,1.58,0.011674999999999998,0.0025570000000000002,0.10914200000000003,0.0012660000000000002,-0.018463,0.006531
159,1.59,-0.0026190000000000002,0.034532,0.111131,0.010864,-0.016342,0.007599
160,1.6,-0.006610999999999999,0.04365,0.05510399999999999,0.01619,-0.01741,0.005462999999999999
161,1.61,0.005000999999999999,0.0005110000000000009,0.004102000000000001,0.017242,-0.018463,0.0043950000000000005
162,1.62,-0.047869,-0.0035090000000000004,-0.011008000000000004,0.017242,-0.015274000000000001,0.003326
163,1.63,-0.052833000000000005,-0.021662,-0.007939,0.01619,-0.018463,0.006531
164,1.64,-0.047067000000000005,-0.008112999999999999,0.012405,0.012985,-0.019531,0.003326
165,1.65,-0.033009,0.016725,0.066893,0.014053,-0.022736000000000003,0.005463
166,1.66,-0.01212,0.042405,0.060595,0.01619,-0.026993,0.005463
167,1.67,-0.045002999999999994,0.040770999999999995,0.064455,0.022583000000000002,-0.026993,0.005463
168,1.68,-0.005352,0.057512,0.068465,0.02684,-0.028061000000000003,0.005463000000000001
169,1.69,-0.032105,0.0019790000000000003,0.038409,0.028961,-0.028061000000000003,0.005463
170,1.7,0.025849,-0.018459,0.05318,0.031097000000000003,-0.032318,0.007599
171,1.71,0.004409000000000001,-0.013271999999999999,0.0033120000000000024,0.028961,-0.033386,0.008652
172,1.72,-0.0008659999999999987,-0.019888999999999997,-0.002742,0.027908,-0.033386,0.00972
173,1.73,-0.0013350000000000002,-0.015939,0.0039840000000000006,0.023636,-0.036575,0.005463
174,1.74,0.011909999999999999,0.004737999999999999,0.009263,0.022583000000000002,-0.036575,0.005463
175,1.75,-0.032497000000000005,-0.0005559999999999992,0.005455999999999999,0.020447,-0.032318,0.007599
176,1.76,-0.006155999999999997,-0.007967,0.007722000000000001,0.021515,-0.028061000000000003,0.005463
177,1.77,-0.029698000000000002,-0.023059,-0.025047,0.021515,-0.024857,0.0043950000000000005
178,1.78,-0.006169000000000001,0.019552000000000003,0.001965000000000001,0.019379,-0.022736000000000003,0.002258
179,1.79,-0.011683,-0.021440999999999998,0.011637000000000002,0.022583000000000002,-0.021667,0.0043950000000000005
180,1.8,-0.037645,-0.017937,-0.010504000000000001,0.021515,-0.020599,0.0012050000000000001
181,1.81,0.0019939999999999992,0.007488999999999998,-0.046827999999999995,0.019379,-0.019531,0.0012050000000000001
182,1.82,0.024066999999999998,0.025791,-0.03497,0.021515,-0.018463,-0.0009310000000000001
183,1.83,0.027908,-0.020926,-0.027752999999999996,0.019379,-0.018463,-0.0009310000000000001
184,1.84,0.005147,-0.014214999999999997,-0.007984999999999999,0.019379,-0.018463,0.00013700000000000002
185,1.85,-0.010712000000000001,-0.030093,-0.041379,0.017242,-0.01741,0.00013699999999999994
186,1.86,-0.013772999999999999,-0.017315999999999998,0.0075099999999999984,0.015121,-0.016342,0.0012050000000000001
187,1.87,-0.01819,0.008437,0.003695,0.01619,-0.015274000000000001,-0.001999
188,1.88,-0.009284,0.019301,-0.009445,0.017242,-0.014206,0.00013699999999999994
189,1.89,-0.00908,-0.005138,-0.0435,0.018311,-0.012085,-0.0009310000000000001
190,1.9,-0.044663,0.020787,-0.031163999999999997,0.020447,-0.008881,-0.001999
191,1.91,-0.019409,-0.0417,-0.034292,0.019379,-0.007812,-0.0030670000000000003
192,1.92,0.005869000000000001,-0.015619999999999998,-0.065492,0.018311,-0.007812,-0.0009310000000000001
193,1.93,0.023926,-0.025587000000000002,-0.031205,0.018311,-0.006744,-0.0030670000000000003
194,1.94,-0.009165000000000001,-0.04398,-0.056159,0.017242,-0.0035549999999999996,-0.0030670000000000003
195,1.95,0.009472,-0.016814,-0.073252,0.015121,-0.0035549999999999996,-0.0030670000000000003
196,1.96,-0.016265,-0.009893,-0.091366,0.015121,-0.0046229999999999995,-0.001999
197,1.97,-0.034095,-0.033428,-0.088027,0.012985,-0.001419,-0.0030670000000000003
198,1.98,-0.038574000000000004,0.004559999999999998,-0.070773,0.011917,-0.000366,-0.0030670000000000003
199,1.99,-0.021388,-0.020301,-0.09928,0.010864,0.003906,-0.0009310000000000001
200,2.0,-0.004371,-0.0033690000000000005,-0.07195800000000001,0.008728,0.003906,-0.0030670000000000003
201,2.01,0.012676999999999999,0.012734,-0.063515,0.006592,0.006027,-0.006256
202,2.02,0.014855000000000002,-0.0029999999999999988,-0.07918700000000001,0.006592,0.007095000000000001,-0.007324
203,2.03,0.008511999999999999,-0.017075,-0.061382000000000006,0.004471,0.008163,-0.007324
204,2.04,0.04752,-0.006078,-0.042381999999999996,0.003403,0.007095000000000001,-0.006256
205,2.05,0.036716000000000006,-0.021244,-0.074669,0.00019800000000000004,0.008163,-0.007324
206,2.06,0.022612,-0.027530000000000002,-0.09426799999999999,-0.0051270000000000005,0.007095000000000001,-0.008392
207,2.07,0.004025,-0.046095,-0.075336,-0.010452,0.006027,-0.006256
208,2.08,-0.030945,-0.013505000000000001,-0.10528599999999999,-0.014709,0.007095000000000001,-0.007324
209,2.09,-0.009823,-0.012676,-0.08771,-0.020035,0.007095000000000001,-0.006256
210,2.1,-0.0054399999999999995,-0.007937,-0.067437,-0.027496,0.007095000000000001,-0.007324
211,2.11,0.017067,-0.031633,-0.033917,-0.029617,0.009231999999999999,-0.00946
212,2.12,0.032507,-0.004643,-0.020281,-0.031754000000000004,0.0103,-0.010513
213,2.13,-0.007802,0.0005090000000000008,-0.021374,-0.031754000000000004,0.014556999999999999,-0.011581000000000001
214,2.14,-0.010014999999999998,0.010928,-0.014332,-0.027496,0.015625,-0.01265
215,2.15,-0.031602,-0.016483,-0.009761,-0.026427999999999997,0.015625,-0.015839
216,2.16,0.019266,-0.031137,-0.024721,-0.026427999999999997,0.018813999999999997,-0.013718000000000001
217,2.17,-0.020413999999999998,-0.029785000000000002,-0.04423,-0.028564,0.018813999999999997,-0.015839
218,2.18,-0.023688999999999998,-0.032025,-0.028569,-0.034943,0.017746,-0.013718000000000001
219,2.19,-0.008967000000000001,0.0020910000000000095,-0.031719,-0.037079,0.019882,-0.013718000000000001
220,2.2,-0.021043,-0.005922,0.0005830000000000003,-0.038147,0.013489,-0.014786
221,2.21,-0.011035,0.029936,-0.008248,-0.041336000000000005,0.011353,-0.01265
222,2.22,-0.054867,0.023972999999999998,0.024906,-0.041336000000000005,0.009231999999999999,-0.00946
223,2.23,0.0019940000000000027,0.019851,0.037015,-0.040268,0.003906,-0.00946
224,2.24,0.038577,0.030899,0.096854,-0.034943,-0.0024870000000000005,-0.006256
225,2.25,0.016059999999999998,0.046263,0.055273,-0.031754000000000004,-0.0046229999999999995,-0.005188
226,2.26,0.037519,0.024577,0.045042,-0.027496,-0.0035549999999999996,-0.00412
227,2.27,0.08566599999999999,0.02094,-0.021059,-0.02536,-0.000366,-0.007324
228,2.28,0.10453299999999999,0.025668,-0.069053,-0.027496,0.004974,-0.00946
229,2.29,0.096937,0.009115999999999999,-0.132552,-0.033889999999999997,0.007095000000000001,-0.01265
230,2.3,0.100899,-0.013402,-0.135793,-0.043472000000000004,0.0007020000000000004,-0.016907
231,2.31,0.10977200000000001,0.032300999999999996,-0.158433,-0.056259,-0.009949,-0.019043
232,2.32,0.155629,0.036575,-0.162544,-0.07435599999999999,-0.026993,-0.022232
233,2.33,0.15956800000000002,0.056739,0.0018270000000000025,-0.082886,-0.038712,-0.027556999999999998
234,2.34,0.15653499999999998,0.021063,0.07225400000000001,-0.07756,-0.048294,-0.030762
235,2.35,0.133746,0.030119,0.11773900000000001,-0.06691,-0.048294,-0.030762
236,2.36,0.157913,0.02391,0.045416000000000005,-0.053055,-0.049362,-0.030762
237,2.37,0.241679,0.049871,-0.000789999999999999,-0.041336000000000005,-0.05361900000000001,-0.028625
238,2.38,0.28741500000000003,0.05706900000000001,-0.079455,-0.031754000000000004,-0.057877,-0.028625
239,2.39,0.29741100000000004,0.016124,-0.188157,-0.02536,-0.069595,-0.027556999999999998
240,2.4,0.275382,-0.003339999999999999,-0.22253299999999998,-0.022171,-0.084518,-0.027556999999999998
241,2.41,0.23267800000000002,-0.036004,-0.264973,-0.022171,-0.099426,-0.027556999999999998
242,2.42,0.22588200000000003,-0.035123,-0.29,-0.023224,-0.107956,-0.030762
243,2.43,0.17742,-0.0366,-0.296702,-0.018966999999999998,-0.109024,-0.031830000000000004
244,2.44,0.15607100000000002,-0.018645,-0.357364,-0.015778,-0.11221300000000001,-0.035019
245,2.45,0.134907,-0.009148,-0.39259099999999997,-0.014709,-0.11860699999999999,-0.039276
246,2.46,0.085918,-0.04543,-0.382886,-0.016846,-0.126068,-0.042480000000000004
247,2.47,0.074738,-0.078067,-0.358299,-0.016846,-0.131393,-0.042480000000000004
248,2.48,0.070203,-0.092543,-0.390032,-0.014709,-0.13351400000000002,-0.041412
249,2.49,0.055254,-0.159122,-0.400264,-0.010452,-0.130325,-0.036087
250,2.5,0.067734,-0.183956,-0.46535200000000004,-0.01152,-0.12925699999999998,-0.028625
251,2.51,0.116102,-0.201235,-0.479234,-0.015778,-0.127121,-0.028625
252,2.52,0.110805,-0.182053,-0.552584,-0.022171,-0.128189,-0.026505
253,2.53,0.164206,-0.142557,-0.523271,-0.028564,-0.132446,-0.024368
254,2.54,0.139716,-0.11656400000000001,-0.553772,-0.041336000000000005,-0.139908,-0.020111
255,2.55,0.12303299999999999,-0.080202,-0.5210279999999999,-0.045609,-0.145233,-0.017975
256,2.56,0.182109,-0.133569,-0.519798,-0.049866,-0.155884,-0.014786
257,2.57,0.209747,-0.109734,-0.487932,-0.054123000000000004,-0.159088,-0.01265
258,2.58,0.200897,-0.10209800000000001,-0.49833599999999995,-0.057312,-0.16334500000000002,-0.013718000000000001
259,2.59,0.138513,-0.08970299999999999,-0.521101,-0.057312,-0.17185999999999998,-0.01265
260,2.6,0.122046,-0.081609,-0.46680200000000005,-0.059448,-0.1772,-0.013718000000000001
261,2.61,0.088962,-0.087255,-0.45427399999999996,-0.06051599999999999,-0.18145799999999998,-0.014786
262,2.62,0.118127,-0.10813699999999998,-0.45975600000000005,-0.063705,-0.182526,-0.019043
263,2.63,0.074018,-0.10461500000000001,-0.41125200000000006,-0.067978,-0.189972,-0.016907
264,2.64,0.108877,-0.09150900000000001,-0.34786500000000004,-0.071167,-0.197433,-0.020111
265,2.65,0.08932999999999999,-0.07861599999999999,-0.273777,-0.069031,-0.197433,-0.022232
266,2.66,0.102619,-0.076602,-0.24251599999999998,-0.061584,-0.201691,-0.0233
267,2.67,0.090531,-0.009494999999999995,-0.270446,-0.063705,-0.20701599999999998,-0.0233
268,2.68,0.070379,-0.054825,-0.37350700000000003,-0.071167,-0.21340900000000002,-0.025436
269,2.69,0.014731999999999999,-0.006958000000000001,-0.370883,-0.081818,-0.21980300000000003,-0.025436
270,2.7,-0.015031000000000001,-0.072127,-0.27669,-0.0914,-0.22938499999999998,-0.028625
271,2.71,-0.039310000000000005,-0.115078,-0.152475,-0.096741,-0.24324,-0.027556999999999998
272,2.72,-0.061475999999999996,-0.152703,-0.073837,-0.096741,-0.256027,-0.025436
273,2.73,-0.060073,-0.149726,-0.102199,-0.10418699999999999,-0.256027,-0.024368
274,2.74,-0.17438,-0.15376800000000002,-0.10485699999999999,-0.116974,-0.247498,-0.027556999999999998
275,2.75,-0.338644,-0.156878,-0.020981,-0.136154,-0.23045300000000002,-0.033951
276,2.76,-0.561176,-0.174843,0.135099,-0.155319,-0.205963,-0.036087
277,2.77,-0.744308,-0.17130599999999999,0.341928,-0.16597,-0.165482,-0.039276
278,2.78,-0.938898,-0.256177,0.4931,-0.170242,-0.11647,-0.035019
279,2.79,-1.052271,-0.371295,0.528519,-0.170242,-0.058945000000000004,-0.025436
280,2.8,-1.131217,-0.510606,0.544474,-0.179825,0.006027000000000001,-0.019043
281,2.81,-1.31915,-0.694974,0.528459,-0.20005799999999999,0.084854,-0.011581000000000001
282,2.82,-1.460598,-0.7708119999999999,0.510437,-0.2267,0.169022,-0.00412
283,2.83,-1.553393,-0.706106,0.506871,-0.24693299999999999,0.258499,0.005462999999999999
284,2.84,-1.621924,-0.465862,0.47486999999999996,-0.25972,0.343719,0.02037
285,2.85,-1.519464,-0.008675999999999991,0.413944,-0.255463,0.41082799999999997,0.037415
286,2.86,-1.281711,0.567033,0.28419,-0.234146,0.456635,0.054459
287,2.87,-1.003708,0.952068,0.167723,-0.195801,0.487534,0.06192
288,2.88,-0.779655,1.135602,0.0065810000000000035,-0.160645,0.510971,0.053390999999999994
289,2.89,-0.486212,1.0332299999999999,-0.072075,-0.120163,0.520554,0.039550999999999996
290,2.9,-0.185864,0.836289,-0.187972,-0.07223500000000001,0.517365,0.022507
291,2.91,0.16574,0.601748,-0.572959,-0.016845999999999996,0.487534,0.0043950000000000005
292,2.92,0.43710200000000005,0.41027399999999997,-1.117134,0.017242,0.42361499999999996,-0.01265
293,2.93,0.649075,0.225834,-1.543299,0.018311,0.344788,-0.033951
294,2.94,0.765839,0.05605099999999999,-1.70269,-0.016846,0.264893,-0.050995
295,2.95,0.766578,-0.086635,-1.6712580000000001,-0.073303,0.197784,-0.069107
296,2.96,0.7078770000000001,-0.209456,-1.5718889999999999,-0.129761,0.136002,-0.090408
297,2.97,0.56403,-0.285564,-1.396686,-0.184082,0.079529,-0.112778
298,2.98,0.366973,-0.28637399999999996,-1.2795940000000001,-0.22563200000000003,0.031601,-0.138351
299,2.99,0.074292,-0.16360999999999998,-1.070727,-0.244812,-0.0046229999999999995,-0.16178900000000002
300,3.0,-0.196541,-0.078775,-0.864186,-0.245865,-0.029129000000000002,-0.178833
301,3.01,-0.48060299999999995,-0.020362,-0.685917,-0.2267,-0.037643,-0.187347
302,3.02,-0.7443770000000001,-0.036653,-0.581417,-0.19686900000000002,-0.03125,-0.190552
303,3.03,-0.996034,-0.139374,-0.549583,-0.170242,-0.014206,-0.190552
304,3.04,-1.206293,-0.272771,-0.535605,-0.144669,0.012421,-0.186279
305,3.05,-1.336036,-0.39855,-0.6280180000000001,-0.120163,0.048645,-0.178833
306,3.06,-1.2889760000000001,-0.46717700000000006,-0.7371840000000001,-0.09992999999999999,0.085922,-0.169235
307,3.07,-1.151756,-0.5355810000000001,-0.894699,-0.085022,0.12000999999999999,-0.157532
308,3.08,-0.983606,-0.533269,-1.051868,-0.07435599999999999,0.155167,-0.149002
309,3.09,-0.8571489999999999,-0.564956,-1.182118,-0.06691,0.181793,-0.137283
310,3.1,-0.808408,-0.668189,-1.278773,-0.063705,0.20629899999999998,-0.127701
311,3.11,-0.793797,-0.742495,-1.412315,-0.069031,0.22654699999999997,-0.11598199999999999
312,3.12,-0.80928,-0.73836,-1.492517,-0.085022,0.233994,-0.10105900000000001
313,3.13,-0.7679819999999999,-0.674513,-1.571061,-0.10845899999999999,0.233994,-0.08934
314,3.14,-0.665007,-0.589175,-1.596589,-0.14041099999999998,0.22334299999999999,-0.066971
315,3.15,-0.622092,-0.566932,-1.549972,-0.160645,0.20629899999999998,-0.054199000000000004
316,3.16,-0.5416920000000001,-0.535809,-1.488275,-0.16703800000000002,0.182861,-0.040344
317,3.17,-0.490062,-0.531624,-1.438526,-0.171295,0.16581700000000002,-0.022232
318,3.18,-0.449718,-0.447952,-1.371979,-0.175568,0.146652,-0.007324
319,3.19,-0.319459,-0.363334,-1.2956290000000001,-0.176636,0.12107799999999999,0.007599
320,3.2,-0.243628,-0.289006,-1.224683,-0.173431,0.091248,0.024643
321,3.21,-0.11541900000000001,-0.168248,-1.186038,-0.163849,0.065689,0.035294
322,3.22,-0.054379,-0.10098700000000001,-1.236964,-0.141479,0.034789999999999995,0.038482999999999996
323,3.23,-0.13713,-0.064339,-1.393369,-0.122299,0.004973999999999999,0.033157
324,3.24,-0.30901999999999996,-0.121553,-1.492251,-0.10845899999999999,-0.01741,0.023575
325,3.25,-0.525161,-0.15350899999999998,-1.607982,-0.10951199999999998,-0.026993,0.00972
326,3.26,-0.715156,-0.119617,-1.590852,-0.115906,-0.025925,0.005463000000000001
327,3.27,-0.877869,0.05931299999999999,-1.630586,-0.116974,-0.018463,0.008652
328,3.28,-1.021657,0.372812,-1.781495,-0.10951199999999998,-0.016342,0.023575
329,3.29,-1.123106,0.625236,-1.9366849999999998,-0.10206599999999999,-0.023788,0.034225
330,3.3,-1.094816,0.7748079999999999,-2.025066,-0.096741,-0.046173,0.040619
331,3.31,-1.015549,0.8756520000000001,-2.106932,-0.0914,-0.070663,0.041687
332,3.32,-0.8616799999999999,0.894379,-2.1659200000000003,-0.079697,-0.086639,0.045944
333,3.33,-0.779474,0.959684,-2.2613939999999997,-0.070099,-0.099426,0.041687
334,3.34,-0.674824,1.0607,-2.203503,-0.081818,-0.11114500000000001,0.034225
335,3.35,-0.624336,1.295902,-1.7894990000000002,-0.113785,-0.11114500000000001,0.013977000000000002
336,3.36,-0.559371,1.8872419999999999,-1.3869040000000001,-0.160645,-0.09196499999999999,-0.016907
337,3.37,-0.46677399999999997,2.503977,-1.224205,-0.238419,-0.067474,-0.066971
338,3.38,-0.5130859999999999,2.5708919999999997,-0.3614550000000001,-0.30339099999999997,-0.015274000000000003,-0.127701
339,3.39,-0.624817,2.509355,0.320918,-0.252258,0.083801,-0.179901
340,3.4,-0.680262,2.394726,0.29375999999999997,-0.125504,0.169022,-0.215042
341,3.41,-0.561526,2.237905,0.21960900000000003,-0.030685000000000007,0.202042,-0.227829
342,3.42,-0.30140500000000003,1.918366,0.42439099999999996,0.007659999999999999,0.167953,-0.23529099999999997
343,3.43,-0.004782000000000009,1.56976,0.780645,0.010864,0.059296,-0.225708
344,3.44,0.44144700000000003,1.18688,1.30515,-0.0008539999999999997,-0.0728,-0.196945
345,3.45,0.9337559999999999,0.773837,1.8691360000000001,-0.0051270000000000005,-0.200623,-0.154327
346,3.46,1.415015,0.492612,2.071921,-0.013641,-0.30395500000000003,-0.121307
347,3.47,1.552584,0.12779200000000002,2.2265029999999997,-0.029617,-0.37959299999999996,-0.096802
348,3.48,1.395733,-0.19251600000000002,2.3633830000000002,-0.027496,-0.415817,-0.066971
349,3.49,1.1092,-0.2027,2.3100080000000003,0.011917,-0.41688500000000006,-0.022232
350,3.5,0.80124,-0.088759,2.010592,0.050277999999999996,-0.43286099999999994,0.027832
351,3.51,0.478921,0.06174400000000001,1.8851349999999998,0.070511,-0.45629899999999995,0.076828
352,3.52,0.281132,0.3241,1.836523,0.090759,-0.454163,0.11624100000000001
353,3.53,0.043019,0.520537,1.741596,0.126968,-0.426468,0.146072
354,3.54,-0.09012300000000001,0.725341,1.6061299999999998,0.172775,-0.384918,0.171646
355,3.55,-0.142905,0.799932,1.411897,0.229233,-0.334854,0.19081099999999998
356,3.56,-0.200802,0.680126,1.219239,0.286758,-0.282654,0.19934100000000002
357,3.57,-0.189049,0.49558199999999997,1.0001659999999999,0.338959,-0.22938499999999998,0.20466600000000001
358,3.58,-0.139195,0.36835300000000004,0.701458,0.380508,-0.18038900000000002,0.21424899999999997
359,3.59,-0.007760000000000003,0.19856600000000002,0.40424299999999996,0.41566499999999995,-0.139908,0.230225
360,3.6,0.12485399999999999,0.089137,0.09918400000000001,0.433762,-0.120728,0.253662
361,3.61,0.276431,-0.196626,-0.050097,0.431641,-0.128189,0.284561
362,3.62,0.320346,-0.54777,-0.164931,0.41352799999999995,-0.14843800000000001,0.31864899999999996
363,3.63,0.31699,-0.903694,-0.240963,0.39115900000000003,-0.169739,0.355927
364,3.64,0.318241,-1.214243,-0.341971,0.367722,-0.172928,0.387894
365,3.65,0.284383,-1.42159,-0.390644,0.342148,-0.167603,0.407059
366,3.66,0.320629,-1.611482,-0.5171979999999999,0.3134,-0.153763,0.408127
367,3.67,0.303344,-1.7290419999999997,-0.555186,0.282501,-0.139908,0.397476
368,3.68,0.287551,-1.786398,-0.5028060000000001,0.257996,-0.11647,0.379364
369,3.69,0.26306399999999996,-1.8172849999999998,-0.47038,0.23562600000000003,-0.085587,0.353806
370,3.7,0.125357,-1.8193840000000001,-0.521943,0.204742,-0.045104999999999985,0.330368
371,3.71,-0.02798499999999999,-1.8819259999999998,-0.632686,0.161057,0.006027000000000001,0.303741
372,3.72,-0.11757299999999997,-1.935452,-0.664597,0.108856,0.060364,0.285629
373,3.73,-0.100385,-1.960894,-0.653771,0.06944299999999999,0.098709,0.270706
374,3.74,-0.062372000000000004,-1.865692,-0.582183,0.041748,0.122147,0.25898699999999997
375,3.75,0.115719,-1.65126,-0.532299,0.028961,0.143448,0.25473
376,3.76,0.300274,-1.44214,-0.50366,0.022583000000000002,0.157303,0.245148
377,3.77,0.49583900000000003,-1.277806,-0.6129859999999999,0.010864,0.164749,0.22703600000000002
378,3.78,0.6165689999999999,-1.2198069999999999,-0.715355,0.00019799999999999942,0.169022,0.19613599999999998
379,3.79,0.6310279999999999,-1.201559,-0.857226,-0.014709,0.17860399999999998,0.163116
380,3.8,0.5899989999999999,-1.308408,-0.952325,-0.026427999999999997,0.199905,0.131165
381,3.81,0.49623500000000004,-1.254436,-0.9802860000000001,-0.037079,0.2276,0.10347
382,3.82,0.334937,-1.111753,-1.042078,-0.044539999999999996,0.271286,0.080032
383,3.83,0.08479,-0.9086780000000001,-1.05629,-0.042404000000000004,0.30856300000000003,0.05127
384,3.84,-0.206296,-0.66979,-1.079911,-0.030685000000000004,0.344788,0.021439
385,3.85,-0.446238,-0.322845,-1.100355,-0.01152,0.375671,-0.005188
386,3.86,-0.522019,0.0387,-1.285596,0.022583000000000002,0.411896,-0.027556999999999998
387,3.87,-0.5474859999999999,0.187834,-1.525432,0.046005000000000004,0.45556599999999997,-0.048874
388,3.88,-0.296869,0.28464,-1.652138,0.084366,0.476883,-0.066971
389,3.89,0.29223600000000005,0.288127,-1.562278,0.124847,0.450241,-0.07975800000000001
390,3.9,0.994669,0.34915999999999997,-1.329028,0.149338,0.382065,-0.06485
391,3.91,1.832164,0.59736,-1.168344,0.157867,0.326675,-0.012650000000000002
392,3.92,2.395398,1.102221,-1.213303,0.145081,0.289398,0.056595000000000006
393,3.93,2.609075,1.673618,-1.345191,0.120575,0.24998499999999998,0.11944600000000001
394,3.94,2.292719,2.110648,-1.4250399999999999,0.12803599999999998,0.20950300000000002,0.158859
395,3.95,1.373786,2.187259,-1.6837669999999998,0.187698,0.191391,0.162048
396,3.96,0.30889500000000003,1.959862,-1.93248,0.256927,0.172211,0.124771
397,3.97,-0.755127,1.749791,-1.7269259999999997,0.278244,0.17114300000000002,0.07257100000000001
398,3.98,-1.6818229999999998,2.204886,-1.051013,0.23136900000000002,0.20950300000000002,0.041687
399,3.99,-1.9757939999999998,3.078288,-0.665255,0.11099200000000001,0.28512600000000005,0.069382
400,4.0,-1.5463959999999999,3.5789809999999997,0.195785,-0.087143,0.359695,0.15033
401,4.01,-0.572101,3.63215,1.499177,-0.190475,0.37141399999999997,0.26112399999999997
402,4.02,0.696358,3.3862980000000005,2.549995,-0.12443499999999999,0.313889,0.372971
403,4.03,1.8114689999999998,2.36643,3.2520830000000003,0.031096999999999993,0.24145500000000003,0.417725
404,4.04,2.345924,1.068649,3.568977,0.187698,0.195648,0.36978099999999997
405,4.05,1.826948,-0.2999649999999999,3.589433,0.27929699999999996,0.21162399999999998,0.25898699999999997
406,4.06,0.539171,-1.119147,3.36469,0.298477,0.28726199999999996,0.143951
407,4.07,-0.72736,-1.0141360000000001,3.071218,0.270782,0.367157,0.056595000000000006
408,4.08,-1.5355290000000001,-0.191377,2.5864380000000002,0.22390700000000002,0.44705200000000006,0.023575
409,4.09,-1.489277,0.740999,2.350207,0.17598,0.505646,-0.010512999999999995
410,4.1,-1.254533,1.17171,2.250928,0.172775,0.491791,-0.052063
411,4.11,-0.6757449999999999,1.322705,2.066766,0.20153800000000002,0.418289,-0.094681
412,4.12,0.01202700000000001,1.0710540000000002,1.859954,0.21006799999999998,0.32135,-0.140488
413,4.13,0.713996,0.584232,1.7544680000000001,0.196213,0.233994,-0.185226
414,4.14,1.224308,0.008601000000000079,1.5755569999999999,0.18023699999999998,0.15623499999999998,-0.223572
415,4.15,1.470291,-0.46779499999999996,1.311755,0.178101,0.075272,-0.256592
416,4.16,1.382607,-0.694689,1.0510540000000002,0.177032,-0.012085,-0.29281599999999997
417,4.17,0.980506,-0.773166,0.726835,0.163193,-0.103683,-0.329025
418,4.18,0.564652,-0.7125640000000001,0.448292,0.13336199999999998,-0.198502,-0.366318
419,4.19,0.197217,-0.6255649999999999,0.287665,0.09287999999999999,-0.277328,-0.388687
420,4.2,-0.061449,-0.6524989999999999,0.17106,0.053466999999999994,-0.330597,-0.392944
421,4.21,-0.24368299999999998,-0.858598,0.131798,0.024704,-0.363617,-0.381226
422,4.22,-0.43790100000000004,-1.166348,0.197245,-0.004059,-0.375336,-0.368454
423,4.23,-0.672211,-1.466682,0.25554899999999997,-0.024291999999999998,-0.37959299999999996,-0.357788
424,4.24,-0.9241389999999999,-1.599502,0.233089,-0.046661,-0.378525,-0.338623
425,4.25,-1.123632,-1.6775630000000001,0.150866,-0.064774,-0.376404,-0.318375
426,4.26,-1.262599,-1.6454419999999998,0.054297000000000005,-0.090347,-0.374268,-0.29068
427,4.27,-1.258874,-1.492624,-0.050957999999999996,-0.11271700000000001,-0.378525,-0.254471
428,4.28,-1.136662,-1.364053,-0.095303,-0.130829,-0.375336,-0.22143600000000002
429,4.29,-0.981505,-1.258368,-0.09144400000000001,-0.136154,-0.366806,-0.19162
430,4.3,-0.9201819999999999,-1.176719,-0.013798,-0.134018,-0.357224,-0.173508
431,4.31,-0.8769680000000001,-1.142852,0.047501999999999996,-0.11911,-0.355087,-0.155396
432,4.32,-0.9034989999999999,-1.185913,0.038581,-0.092468,-0.35936,-0.133026
433,4.33,-0.87,-1.26979,-0.042182,-0.063705,-0.367874,-0.10319500000000001
434,4.34,-0.870185,-1.426078,-0.172273,-0.050934,-0.37745700000000004,-0.070175
435,4.35,-0.8802989999999999,-1.563341,-0.348161,-0.046661,-0.381729,-0.04567
436,4.36,-0.8810030000000001,-1.636892,-0.46785600000000005,-0.054123000000000004,-0.384918,-0.024368
437,4.37,-0.885092,-1.72223,-0.539479,-0.058379999999999994,-0.385986,-0.010513
438,4.38,-0.8545200000000001,-1.73442,-0.653337,-0.061584,-0.375336,0.00972
439,4.39,-0.804322,-1.7059389999999999,-0.8698600000000001,-0.065842,-0.36254899999999995,0.032089
440,4.4,-0.757738,-1.6530259999999999,-0.9932559999999999,-0.07223500000000001,-0.361481,0.055527
441,4.41,-0.660289,-1.542878,-1.08379,-0.082886,-0.368942,0.07896399999999999
442,4.42,-0.565246,-1.2758969999999998,-1.145216,-0.0914,-0.37959299999999996,0.100266
443,4.43,-0.494242,-0.88049,-1.261655,-0.092468,-0.393448,0.11731
444,4.44,-0.524289,-0.42206800000000005,-1.293819,-0.090347,-0.40942399999999995,0.13649
445,4.45,-0.576337,0.139283,-1.181065,-0.079697,-0.41900600000000005,0.165253
446,4.46,-0.771896,0.804618,-1.036002,-0.056259,-0.420074,0.18869
447,4.47,-1.048785,1.398574,-0.8355319999999999,-0.036011,-0.408356,0.19401600000000002
448,4.48,-1.416517,1.8417119999999998,-0.631603,-0.013641,-0.39663699999999996,0.17804
449,4.49,-1.779148,2.037134,-0.475921,0.020447,-0.376404,0.14288299999999998
450,4.5,-2.121305,2.023135,-0.605743,0.066254,-0.340179,0.105591
451,4.51,-2.325656,1.721387,-0.8992600000000001,0.10141,-0.270935,0.06192
452,4.52,-2.301592,1.364191,-1.2675459999999998,0.108856,-0.19104000000000002,0.02037
453,4.53,-1.8476810000000001,1.071175,-1.660225,0.10566700000000001,-0.14843800000000001,0.00972
454,4.54,-1.2400440000000001,1.016816,-1.8607770000000001,0.11845399999999999,-0.161209,0.035294
455,4.55,-0.29236700000000004,1.192903,-2.110488,0.126968,-0.22833299999999998,0.090683
456,4.56,0.999578,2.129149,-1.7173080000000003,0.090759,-0.363617,0.15246600000000002
457,4.57,1.890943,3.4205400000000004,-1.615931,0.0034030000000000032,-0.512756,0.18548599999999998
458,4.58,2.748324,4.2469019999999995,-0.314461,-0.234146,-0.638458,0.133286
459,4.59,2.219925,3.779666,1.7383830000000002,-0.393936,-0.6863859999999999,-0.013717999999999994
460,4.6,0.8785700000000001,2.575173,3.708225,-0.38649,-0.673599,-0.175629
461,4.61,-0.396321,1.109872,4.897665,-0.293808,-0.636322,-0.296005
462,4.62,-1.167598,-0.36877600000000005,5.462308,-0.151062,-0.573471,-0.31304899999999997
463,4.63,-1.090509,-0.943157,5.286618,0.026840000000000003,-0.49783299999999997,-0.220383
464,4.64,-0.265196,-0.28231,4.0331220000000005,0.191956,-0.420074,-0.10426300000000001
465,4.65,0.6210979999999999,0.90265,2.514367,0.27504,-0.371078,-0.050995
466,4.66,1.2105620000000001,2.051417,1.4622709999999999,0.292084,-0.323135,-0.06271399999999999
467,4.67,1.098048,2.662954,0.943757,0.263321,-0.283722,-0.12449600000000001
468,4.68,0.392548,2.484196,1.297935,0.23669400000000002,-0.24110399999999998,-0.136215
469,4.69,-0.017239000000000004,1.6806130000000001,1.4263540000000001,0.25054899999999997,-0.183578,-0.06591799999999999
470,4.7,-0.306435,0.713335,1.390108,0.2612,-0.125,0.037415
471,4.71,-0.540311,-0.220759,1.118943,0.254807,-0.080261,0.13755799999999999
472,4.72,-0.732108,-0.781944,0.788792,0.23350500000000002,-0.045105,0.217453
473,4.73,-0.877345,-0.908668,0.536902,0.193024,0.015625,0.274979
474,4.74,-0.944673,-0.774755,0.50045,0.140823,0.10829200000000001,0.320786
475,4.75,-0.867101,-0.627627,0.6197590000000001,0.096085,0.220154,0.358063
476,4.76,-0.673833,-0.532274,0.814354,0.073715,0.32560700000000004,0.3815
477,4.77,-0.439862,-0.6138680000000001,0.977449,0.073715,0.40870700000000004,0.391083
478,4.78,-0.196622,-0.8012319999999999,0.9335110000000001,0.095016,0.47261000000000003,0.391083
479,4.79,0.060317,-1.1275819999999999,0.939466,0.12803599999999998,0.50032,0.380432
480,4.8,0.25868800000000003,-1.437141,1.0565799999999999,0.17598,0.50032,0.358063
481,4.81,0.407484,-1.680347,1.014602,0.23669400000000002,0.487534,0.32611100000000004
482,4.82,0.6606489999999999,-1.904568,0.792083,0.28889499999999996,0.486465,0.29841599999999996
483,4.83,0.926649,-1.998215,0.35973,0.318726,0.49072299999999996,0.273911
484,4.84,1.177049,-1.9697,0.009551000000000004,0.30806,0.49392700000000006,0.25260900000000003
485,4.85,1.347909,-1.843716,-0.252977,0.26013200000000003,0.485397,0.228104
486,4.86,1.2363870000000001,-1.672036,-0.288562,0.203674,0.463028,0.18975799999999998
487,4.87,1.000876,-1.509167,-0.240409,0.166382,0.433197,0.14820899999999998
488,4.88,0.686998,-1.345896,-0.173087,0.156799,0.40231300000000003,0.10240199999999999
489,4.89,0.489727,-1.265067,-0.19289800000000001,0.168518,0.37674,0.07257100000000001
490,4.9,0.475462,-1.221529,-0.349219,0.179169,0.36396799999999996,0.048065
491,4.91,0.526095,-1.227766,-0.477376,0.18023699999999998,0.34692399999999995,0.0289
492,4.92,0.630054,-1.241884,-0.5888800000000001,0.17491099999999998,0.326675,0.017181000000000002
493,4.93,0.609452,-1.380403,-0.794068,0.15998800000000002,0.297913,0.006531
494,4.94,0.528492,-1.5457610000000002,-1.015415,0.132294,0.286194,-0.0030670000000000003
495,4.95,0.24309299999999998,-1.7326970000000002,-1.208009,0.08541900000000001,0.284073,-0.011581000000000001
496,4.96,-0.34731599999999996,-1.974089,-1.1709690000000001,-0.050934,0.30856300000000003,-0.019043
497,4.97,-0.609531,-1.951845,-0.970724,-0.116974,0.32988,-0.022232
498,4.98,-0.815141,-1.756331,-0.734698,-0.158524,0.349045,-0.026505
499,4.99,-0.80183,-1.394267,-0.649097,-0.173431,0.359695,-0.029693999999999998
500,5.0,-0.528831,-0.878922,-0.6613140000000001,-0.154251,0.366089,-0.037155
501,5.01,-0.08327600000000003,-0.44167,-0.718052,-0.12123099999999999,0.3629,-0.050995
502,5.02,0.4222469999999999,-0.15228599999999998,-0.778949,-0.09353600000000001,0.353302,-0.061646000000000006
503,5.03,0.957598,-0.011768,-0.738138,-0.08075,0.336258,-0.082962
504,5.04,1.289462,0.157647,-0.739815,-0.088211,0.301117,-0.088287
505,5.05,1.607644,0.45617700000000005,-0.766933,-0.10739100000000001,0.284073,-0.073364
506,5.06,1.658893,0.888333,-0.929062,-0.130829,0.252106,-0.046738
507,5.07,1.657132,1.293739,-0.97472,-0.158524,0.189255,-0.020111
508,5.08,1.495057,1.5231290000000002,-0.861142,-0.16703800000000002,0.123215,-0.0009309999999999996
509,5.09,1.067028,1.8096599999999998,-0.932255,-0.139343,0.092316,0.021439
510,5.1,0.3629620000000001,2.062134,-1.30561,-0.069031,0.09552000000000001,0.037415
511,5.11,-0.469829,2.2251220000000003,-1.843278,0.015121000000000002,0.11682100000000001,0.050200999999999996
512,5.12,-1.0612469999999998,2.104696,-2.368677,0.077972,0.145584,0.062988
513,5.13,-1.4921870000000002,2.062532,-2.464081,0.080093,0.181793,0.060851999999999996
514,5.14,-2.001958,2.5358419999999997,-1.9253580000000001,0.048141,0.22654699999999997,0.066177
515,5.15,-1.791279,3.397432,-1.6905880000000002,0.008728,0.295792,0.126907
516,5.16,-0.8955919999999999,3.6040989999999997,-0.997862,-0.106323,0.352249,0.200409
517,5.17,-0.15526099999999993,3.4820050000000005,0.6824850000000001,-0.18515,0.35436999999999996,0.24940500000000002
518,5.18,0.35282800000000003,3.4053699999999996,2.141034,-0.103119,0.34053,0.30799899999999997
519,5.19,0.65783,2.7564599999999997,3.167929,0.030029000000000004,0.38101199999999996,0.353806
520,5.2,0.940486,1.514369,3.905753,0.126968,0.465164,0.3815
521,5.21,0.9480219999999999,0.34067600000000003,4.4958849999999995,0.163193,0.531204,0.378296
522,5.22,0.68798,-0.07295800000000001,4.818903,0.20047,0.5429229999999999,0.33676100000000003
523,5.23,0.282436,0.465381,4.235603,0.25054899999999997,0.564224,0.262192
524,5.24,-0.200046,1.057567,3.43871,0.29422,0.6515810000000001,0.12796
525,5.25,-0.552261,1.133853,3.0297549999999998,0.341095,0.710175,-0.017974999999999998
526,5.26,-0.867506,0.859632,2.502815,0.381577,0.702713,-0.127701
527,5.27,-0.734845,0.44743900000000003,1.783664,0.371979,0.6494449999999999,-0.187347
528,5.28,-0.08336199999999994,0.02005000000000001,1.130634,0.304871,0.57489,-0.211853
529,5.29,0.8933620000000001,-0.351123,0.5973470000000001,0.19728099999999998,0.471558,-0.21611
530,5.3,1.7560419999999999,-0.526528,0.240675,0.07157899999999999,0.336258,-0.21398899999999998
531,5.31,2.392271,-0.353126,0.174171,-0.036011,0.16688499999999998,-0.222504
532,5.32,2.559108,0.084594,0.23463499999999998,-0.10951199999999998,-0.003555000000000002,-0.26298499999999997
533,5.33,2.224137,0.48136599999999996,0.346273,-0.14041099999999998,-0.151627,-0.329025
534,5.34,1.4902090000000001,0.634501,0.47889,-0.134018,-0.260284,-0.401474
535,5.35,0.698513,0.45372700000000005,0.585626,-0.100998,-0.31567399999999995,-0.45899999999999996
536,5.36,-0.18701700000000002,0.08068700000000001,0.622887,-0.046661,-0.324203,-0.5058590000000001
537,5.37,-0.840464,-0.486217,0.602132,0.008728,-0.322067,-0.530365
538,5.38,-1.3149540000000002,-1.0988040000000001,0.489019,0.051330999999999995,-0.31567399999999995,-0.534622
539,5.39,-1.559762,-1.7479529999999999,0.258759,0.084366,-0.31567399999999995,-0.514389
540,5.4,-1.498243,-2.19346,-0.07244400000000001,0.09287999999999999,-0.314606,-0.47709700000000005
541,5.41,-1.157537,-2.526836,-0.234587,0.080093,-0.299698,-0.432358
542,5.42,-0.8054600000000001,-2.748694,-0.38716799999999996,0.043884,-0.281586,-0.389755
543,5.43,-0.471276,-2.764001,-0.47434499999999996,-0.0051270000000000005,-0.279465,-0.350342
544,5.44,-0.29793600000000003,-2.652141,-0.564526,-0.049866,-0.289047,-0.319443
545,5.45,-0.27974499999999997,-2.422383,-0.599904,-0.08075,-0.306091,-0.285355
546,5.46,-0.43949099999999997,-2.221861,-0.684762,-0.09992999999999999,-0.318878,-0.254471
547,5.47,-0.63651,-2.159144,-0.790817,-0.10951199999999998,-0.340179,-0.215042
548,5.48,-0.823205,-2.165196,-0.9764950000000001,-0.122299,-0.35936,-0.180954
549,5.49,-0.994915,-2.1736150000000003,-1.12406,-0.141479,-0.373199,-0.144745
550,5.5,-1.1440860000000002,-2.190969,-1.326583,-0.163849,-0.371078,-0.109589
551,5.51,-1.235976,-2.079947,-1.412344,-0.189407,-0.35936,-0.082962
552,5.52,-1.1934200000000001,-1.7606009999999999,-1.3075709999999998,-0.21284499999999998,-0.325272,-0.047806
553,5.53,-1.0650680000000001,-1.4743959999999998,-1.1132819999999999,-0.20858800000000002,-0.31567399999999995,-0.025436
554,5.54,-0.750993,-1.072071,-1.046659,-0.171295,-0.31781,-0.00412
555,5.55,-0.479608,-0.7742,-1.099936,-0.113785,-0.335922,0.016113
556,5.56,-0.284964,-0.7244470000000001,-1.253375,-0.062653,-0.367874,0.036345999999999996
557,5.57,-0.21165799999999999,-0.78557,-1.450028,-0.030685000000000004,-0.399826,0.054459
558,5.58,-0.319774,-0.8403520000000001,-1.4949350000000001,-0.017899,-0.42858900000000005,0.07896399999999999
559,5.59,-0.437359,-0.759236,-1.5187190000000002,-0.021103,-0.4254,0.09919700000000001
560,5.6,-0.7746890000000001,-0.317596,-1.440331,-0.044539999999999996,-0.41688500000000006,0.108795
561,5.61,-1.224767,0.4087890000000001,-1.4084430000000001,-0.081818,-0.387054,0.10347
562,5.62,-1.973568,1.252934,-1.169659,-0.126556,-0.322067,0.065109
563,5.63,-2.892306,2.0007490000000003,-0.9869870000000001,-0.154251,-0.238983,-0.008392000000000005
564,5.64,-3.438157,2.620243,-0.9389069999999999,-0.16278099999999998,-0.145233,-0.102127
565,5.65,-3.3206870000000004,2.930509,-1.049014,-0.12443499999999999,-0.075989,-0.180954
566,5.66,-2.5757779999999997,2.738099,-1.4628809999999999,-0.038147,-0.038712,-0.21398899999999998
567,5.67,-1.173151,2.643189,-1.588486,0.02684,-0.036575,-0.20439100000000002
568,5.68,0.518964,3.32381,-1.517736,0.039626999999999996,-0.08238200000000001,-0.155396
569,5.69,2.118608,4.298112000000001,-1.573376,-0.10739100000000001,-0.126068,-0.14260899999999999
570,5.7,3.077243,4.5419279999999995,-0.23824899999999996,-0.366241,-0.130325,-0.218246
571,5.71,2.428798,4.507361,1.476185,-0.47383100000000006,-0.179321,-0.347137
572,5.72,1.0935290000000002,3.7550220000000003,3.186491,-0.421646,-0.29863,-0.43663
573,5.73,0.05923000000000001,2.435137,4.264297,-0.30127,-0.410492,-0.46539300000000006
574,5.74,-0.316796,0.809194,5.030755,-0.168106,-0.508484,-0.42916899999999997
575,5.75,0.273617,-0.294647,5.387565,-0.018967,-0.611816,-0.31304899999999997
576,5.76,1.479945,-0.23325100000000001,4.839129,0.12803599999999998,-0.6810609999999999,-0.202271
577,5.77,2.3637330000000003,0.698773,2.90225,0.18023699999999998,-0.731125,-0.179901
578,5.78,2.418972,1.3007959999999998,1.8585630000000002,0.132294,-0.7929229999999999,-0.175629
579,5.79,1.9186590000000001,1.345587,1.509028,0.113129,-0.775879,-0.168182
580,5.8,1.274716,1.134709,1.5376610000000002,0.129105,-0.716217,-0.128769
581,5.81,0.583813,0.802396,1.626224,0.12271099999999999,-0.648041,-0.047806
582,5.82,-0.005865000000000009,0.31106100000000003,1.7389290000000002,0.075836,-0.586258,0.041687
583,5.83,-0.628923,-0.08926600000000003,1.7243950000000001,0.024704,-0.514877,0.11091600000000001
584,5.84,-1.0747790000000002,-0.26122,1.5848879999999999,-0.0008539999999999989,-0.44244399999999995,0.156723
585,5.85,-1.264707,-0.202235,1.298343,-0.001923,-0.374268,0.19508399999999998
586,5.86,-1.1131389999999999,0.07106500000000003,1.0794350000000001,-0.002991,-0.301834,0.235565
587,5.87,-0.820163,0.325153,1.051518,0.0023349999999999994,-0.21234099999999997,0.273911
588,5.88,-0.549238,0.37264400000000003,1.123145,0.027908,-0.119675,0.316513
589,5.89,-0.437468,0.25007199999999996,1.2007700000000001,0.070511,-0.029129,0.359131
590,5.9,-0.325276,-0.11966,1.126144,0.121643,0.044388,0.392151
591,5.91,-0.2374,-0.671342,1.0040639999999998,0.173843,0.09764099999999999,0.419846
592,5.92,-0.10568699999999999,-1.290433,0.784696,0.21539299999999997,0.127472,0.439026
593,5.93,0.0051049999999999976,-1.924857,0.591643,0.237762,0.147705,0.44541899999999995
594,5.94,0.219728,-2.47369,0.34889000000000003,0.24734499999999998,0.159424,0.448608
595,5.95,0.27566,-2.7742400000000003,0.08530299999999999,0.23136900000000002,0.179672,0.43476899999999996
596,5.96,0.317974,-2.904992,-0.18613,0.193024,0.20310999999999998,0.42305
597,5.97,0.39017199999999996,-2.806908,-0.369386,0.126968,0.22334299999999999,0.39961199999999997
598,5.98,0.420146,-2.506416,-0.5411699999999999,0.06518600000000001,0.24678000000000003,0.368713
599,5.99,0.45875200000000005,-2.2053,-0.627992,0.014053,0.276611,0.330368
600,6.0,0.5201899999999999,-1.9065130000000001,-0.610139,-0.015778,0.306442,0.28988600000000003
601,6.01,0.557929,-1.804634,-0.52373,-0.029617,0.327744,0.246216
602,6.02,0.558601,-1.700838,-0.51326,-0.038147,0.339462,0.20466600000000001
603,6.03,0.618687,-1.6762860000000002,-0.478959,-0.041336000000000005,0.349045,0.171646
604,6.04,0.692584,-1.608962,-0.5272899999999999,-0.042404000000000004,0.347977,0.138626
605,6.05,0.859542,-1.5813110000000001,-0.586689,-0.039215,0.33839400000000003,0.108795
606,6.06,0.984656,-1.507242,-0.644414,-0.026427999999999997,0.336258,0.07470700000000001
607,6.07,0.9843139999999999,-1.32588,-0.752278,-0.007248000000000002,0.34053,0.032089
608,6.08,0.936474,-1.185715,-0.876921,0.015121,0.350113,-0.016907
609,6.09,0.778111,-1.046626,-1.137154,0.035355000000000004,0.353302,-0.071243
610,6.1,0.57687,-1.00793,-1.311015,0.04068,0.345856,-0.13089
611,6.11,0.47123000000000004,-0.980952,-1.398403,0.037491000000000003,0.33839400000000003,-0.174576
612,6.12,0.42976499999999995,-1.018709,-1.52968,0.033234,0.336258,-0.201202
613,6.13,0.502372,-1.001917,-1.606007,0.046005000000000004,0.347977,-0.19906600000000002
614,6.14,0.675089,-0.9910370000000001,-1.784215,0.057724,0.34158299999999997,-0.20013399999999998
615,6.15,0.9891459999999999,-0.783571,-1.927603,0.042816,0.28833000000000003,-0.182022
616,6.16,1.408352,-0.405238,-1.875048,0.004470999999999999,0.21482800000000002,-0.131958
617,6.17,1.869427,-0.05918000000000001,-1.732607,-0.088211,0.150909,-0.069107
618,6.18,2.210505,0.41851099999999997,-1.387714,-0.21923800000000002,0.081665,-0.010513000000000002
619,6.19,2.258331,1.094018,-1.07918,-0.32043499999999997,0.016678,0.054459
620,6.2,1.907835,1.868297,-1.008644,-0.317245,0.012421,0.10133400000000001
621,6.21,1.205509,2.467636,-1.209325,-0.20858800000000002,0.051834000000000005,0.126907
622,6.22,0.417796,2.721949,-1.5360120000000002,-0.04133600000000001,0.102966,0.13009600000000002
623,6.23,-0.3730450000000001,2.4755130000000003,-1.9666810000000001,0.11525000000000002,0.167953,0.10986300000000002
624,6.24,-1.206097,2.110887,-2.049662,0.178101,0.24359099999999997,0.07896399999999999
625,6.25,-2.0272669999999997,2.1523209999999997,-1.555719,0.17598,0.350113,0.07257100000000001
626,6.26,-1.8517759999999999,2.8034209999999997,-1.435871,0.090759,0.41296400000000005,0.141815
627,6.27,-1.1441629999999998,3.2380310000000003,-0.732002,-0.12443499999999999,0.405502,0.264313
628,6.28,0.09538099999999994,3.2685049999999998,0.866458,-0.26823400000000003,0.33520500000000003,0.401733
629,6.29,1.4641200000000003,2.961796,2.57999,-0.24267600000000003,0.198853,0.5327609999999999
630,6.3,2.725198,2.250824,3.730721,-0.126556,0.058227999999999995,0.617981
631,6.31,3.122757,1.510889,4.400494999999999,-0.02217099999999999,-0.05149800000000001,0.639297
632,6.32,2.487162,0.911466,4.710011,0.04068,-0.081314,0.587097
633,6.33,1.314055,0.730617,4.761817,0.09287999999999999,-0.09196499999999999,0.5008090000000001
634,6.34,-0.17648699999999995,1.3981780000000001,4.1329199999999995,0.113129,-0.044036999999999986,0.415588
635,6.35,-1.1854129999999998,2.089252,3.8220730000000005,0.107803,0.106171,0.295212
636,6.36,-1.804013,2.3831689999999996,3.7361660000000003,0.144012,0.210556,0.164185
637,6.37,-1.9950689999999998,2.260589,3.56544,0.237762,0.22122199999999997,0.052338
638,6.38,-1.7741689999999999,1.9980669999999998,2.873534,0.320847,0.17009000000000002,-0.043549000000000004
639,6.39,-1.030257,1.399507,2.044306,0.34428400000000003,0.122147,-0.1064
640,6.4,-0.031227000000000005,0.6418810000000001,1.422526,0.304871,0.088058,-0.140488
641,6.41,0.9151729999999999,0.05276900000000001,1.057364,0.23350500000000002,0.048645000000000015,-0.16178900000000002
642,6.42,1.508721,-0.422771,0.8827020000000001,0.14721700000000001,-0.024857000000000004,-0.192673
643,6.43,1.7108459999999999,-0.7447189999999999,0.775783,0.056671000000000006,-0.132446,-0.247009
644,6.44,1.524239,-0.8520190000000001,0.749445,-0.029617000000000008,-0.263474,-0.31304899999999997
645,6.45,1.002691,-0.94586,0.8502040000000001,-0.098862,-0.373199,-0.381226
646,6.46,0.41589799999999993,-1.037279,0.9453020000000001,-0.146805,-0.433929,-0.432358
647,6.47,-0.14218499999999998,-1.137145,1.006525,-0.1745,-0.450974,-0.461121
648,6.48,-0.5518609999999999,-1.2720049999999998,1.0038850000000001,-0.184082,-0.450974,-0.47390699999999997
649,6.49,-0.794354,-1.520357,0.8964780000000001,-0.179825,-0.44244399999999995,-0.474976
650,6.5,-0.935127,-1.811266,0.703485,-0.159592,-0.440308,-0.45899999999999996
651,6.51,-0.916216,-2.048881,0.457529,-0.137207,-0.440308,-0.432358
652,6.52,-0.8523729999999999,-2.267999,0.19550399999999998,-0.125504,-0.449905,-0.396149
653,6.53,-0.755361,-2.290258,0.044004,-0.129761,-0.46588100000000005,-0.35992399999999997
654,6.54,-0.69623,-2.1957419999999996,-0.095875,-0.142548,-0.480789,-0.324768
655,6.55,-0.641228,-2.032492,-0.24390799999999999,-0.154251,-0.492508,-0.28321799999999997
656,6.56,-0.6822239999999999,-1.696239,-0.318617,-0.16597,-0.49783299999999997,-0.240616
657,6.57,-0.746344,-1.517741,-0.366873,-0.18196099999999998,-0.48931899999999995,-0.19906600000000002
658,6.58,-0.804765,-1.331189,-0.31452600000000003,-0.190475,-0.49144,-0.160721
659,6.59,-0.983677,-1.2912379999999999,-0.267519,-0.180893,-0.47546400000000005,-0.127701
660,6.6,-1.157738,-1.304858,-0.266846,-0.144669,-0.447769,-0.095734
661,6.61,-1.4097520000000001,-1.29653,-0.403812,-0.09353600000000001,-0.405167,-0.0755
662,6.62,-1.657125,-1.2579559999999999,-0.61688,-0.044539999999999996,-0.351898,-0.052063
663,6.63,-1.780297,-1.3278940000000001,-0.9198069999999999,-0.001923000000000001,-0.28584299999999996,-0.031830000000000004
664,6.64,-1.817918,-1.375888,-1.241902,0.021515,-0.220871,-0.00946
665,6.65,-1.667766,-1.438561,-1.503902,0.02684,-0.164413,0.02037
666,6.66,-1.42661,-1.414398,-1.675979,0.015121000000000002,-0.119675,0.048065
667,6.67,-1.221749,-1.345507,-1.637564,0.0012659999999999998,-0.085587,0.071503
668,6.68,-0.953457,-1.2098959999999999,-1.655039,-0.012573,-0.065338,0.09494
669,6.69,-0.784669,-1.067513,-1.647691,-0.036011,-0.05043,0.11518900000000001
670,6.7,-0.7107829999999999,-0.977611,-1.6460380000000001,-0.064774,-0.047226,0.124771
671,6.71,-0.659017,-0.812723,-1.515478,-0.079697,-0.046173,0.133286
672,6.72,-0.6346470000000001,-0.726536,-1.482625,-0.092468,-0.038712,0.13542200000000001
673,6.73,-0.680501,-0.587553,-1.316893,-0.125504,-0.032318,0.11944600000000001
674,6.74,-0.911217,-0.299302,-1.157909,-0.1745,-0.022736000000000003,0.08429
675,6.75,-1.1359620000000001,0.08870599999999998,-0.976569,-0.23095700000000002,-0.001419,0.029968
676,6.76,-1.412392,0.6538729999999999,-0.7871090000000001,-0.283157,0.032669,-0.032882999999999996
677,6.77,-1.792288,1.079294,-0.6351060000000001,-0.32150300000000004,0.09019500000000001,-0.093613
678,6.78,-2.1354290000000002,1.473008,-0.5924470000000001,-0.339615,0.149841,-0.145813
679,6.79,-1.987055,2.130462,-0.643537,-0.31192,0.177536,-0.175629
680,6.8,-1.5326959999999998,2.765196,-0.927559,-0.20858800000000002,0.173279,-0.176697
681,6.81,-0.8346419999999999,3.050615,-1.410249,-0.096741,0.147705,-0.160721
682,6.82,0.09433600000000003,3.240837,-1.482826,-0.029617,0.094452,-0.140488
683,6.83,0.916233,3.8501849999999997,-1.566425,-0.024291999999999998,0.020950000000000003,-0.12023900000000001
684,6.84,1.180007,4.275711,-1.305712,-0.168106,-0.0024870000000000005,-0.15646400000000002
685,6.85,0.471505,4.089506,-0.3438709999999999,-0.31510900000000003,0.049713,-0.270447
686,6.86,-0.9078200000000001,3.798304,0.530223,-0.328964,0.13172899999999998,-0.425964
687,6.87,-1.800768,3.172845,1.247647,-0.306595,0.195648,-0.533569
688,6.88,-2.168739,1.893366,2.195348,-0.28527800000000003,0.186066,-0.5559390000000001
689,6.89,-1.65442,0.470656,3.224755,-0.24693299999999999,0.118958,-0.494141
690,6.9,-0.5620930000000001,-0.762129,3.7410349999999997,-0.184082,0.015625,-0.374832
691,6.91,0.9425980000000002,-1.352247,3.9124,-0.100998,-0.100494,-0.229965
692,6.92,2.2338080000000002,-0.920319,3.249444,-0.014709,-0.205963,-0.128769
693,6.93,2.767458,-0.011612000000000013,2.382245,0.036423000000000004,-0.339111,-0.070175
694,6.94,2.567941,0.894215,1.804976,0.068375,-0.45842,-0.039276
695,6.95,1.931704,1.23138,1.660909,0.097137,-0.47866800000000004,-0.024368
696,6.96,1.090526,1.093443,1.731134,0.120575,-0.40303,0.0033260000000000013
697,6.97,0.224188,0.764121,1.7758880000000001,0.132294,-0.305023,0.044876
698,6.98,-0.592462,0.326324,1.7621639999999998,0.131226,-0.217667,0.089615
699,6.99,-1.251759,-0.07156900000000001,1.610264,0.126968,-0.131393,0.125839
700,7.0,-1.5287899999999999,-0.330492,1.4491040000000002,0.1259,-0.038712,0.15246600000000002
701,7.01,-1.478561,-0.495511,1.301215,0.12271099999999999,0.050766000000000006,0.171646
702,7.02,-1.063922,-0.513129,1.07481,0.123779,0.133865,0.198273
703,7.03,-0.477713,-0.413579,0.7354890000000001,0.116318,0.205231,0.236618
704,7.04,0.08882999999999999,-0.409815,0.461347,0.100342,0.24359099999999997,0.281357
705,7.05,0.501211,-0.42690100000000003,0.302731,0.08541900000000001,0.244644,0.32611100000000004
706,7.06,0.7333729999999999,-0.511307,0.28556,0.083298,0.210556,0.367645
707,7.07,0.7546039999999999,-0.623384,0.249329,0.095016,0.182861,0.40387
708,7.08,0.6059640000000001,-0.8585860000000001,0.216548,0.119522,0.16581700000000002,0.428375
709,7.09,0.471054,-1.111404,0.043827000000000005,0.14721700000000001,0.17114300000000002,0.44753999999999994
710,7.1,0.266705,-1.406877,-0.106224,0.16531400000000002,0.196716,0.44541899999999995
711,7.11,0.075522,-1.7007849999999998,-0.250571,0.161057,0.22547899999999998,0.437958
712,7.12,-0.06509,-1.9276080000000002,-0.389633,0.13443,0.252106,0.41345200000000004
713,7.13,-0.161138,-2.042738,-0.442035,0.104599,0.283005,0.380432
714,7.14,-0.189305,-2.0877790000000003,-0.544103,0.083298,0.316025,0.351669
715,7.15,-0.024231000000000003,-2.0526590000000002,-0.632476,0.07157899999999999,0.34265100000000004,0.321838
716,7.16,0.24169200000000002,-2.018381,-0.671384,0.057724,0.357574,0.29628000000000004
717,7.17,0.537569,-1.9669259999999997,-0.74488,0.04068,0.347977,0.268585
718,7.18,0.7817890000000001,-1.967109,-0.689403,0.025772000000000003,0.32560700000000004,0.241943
719,7.19,0.9922120000000001,-1.9991419999999998,-0.755808,0.014053,0.301117,0.20680199999999999
720,7.2,1.177222,-1.960764,-0.8551989999999999,-0.004059,0.28512600000000005,0.175903
721,7.21,1.187246,-1.8851209999999998,-0.895206,-0.021103,0.276611,0.138626
722,7.22,1.038511,-1.808784,-0.916457,-0.034943,0.27873200000000004,0.093872
723,7.23,0.790209,-1.636742,-0.9227299999999999,-0.037079,0.28833000000000003,0.044876
724,7.24,0.5039560000000001,-1.3775959999999998,-1.000781,-0.021103,0.292587,-0.006256000000000001
725,7.25,0.267032,-1.192832,-1.100976,0.0023350000000000003,0.296844,-0.058455999999999994
726,7.26,0.04682500000000002,-1.0033940000000001,-1.1971120000000002,0.030029000000000004,0.305374,-0.1064
727,7.27,0.006653,-0.8301360000000001,-1.239436,0.042816,0.319214,-0.149002
728,7.28,-0.0027469999999999994,-0.622204,-1.305364,0.056671000000000006,0.32560700000000004,-0.173508
729,7.29,0.11621600000000001,-0.37233299999999997,-1.4937129999999998,0.075836,0.320282,-0.186279
730,7.3,0.412264,-0.016031999999999963,-1.6951720000000001,0.10992400000000001,0.296844,-0.180954
731,7.31,1.003118,0.242851,-1.771033,0.14294400000000002,0.22654699999999997,-0.169235
732,7.32,1.5943200000000002,0.5773199999999999,-1.7454830000000001,0.15040599999999998,0.11361700000000001,-0.11705
733,7.33,2.3693299999999997,0.817559,-1.477576,0.121643,0.017745999999999998,-0.036087000000000015
734,7.34,2.8473759999999997,1.1242809999999999,-1.438975,0.043884,-0.06640599999999999,0.045944
735,7.35,2.748207,1.556929,-1.4175280000000001,-0.034943,-0.11114500000000001,0.11731
736,7.36,1.758816,1.9617040000000001,-1.5592290000000002,-0.027496,-0.08984400000000001,0.146072
737,7.37,0.3828579999999999,2.1126099999999997,-1.866338,0.079041,-0.05575599999999999,0.14714100000000002
738,7.38,-0.776874,1.887946,-2.339086,0.22390700000000002,0.011353,0.11731
739,7.39,-1.779327,1.300949,-2.571647,0.30700700000000003,0.11361700000000001,0.060851999999999996
740,7.4,-2.73181,0.916731,-2.546862,0.292084,0.257431,0.010788
741,7.41,-3.433814,1.59576,-1.9343290000000002,0.203674,0.451309,0.00013699999999999994
742,7.42,-3.099895,2.821059,-1.775412,0.058791999999999976,0.615356,0.075775
743,7.43,-2.020061,3.539968,-1.010868,-0.20965599999999998,0.67395,0.22171
744,7.44,-0.007360999999999952,3.019094,1.16347,-0.371567,0.629211,0.34848
745,7.45,1.650035,2.259795,3.2897279999999998,-0.322571,0.491791,0.437958
746,7.46,2.700062,1.490705,4.656587,-0.179825,0.374619,0.47843900000000006
747,7.47,2.728282,0.7704529999999999,5.243483,-0.02536000000000001,0.34158299999999997,0.44648699999999997
748,7.48,2.1675880000000003,0.309838,5.076115,0.08116099999999997,0.333069,0.380432
749,7.49,1.366057,0.7263270000000001,4.684438,0.132294,0.276611,0.339951
750,7.5,0.285519,1.751726,4.053594,0.151474,0.22122199999999997,0.33783
751,7.51,-0.20716100000000004,2.5859810000000003,3.486829,0.149338,0.239319,0.35273699999999997
752,7.52,-0.296476,2.785925,3.4781980000000003,0.190887,0.21694899999999998,0.301605
753,7.53,-0.6553329999999999,2.717588,3.243425,0.322983,0.12107799999999999,0.212128
754,7.54,-0.839684,2.41485,2.476506,0.43589799999999995,0.040115,0.105591
755,7.55,-0.607063,1.5259719999999999,1.587647,0.45401,0.024138999999999997,-0.011581
756,7.56,-0.16408,0.5139600000000001,1.009696,0.392227,0.062485,-0.108521
757,7.57,0.343837,-0.246901,0.547357,0.296356,0.10723900000000001,-0.175629
758,7.58,0.809806,-0.6586529999999999,0.111275,0.191956,0.099777,-0.227829
759,7.59,1.140849,-0.865675,-0.072688,0.08541900000000001,0.034789999999999995,-0.29068
760,7.6,1.126649,-1.103274,-0.033271000000000016,-0.002991000000000001,-0.06533800000000001,-0.353531
761,7.61,0.944147,-1.300539,0.027507,-0.083954,-0.161209,-0.404663
762,7.62,0.693583,-1.538646,0.11866099999999999,-0.153198,-0.235779,-0.438751
763,7.63,0.44880299999999995,-1.833807,0.171653,-0.203262,-0.283722,-0.45260600000000006
764,7.64,0.27531300000000003,-2.160418,0.193725,-0.234146,-0.33699,-0.44728100000000004
765,7.65,0.182606,-2.426186,0.186672,-0.25119,-0.395569,-0.425964
766,7.66,0.054914,-2.6837720000000003,0.14491099999999998,-0.249069,-0.45202600000000004,-0.399338
767,7.67,-0.04348,-2.769352,-0.029151,-0.24267600000000003,-0.509552,-0.36950700000000003
768,7.68,-0.128099,-2.767138,-0.16877,-0.250137,-0.5511020000000001,-0.340744
769,7.69,-0.23520700000000003,-2.589585,-0.22991199999999998,-0.273575,-0.579865,-0.31092800000000004
770,7.7,-0.33352600000000004,-2.147679,-0.32711999999999997,-0.308716,-0.608627,-0.280029
771,7.71,-0.407783,-1.6624599999999998,-0.319693,-0.346008,-0.635254,-0.241684
772,7.72,-0.494716,-1.177622,-0.23643699999999998,-0.358795,-0.661896,-0.20546
773,7.73,-0.624004,-0.773105,-0.127088,-0.342804,-0.6799930000000001,-0.174576
774,7.74,-0.829501,-0.579548,-0.053384,-0.30339099999999997,-0.694916,-0.154327
775,7.75,-1.142933,-0.527119,-0.020444,-0.250137,-0.698105,-0.143677
776,7.76,-1.601434,-0.637021,-9.200000000000179e-05,-0.20005799999999999,-0.6799930000000001,-0.138351
777,7.77,-1.85706,-0.768506,-0.017230000000000002,-0.154251,-0.638458,-0.12344400000000001
778,7.78,-1.8453869999999999,-0.866541,-0.160707,-0.120163,-0.5979770000000001,-0.102127
779,7.79,-1.576325,-0.9103319999999999,-0.343008,-0.085022,-0.5649569999999999,-0.070175
780,7.8,-1.251783,-0.790078,-0.44559899999999997,-0.041336000000000005,-0.538315,-0.043549000000000004
781,7.81,-0.870482,-0.6364350000000001,-0.684396,0.017242,-0.512756,-0.014786
782,7.82,-0.580475,-0.540277,-0.945739,0.073715,-0.49783299999999997,0.00972
783,7.83,-0.455437,-0.631742,-1.219689,0.11525,-0.49996899999999994,0.025695999999999997
784,7.84,-0.395499,-0.785557,-1.505939,0.13656600000000002,-0.5180819999999999,0.04274
785,7.85,-0.324193,-0.9203309999999999,-1.765538,0.130173,-0.540451,0.06192
786,7.86,-0.588879,-0.858187,-1.712663,0.099274,-0.53299,0.088547
787,7.87,-0.8236129999999999,-0.47358900000000004,-1.773336,0.049210000000000004,-0.49038699999999996,0.10240199999999999
788,7.88,-1.395,0.07164800000000003,-1.6937939999999998,-0.008316000000000004,-0.445633,0.100266
789,7.89,-1.8081650000000002,0.520254,-1.550932,-0.048798,-0.38385,0.077896
790,7.9,-2.15742,0.695146,-1.300015,-0.059448,-0.302902,0.041687
791,7.91,-2.299442,0.810944,-1.122007,-0.050934,-0.203827,0.013977000000000002
792,7.92,-2.250699,0.771069,-1.00948,-0.047729,-0.081314,-0.005188
793,7.93,-2.080307,0.772466,-1.030992,-0.059448,0.031601,-0.020111
794,7.94,-1.513736,0.931529,-1.1568370000000001,-0.073303,0.105103,-0.035019
795,7.95,-0.650687,1.7031759999999998,-1.148507,-0.081818,0.106171,-0.046738
796,7.96,0.3008270000000001,3.1358599999999996,-0.9289629999999999,-0.094604,0.06675700000000001,-0.071243
797,7.97,1.189894,4.504126,-0.7241350000000001,-0.17236300000000002,0.017746,-0.129822
798,7.98,1.817963,4.716883999999999,0.17376899999999995,-0.324707,0.002838,-0.231033
799,7.99,1.902679,3.803058,1.7014189999999998,-0.415253,-0.0035549999999999996,-0.353531
800,8.0,1.4690219999999998,2.293534,3.383054,-0.37902800000000003,-0.035507,-0.443008
801,8.01,0.866034,0.570317,4.388297000000001,-0.266113,-0.081314,-0.47390699999999997
802,8.02,0.325932,-0.64315,4.418095,-0.14573699999999998,-0.140976,-0.451538
803,8.03,-0.09538199999999998,-0.886415,3.758196,-0.051987,-0.188904,-0.391876
804,8.04,-0.33068800000000004,-0.36054899999999995,2.846941,0.005538999999999999,-0.21447800000000003,-0.320511
805,8.05,-0.08606699999999999,0.7065860000000002,1.8464049999999999,0.018311,-0.21234099999999997,-0.26405300000000004
806,8.06,-0.10393,1.6521270000000001,1.1721059999999999,-0.022171000000000003,-0.22405999999999998,-0.219315
807,8.07,-0.274781,1.999123,1.179076,-0.048798,-0.211288,-0.159653
808,8.08,-0.308703,2.190007,1.351851,-0.009384,-0.159088,-0.071243
809,8.09,-0.32765700000000003,2.076403,1.299176,0.064117,-0.10582000000000001,0.026764
810,8.1,-0.38802800000000004,1.577834,1.272334,0.116318,-0.077057,0.11198399999999999
811,8.11,-0.631733,0.939077,1.247015,0.145081,-0.03978,0.167374
812,8.12,-1.021971,0.396995,0.973159,0.156799,0.032669,0.198273
813,8.13,-1.332761,0.087545,0.67913,0.146149,0.139191,0.224899
814,8.14,-1.47096,-0.133325,0.44543900000000003,0.113129,0.244644,0.256866
815,8.15,-1.436607,-0.388245,0.461819,0.08223,0.345856,0.297348
816,8.16,-1.241466,-0.695587,0.5316029999999999,0.068375,0.43746899999999994,0.33569299999999996
817,8.17,-1.0163799999999998,-0.978074,0.583907,0.075836,0.515228,0.37085
818,8.18,-0.792034,-1.4084020000000002,0.528666,0.095016,0.573822,0.404938
819,8.19,-0.514862,-1.835031,0.459701,0.106735,0.6185609999999999,0.42305
820,8.2,-0.272687,-2.211357,0.317283,0.121643,0.644119,0.42410299999999995
821,8.21,-0.06468600000000001,-2.550092,0.152951,0.126968,0.647324,0.41877700000000007
822,8.22,0.15374100000000002,-2.758233,-0.07753099999999999,0.123779,0.641998,0.401733
823,8.23,0.314033,-2.802674,-0.23651399999999997,0.10141,0.635605,0.387894
824,8.24,0.500428,-2.686255,-0.437277,0.066254,0.628143,0.37085
825,8.25,0.595348,-2.4346240000000003,-0.46900699999999995,0.010864,0.627075,0.347412
826,8.26,0.708752,-2.0547470000000003,-0.42565200000000003,-0.043472000000000004,0.6302800000000001,0.31971700000000003
827,8.27,0.79418,-1.7142400000000002,-0.322358,-0.081818,0.624954,0.2771
828,8.28,0.835195,-1.444106,-0.261437,-0.079697,0.601517,0.22703600000000002
829,8.29,0.9232100000000001,-1.2823579999999999,-0.303764,-0.044539999999999996,0.568497,0.17697100000000002
830,8.3,1.138334,-1.19461,-0.501483,0.0023350000000000003,0.5194850000000001,0.13755799999999999
831,8.31,1.443187,-1.146046,-0.765526,0.047073000000000004,0.458771,0.10347
832,8.32,1.7530869999999998,-1.18018,-0.979734,0.068375,0.382065,0.076828
833,8.33,1.831007,-1.295035,-1.205652,0.068375,0.310699,0.049132999999999996
834,8.34,1.6513099999999998,-1.3792879999999998,-1.429664,0.050277999999999996,0.248917,0.023575
835,8.35,1.164791,-1.300431,-1.504529,0.024704,0.195648,-0.0030670000000000003
836,8.36,0.595584,-1.147346,-1.589257,0.01619,0.16688499999999998,-0.029693999999999998
837,8.37,0.095308,-0.820351,-1.743271,0.014053,0.147705,-0.058455999999999994
838,8.38,-0.21389,-0.5876600000000001,-1.8887939999999999,0.01619,0.122147,-0.08934
839,8.39,-0.261517,-0.33474299999999996,-1.911761,0.017242,0.088058,-0.10426300000000001
840,8.4,-0.149523,-0.148108,-1.873319,0.021515,0.071014,-0.1064
841,8.41,0.12005899999999999,0.060217999999999994,-1.9183139999999999,0.038558999999999996,0.07208300000000001,-0.093613
842,8.42,0.474975,0.18394100000000002,-1.9554650000000002,0.047073000000000004,0.063553,-0.071243
843,8.43,0.9288629999999999,0.294489,-1.8561740000000002,0.025772000000000003,0.019882,-0.021164
844,8.44,1.545411,0.49941800000000003,-1.713956,-0.029617,-0.040833,0.05020100000000001
845,8.45,2.015234,0.668882,-1.399171,-0.115906,-0.11753800000000002,0.11624100000000001
846,8.46,2.007571,0.9879540000000001,-1.099576,-0.18515,-0.170807,0.162048
847,8.47,1.35948,1.434876,-1.02589,-0.168106,-0.17613199999999998,0.170578
848,8.48,0.3492000000000001,1.858068,-1.27885,-0.064774,-0.153763,0.145004
849,8.49,-0.6531100000000001,2.202008,-1.766773,0.048141,-0.088776,0.10240199999999999
850,8.5,-1.896875,2.7403939999999998,-1.676716,0.116318,0.0007020000000000012,0.053390999999999994
851,8.51,-2.691216,3.649603,-1.3484909999999999,0.13868699999999998,0.130661,0.048065
852,8.52,-2.706539,4.710058999999999,-0.965369,-0.043472000000000004,0.21269200000000002,0.139679
853,8.53,-1.687009,4.662662999999999,0.835216,-0.30127,0.304306,0.256866
854,8.54,-0.466124,4.049226999999999,3.008117,-0.331085,0.310699,0.359131
855,8.55,0.918891,2.963548,4.403221,-0.160645,0.235062,0.430496
856,8.56,1.6403869999999998,1.521734,4.915792,0.052399000000000015,0.163696,0.427307
857,8.57,1.398393,0.011947000000000041,4.808896,0.211121,0.167953,0.36659200000000003
858,8.58,0.80696,-1.106609,4.115907,0.292084,0.22866799999999998,0.285629
859,8.59,0.156375,-1.142076,3.0651029999999997,0.301682,0.265961,0.21106
860,8.6,-0.328687,-0.07586099999999996,2.47936,0.268646,0.296844,0.15033
861,8.61,-0.44701499999999994,1.118559,2.123263,0.21646100000000001,0.353302,0.123703
862,8.62,-0.127528,1.609884,2.255764,0.18023699999999998,0.351181,0.07470700000000001
863,8.63,-0.189123,1.6646020000000001,2.3696479999999998,0.212189,0.274475,0.01825
864,8.64,-0.120474,1.358562,2.142297,0.266525,0.177536,-0.039276
865,8.65,0.018264,0.65486,1.6383290000000001,0.28889499999999996,0.10403399999999999,-0.11065699999999999
866,8.66,0.284802,-0.06847900000000001,1.203476,0.256927,0.060364,-0.167114
867,8.67,0.566503,-0.528188,0.838699,0.203674,0.029464999999999998,-0.20013399999999998
868,8.68,0.780021,-0.566578,0.54293,0.145081,-0.023788,-0.23208600000000001
869,8.69,0.760562,-0.4292,0.34778400000000004,0.083298,-0.09196499999999999,-0.274704
870,8.7,0.510735,-0.34834299999999996,0.43633999999999995,0.025772000000000003,-0.155884,-0.321579
871,8.71,0.157317,-0.33323800000000003,0.6018359999999999,-0.013641,-0.184647,-0.355667
872,8.72,-0.104729,-0.48912,0.746979,-0.017899,-0.189972,-0.379105
873,8.73,-0.246196,-0.7902939999999999,0.704972,-0.0008540000000000006,-0.202759,-0.385498
874,8.74,-0.373231,-1.141342,0.4597319999999999,0.023636,-0.227264,-0.394012
875,8.75,-0.47859799999999997,-1.454207,0.245862,0.039626999999999996,-0.261353,-0.389755
876,8.76,-0.639817,-1.752888,0.009816000000000005,0.047073000000000004,-0.296509,-0.37803600000000004
877,8.77,-0.683814,-1.898757,-0.18318099999999998,0.043884,-0.319946,-0.354599
878,8.78,-0.683003,-1.989624,-0.44351199999999996,0.02684,-0.327393,-0.321579
879,8.79,-0.617498,-2.013201,-0.553454,-0.010452,-0.329529,-0.291748
880,8.8,-0.497413,-1.89864,-0.613182,-0.047729,-0.33165,-0.261917
881,8.81,-0.43206400000000006,-1.838697,-0.64463,-0.08075,-0.345505,-0.237427
882,8.82,-0.424883,-1.777624,-0.6055659999999999,-0.103119,-0.366806,-0.217178
883,8.83,-0.45856099999999994,-1.731529,-0.5269199999999999,-0.116974,-0.393448,-0.19906600000000002
884,8.84,-0.57534,-1.718289,-0.545745,-0.11911,-0.407288,-0.176697
885,8.85,-0.693887,-1.8191110000000001,-0.568783,-0.11911,-0.412613,-0.157532
886,8.86,-0.897968,-1.9195229999999999,-0.676335,-0.113785,-0.406219,-0.140488
887,8.87,-0.9961120000000001,-2.024931,-0.7761640000000001,-0.113785,-0.401962,-0.12023900000000001
888,8.88,-1.031277,-1.9836369999999999,-0.9120729999999999,-0.11804200000000001,-0.393448,-0.10319500000000001
889,8.89,-1.05996,-1.8760700000000001,-0.9456379999999999,-0.125504,-0.38385,-0.082962
890,8.9,-0.9915790000000001,-1.632995,-0.884475,-0.125504,-0.368942,-0.053131
891,8.91,-0.8824569999999999,-1.269701,-0.8487,-0.10845899999999999,-0.358292,-0.026505
892,8.92,-0.729905,-0.817604,-0.849233,-0.07223500000000001,-0.355087,-0.006255999999999999
893,8.93,-0.628205,-0.540281,-1.038792,-0.029617,-0.366806,0.007599
894,8.94,-0.557719,-0.33160500000000004,-1.3104719999999999,0.007659999999999999,-0.391312,0.01825
895,8.95,-0.545455,-0.22841799999999998,-1.441971,0.037491000000000003,-0.42326400000000003,0.035294
896,8.96,-0.70786,-0.072125,-1.4907030000000001,0.067322,-0.434982,0.066177
897,8.97,-0.902431,0.25845500000000005,-1.542335,0.081161,-0.41688500000000006,0.09919700000000001
898,8.98,-1.2354530000000001,0.7029489999999999,-1.587797,0.07157899999999999,-0.384918,0.10665899999999999
899,8.99,-1.627733,1.0911549999999999,-1.5481639999999999,0.034286000000000004,-0.346573,0.075775
900,9.0,-2.137668,1.23068,-1.311067,-0.023224,-0.295441,0.024643
901,9.01,-2.5363830000000003,1.406567,-1.118075,-0.070099,-0.21340900000000002,-0.033951
902,9.02,-2.5269,1.576309,-1.158507,-0.096741,-0.11647,-0.095734
903,9.03,-2.209819,1.613417,-1.3370540000000002,-0.092468,-0.029128999999999995,-0.14260899999999999
904,9.04,-1.3621370000000002,1.730595,-1.54305,-0.06051599999999999,0.015625,-0.173508
905,9.05,-0.18628,2.486839,-1.364666,-0.028564,-0.002487,-0.187347
906,9.06,0.8429040000000001,3.522554,-1.528672,-0.053055,-0.049362,-0.195877
907,9.07,1.843673,4.088971,-0.9789040000000001,-0.24267600000000003,-0.098358,-0.240616
908,9.08,2.029912,3.923254,0.425359,-0.42802399999999996,-0.126068,-0.326904
909,9.09,1.702152,3.487743,1.806193,-0.478104,-0.152695,-0.42703199999999997
910,9.1,1.0001440000000001,2.208252,3.198832,-0.421646,-0.200623,-0.484558
911,9.11,0.489755,0.5981069999999999,4.18562,-0.316177,-0.278397,-0.485626
912,9.12,0.359788,-0.626139,4.670215,-0.195801,-0.36254899999999995,-0.435562
913,9.13,0.537509,-1.057732,4.3924900000000004,-0.07435599999999999,-0.44137600000000005,-0.34288
914,9.14,1.24724,-0.28001,3.7811470000000003,0.046005000000000004,-0.514877,-0.244873
915,9.15,1.7673029999999998,1.005933,2.424162,0.11099200000000001,-0.5979770000000001,-0.192673
916,9.16,1.9614220000000002,1.7467009999999998,1.5195,0.100342,-0.673599,-0.15007
917,9.17,1.825532,1.853566,1.310284,0.096085,-0.700241,-0.111725
918,9.18,1.5999780000000001,1.7278240000000002,1.339233,0.13761900000000002,-0.677872,-0.05632
919,9.19,1.191301,1.3938409999999999,1.331658,0.183426,-0.640579,0.017181000000000002
920,9.2,0.5938399999999999,0.732233,1.345703,0.21646100000000001,-0.613953,0.085358
921,9.21,-0.13958499999999996,0.13870699999999994,1.16289,0.23243699999999998,-0.5766600000000001,0.12796
922,9.22,-0.8039800000000001,-0.176679,0.8954479999999999,0.22283899999999998,-0.538315,0.153534
923,9.23,-1.1816149999999999,-0.183592,0.62697,0.196213,-0.479721,0.18229700000000001
924,9.24,-1.174424,-0.108697,0.42215,0.166382,-0.411545,0.225967
925,9.25,-0.884916,-0.057316,0.38313,0.14189100000000002,-0.335922,0.268585
926,9.26,-0.47517200000000004,-0.129642,0.456041,0.135498,-0.269867,0.313324
927,9.27,-0.147698,-0.34028400000000003,0.484389,0.140823,-0.209152,0.349548
928,9.28,0.1464,-0.666065,0.373969,0.15361,-0.162277,0.375107
929,9.29,0.371586,-1.085223,0.158909,0.158936,-0.13351400000000002,0.390015
930,9.3,0.48229099999999997,-1.549749,0.069489,0.15361,-0.130325,0.398544
931,9.31,0.503761,-1.90481,0.052862,0.151474,-0.13351400000000002,0.398544
932,9.32,0.47483100000000006,-2.202065,0.038562,0.14827,-0.135651,0.398544
933,9.33,0.476946,-2.3161509999999996,-0.033026000000000014,0.139755,-0.12286400000000001,0.400681
934,9.34,0.482642,-2.322324,-0.173682,0.112061,-0.107956,0.400681
935,9.35,0.412238,-2.299846,-0.253276,0.064117,-0.071732,0.393219
936,9.36,0.391365,-2.188499,-0.304182,0.014053,-0.034454000000000005,0.372971
937,9.37,0.31551,-2.043551,-0.273246,-0.024291999999999998,0.010300000000000002,0.339951
938,9.38,0.281754,-1.851968,-0.235197,-0.048798,0.052902,0.299469
939,9.39,0.309925,-1.7601799999999999,-0.19054200000000002,-0.06051599999999999,0.096573,0.256866
940,9.4,0.382038,-1.712996,-0.158131,-0.061584,0.138123,0.215317
941,9.41,0.5044569999999999,-1.686409,-0.21142199999999997,-0.047729,0.173279,0.174835
942,9.42,0.696465,-1.692879,-0.35377800000000004,-0.034943,0.19458,0.132233
943,9.43,0.876452,-1.726373,-0.485407,-0.020035,0.205231,0.090683
944,9.44,0.9998469999999999,-1.6500110000000001,-0.635658,0.0023349999999999994,0.21162399999999998,0.047012
945,9.45,0.9478489999999999,-1.356559,-0.8587540000000001,0.017242,0.22122199999999997,0.0043950000000000005
946,9.46,0.850714,-1.075975,-1.1778309999999999,0.039626999999999996,0.231873,-0.040344
947,9.47,0.651144,-0.754549,-1.542257,0.06304900000000001,0.23613,-0.091476
948,9.48,0.439158,-0.5668,-1.8242479999999999,0.073715,0.230804,-0.141541
949,9.49,0.174558,-0.4048,-1.90658,0.070511,0.22547899999999998,-0.182022
950,9.5,0.043517,-0.18714,-1.9122279999999998,0.074768,0.237198,-0.20439100000000002
951,9.51,0.01895,0.11838300000000003,-1.992979,0.090759,0.24678000000000003,-0.212921
952,9.52,0.153857,0.36595500000000003,-2.145277,0.123779,0.252106,-0.208664
953,9.53,0.501912,0.34725500000000004,-2.056737,0.13443,0.21482800000000002,-0.195877
954,9.54,0.722314,0.387411,-1.8625990000000001,0.12271099999999999,0.154099,-0.14260899999999999
955,9.55,1.0889799999999998,0.541293,-1.7565680000000001,0.095016,0.130661,-0.063782
956,9.56,1.4001649999999999,0.852656,-1.8162610000000001,0.046005000000000004,0.11788900000000001,0.016113
957,9.57,1.506038,1.122099,-1.780578,0.003403,0.09338400000000001,0.07470700000000001
958,9.58,1.288397,1.295449,-1.898714,0.007660000000000002,0.077408,0.11198399999999999
959,9.59,0.654083,1.4794479999999999,-2.124441,0.049210000000000004,0.094452,0.126907
960,9.6,-0.015776000000000012,1.632164,-2.522751,0.090759,0.146652,0.121582
961,9.61,-0.913256,1.963197,-2.36214,0.093948,0.200974,0.10347
962,9.62,-1.6370149999999999,2.838797,-1.6623560000000002,0.06944299999999999,0.265961,0.11944600000000001
963,9.63,-1.616873,3.861473,-1.025395,-0.021103,0.33520500000000003,0.203598
964,9.64,-0.884133,4.182293,0.161721,-0.186218,0.393784,0.30586199999999997
965,9.65,0.346408,3.7826910000000002,2.013634,-0.267181,0.40657,0.402802
966,9.66,1.6997380000000002,2.892113,3.703646,-0.197937,0.347977,0.47843900000000006
967,9.67,2.5751310000000003,1.7001970000000002,4.832418,-0.064774,0.276611,0.49334700000000004
968,9.68,2.537824,0.5256689999999999,5.22653,0.059860000000000003,0.220154,0.44541899999999995
969,9.69,2.0919950000000003,-0.217504,5.023643,0.129105,0.18074,0.37085
970,9.7,1.507191,-0.20388,4.677324,0.169586,0.11788900000000001,0.29628000000000004
971,9.71,0.767037,0.6272,3.9180660000000005,0.21325700000000003,0.082733,0.23449699999999998
972,9.72,0.405589,1.410892,3.203382,0.254807,0.091248,0.156723
973,9.73,0.16026700000000002,1.741669,2.900252,0.332565,0.055038,0.062988
974,9.74,-0.241317,1.8222610000000001,2.4718430000000002,0.440155,-0.035507,-0.030762000000000005
975,9.75,-0.499594,1.56423,1.7567669999999997,0.507278,-0.123932,-0.11598199999999999
976,9.76,-0.41089899999999996,0.7705629999999999,1.166248,0.496613,-0.17185999999999998,-0.19162
977,9.77,-0.021976,-0.17215400000000006,0.785981,0.417786,-0.19104000000000002,-0.23529099999999997
978,9.78,0.586507,-0.770209,0.460421,0.31445300000000004,-0.227264,-0.258728
979,9.79,1.116755,-0.9630709999999999,0.314407,0.207932,-0.297562,-0.27577199999999996
980,9.8,1.43103,-0.9339379999999999,0.26293099999999997,0.11738599999999999,-0.405167,-0.29921
981,9.81,1.415383,-0.771193,0.265798,0.038558999999999996,-0.520203,-0.33009299999999997
982,9.82,1.13731,-0.656683,0.37593699999999997,-0.02536,-0.617142,-0.360992
983,9.83,0.777854,-0.655749,0.469329,-0.07223500000000001,-0.6863859999999999,-0.380157
984,9.84,0.410483,-0.793092,0.563616,-0.105255,-0.73645,-0.395081
985,9.85,0.11946300000000001,-0.9473860000000001,0.5803470000000001,-0.12123099999999999,-0.7748109999999999,-0.395081
986,9.86,-0.212784,-1.117215,0.42037399999999997,-0.11911,-0.802505,-0.392944
987,9.87,-0.474674,-1.349586,0.23563499999999998,-0.10418699999999999,-0.829132,-0.380157
988,9.88,-0.586672,-1.612112,0.087266,-0.089279,-0.850433,-0.36525
989,9.89,-0.57872,-1.8097720000000002,-0.030549,-0.087143,-0.862152,-0.346069
990,9.9,-0.475526,-1.927354,-0.192673,-0.113785,-0.8653559999999999,-0.319443
991,9.91,-0.323125,-1.996331,-0.260588,-0.163849,-0.862152,-0.291748
992,9.92,-0.20465,-1.916466,-0.289557,-0.217102,-0.8632200000000001,-0.26405300000000004
993,9.93,-0.203738,-1.807621,-0.270557,-0.255463,-0.864288,-0.233154
994,9.94,-0.26319899999999996,-1.694794,-0.28945,-0.266113,-0.860031,-0.20333900000000002
995,9.95,-0.45691800000000005,-1.614215,-0.362765,-0.24693299999999999,-0.8557739999999999,-0.177765
996,9.96,-0.74807,-1.58257,-0.45163000000000003,-0.21923800000000002,-0.83873,-0.158585
997,9.97,-1.0359559999999999,-1.5890549999999999,-0.590288,-0.202194,-0.812088,-0.145813
998,9.98,-1.269838,-1.6527060000000002,-0.6171770000000001,-0.19261199999999998,-0.775879,-0.122375
999,9.99,-1.320654,-1.684998,-0.637051,-0.19368,-0.7353970000000001,-0.094681
1000,10.0,-1.200847,-1.6554810000000002,-0.627258,-0.186218,-0.690643,-0.05632
1001,10.01,-0.970535,-1.5530549999999999,-0.66499,-0.168106,-0.65976,-0.013718
1002,10.02,-0.68199,-1.373006,-0.739102,-0.138275,-0.6395109999999999,0.029968
1003,10.03,-0.36849699999999996,-1.130419,-0.8458829999999999,-0.10206599999999999,-0.6341859999999999,0.068314
1004,10.04,-0.2092,-0.988,-1.046705,-0.056259,-0.630997,0.09494
1005,10.05,-0.091669,-0.9114620000000001,-1.238702,-0.017899,-0.633133,0.11412
1006,10.06,-0.067897,-0.952016,-1.536723,0.006591999999999999,-0.633133,0.118378
1007,10.07,-0.258854,-0.8759020000000001,-1.7520369999999998,0.008728,-0.6427149999999999,0.13009600000000002
1008,10.08,-0.602453,-0.770088,-1.786661,-0.014709,-0.625671,0.146072
1009,10.09,-0.893012,-0.334936,-1.7611139999999998,-0.058379999999999994,-0.582001,0.14820899999999998
1010,10.1,-1.321157,0.322335,-1.847964,-0.105255,-0.525528,0.123703
1011,10.11,-1.759726,0.8838010000000001,-1.810225,-0.154251,-0.450974,0.06405599999999999
1012,10.12,-2.151328,1.328846,-1.6398439999999999,-0.197937,-0.366806,-0.016907000000000002
1013,10.13,-2.271379,1.6529220000000002,-1.471475,-0.24054,-0.27413899999999997,-0.096802
1014,10.14,-2.0775040000000002,1.9013799999999998,-1.326791,-0.262909,-0.194244,-0.155396
1015,10.15,-1.550334,2.0536209999999997,-1.392205,-0.253326,-0.143112,-0.177765
1016,10.16,-0.736905,2.0641540000000003,-1.506232,-0.20539899999999997,-0.135651,-0.175629
1017,10.17,0.294566,2.379126,-1.349604,-0.163849,-0.16334500000000002,-0.154327
1018,10.18,1.3987020000000001,3.21561,-1.2141979999999999,-0.136154,-0.244308,-0.145813
1019,10.19,2.0288880000000002,4.100453,-1.340866,-0.24267600000000003,-0.325272,-0.18309
1020,10.2,2.207247,4.293622,-0.472422,-0.43868999999999997,-0.39238,-0.274704
1021,10.21,1.6764560000000002,3.952107,0.916816,-0.5271,-0.426468,-0.383362
1022,10.22,0.8386459999999999,3.1177799999999998,2.388847,-0.488754,-0.47546400000000005,-0.446213
1023,10.23,0.03062300000000001,1.7532869999999998,3.638235,-0.40033,-0.509552,-0.448349
1024,10.24,-0.219036,0.44593599999999994,4.5896360000000005,-0.312988,-0.542572,-0.400406
1025,10.25,0.250929,-0.356089,4.7496160000000005,-0.24054,-0.591583,-0.32264699999999996
1026,10.26,0.8570139999999999,-0.434144,4.536798,-0.164917,-0.629929,-0.256592
1027,10.27,1.490602,0.032191000000000025,3.4500129999999998,-0.10845899999999999,-0.710892,-0.229965
1028,10.28,1.591821,0.565403,2.561641,-0.06691,-0.815292,-0.192673
1029,10.29,1.567046,1.044542,1.8694959999999998,0.018311,-0.8791959999999999,-0.122375
1030,10.3,1.535204,1.0729899999999999,1.3888770000000001,0.107803,-0.891983,-0.026505
1031,10.31,1.37122,0.899332,1.278615,0.146149,-0.8557739999999999,0.07257100000000001
1032,10.32,1.13012,0.605288,1.27452,0.13443,-0.818481,0.166321
1033,10.33,0.57208,0.27303099999999997,1.200301,0.104599,-0.787582,0.235565
1034,10.34,-0.134178,0.070064,1.087266,0.083298,-0.756699,0.280304
1035,10.35,-0.810516,-0.12278399999999999,0.9526700000000001,0.068375,-0.708755,0.299469
1036,10.36,-1.155327,-0.09466000000000001,0.884763,0.060927999999999996,-0.633133,0.31012
1037,10.37,-1.154001,-0.058159,0.801014,0.060927999999999996,-0.546844,0.321838
1038,10.38,-0.764936,-0.028239,0.797933,0.073715,-0.45523100000000005,0.351669
1039,10.39,-0.275196,-0.133915,0.659089,0.104599,-0.367874,0.386826
1040,10.4,0.21506200000000006,-0.302466,0.5359689999999999,0.13761900000000002,-0.307159,0.41452
1041,10.41,0.584596,-0.611355,0.263371,0.15998800000000002,-0.275192,0.429443
1042,10.42,0.784342,-1.1212090000000001,0.046859,0.163193,-0.272003,0.43263199999999996
1043,10.43,0.9186840000000001,-1.627216,-0.151358,0.151474,-0.29118299999999997,0.428375
1044,10.44,0.894824,-2.077363,-0.21177100000000001,0.129105,-0.31567399999999995,0.427307
1045,10.45,0.805773,-2.3893869999999997,-0.255104,0.11099200000000001,-0.328461,0.428375
1046,10.46,0.740522,-2.535546,-0.396757,0.091812,-0.33165,0.433701
1047,10.47,0.618444,-2.509138,-0.49713900000000005,0.053466999999999994,-0.326324,0.427307
1048,10.48,0.42979399999999995,-2.3393759999999997,-0.49807799999999997,0.00019800000000000023,-0.30928,0.410263
1049,10.49,0.242248,-2.1539349999999997,-0.47258500000000003,-0.050934,-0.273071,0.378296
1050,10.5,0.083446,-1.984578,-0.41938400000000003,-0.085022,-0.226196,0.33676100000000003
1051,10.51,0.067197,-1.846866,-0.37828,-0.10951199999999998,-0.170807,0.295212
1052,10.52,0.102843,-1.7263650000000001,-0.335378,-0.116974,-0.11647,0.25473
1053,10.53,0.222398,-1.585323,-0.378188,-0.126556,-0.062149,0.229172
1054,10.54,0.444291,-1.442898,-0.460606,-0.127625,-0.021667,0.203598
1055,10.55,0.585216,-1.346354,-0.5281520000000001,-0.125504,0.004974,0.175903
1056,10.56,0.7732100000000001,-1.2268729999999999,-0.655852,-0.10951199999999998,0.028397000000000002,0.141815
1057,10.57,0.8564649999999999,-1.072638,-0.826426,-0.090347,0.042252,0.10133400000000001
1058,10.58,0.881425,-0.84072,-1.039279,-0.061584,0.052902,0.059784000000000004
1059,10.59,0.868876,-0.5272180000000001,-1.29215,-0.027496,0.06143200000000001,0.013977000000000002
1060,10.6,0.71578,-0.275165,-1.516052,0.012985,0.057159,-0.041412
1061,10.61,0.549006,-0.024055999999999998,-1.697616,0.055603,0.058227999999999995,-0.096802
1062,10.62,0.35136,0.21182600000000001,-1.887723,0.096085,0.06675700000000001,-0.143677
1063,10.63,0.296198,0.354918,-2.067899,0.124847,0.06994600000000001,-0.178833
1064,10.64,0.310727,0.369746,-2.178476,0.151474,0.065689,-0.195877
1065,10.65,0.47196499999999997,0.161189,-2.119267,0.179169,0.044388,-0.195877
1066,10.66,0.763883,-0.16613800000000006,-1.85172,0.191956,-0.007811999999999999,-0.180954
1067,10.67,0.99472,-0.263417,-1.5713540000000001,0.193024,-0.077057,-0.12449600000000001
1068,10.68,1.501829,-0.100855,-1.471735,0.161057,-0.11860699999999999,-0.053131
1069,10.69,1.86158,0.341125,-1.4324350000000001,0.09287999999999999,-0.159088,0.00972
1070,10.7,1.6015110000000001,1.2557479999999999,-1.5064950000000001,0.037491000000000003,-0.156952,0.0811
1071,10.71,0.80078,1.809475,-1.653774,0.074768,-0.10688800000000001,0.10133400000000001
1072,10.72,-0.186151,2.1416630000000003,-2.038321,0.15466300000000002,-0.022736000000000003,0.108795
1073,10.73,-1.242392,2.31548,-2.225329,0.21751399999999999,0.068878,0.088547
1074,10.74,-2.42285,2.891681,-1.612118,0.23669400000000002,0.159424,0.082153
1075,10.75,-2.8559930000000002,3.816045,-1.007922,0.183426,0.26808200000000004,0.131165
1076,10.76,-2.5401119999999997,4.3071470000000005,-0.0196329999999999,-0.007248000000000003,0.403381,0.225967
1077,10.77,-1.223723,3.8286290000000003,1.862227,-0.163849,0.520554,0.309067
1078,10.78,0.5362959999999999,3.0036110000000003,3.713538,-0.141479,0.49604799999999993,0.3815
1079,10.79,1.689807,2.074553,4.730216,-0.016846,0.420425,0.42305
1080,10.8,2.0851919999999997,0.958466,5.134737,0.123779,0.37355,0.41452
1081,10.81,2.116654,-0.176169,4.431633000000001,0.266525,0.305374,0.334625
1082,10.82,1.7364490000000001,0.079264,3.7820970000000003,0.329376,0.23294099999999998,0.27816799999999997
1083,10.83,1.117158,0.7132189999999999,2.78268,0.362396,0.200974,0.232361
1084,10.84,0.781674,1.111515,2.1565060000000003,0.349609,0.193512,0.16951
1085,10.85,0.363705,1.287892,2.004095,0.350677,0.129608,0.090683
1086,10.86,-0.22186100000000006,1.345666,1.7587720000000002,0.381577,0.034789999999999995,0.022507
1087,10.87,-0.514935,0.986418,1.419797,0.398621,-0.026993,-0.048874
1088,10.88,-0.511937,0.221865,0.9650120000000001,0.354935,-0.045105,-0.10745199999999999
1089,10.89,-0.12173699999999997,-0.530651,0.731015,0.2612,-0.067474,-0.15113800000000002
1090,10.9,0.391458,-0.8912959999999999,0.57406,0.161057,-0.119675,-0.179901
1091,10.91,1.100775,-0.9444620000000001,0.32459699999999997,0.018311,-0.25709499999999996,-0.240616
1092,10.92,1.238019,-0.982859,0.308958,-0.065842,-0.361481,-0.286423
1093,10.93,1.14971,-1.0665959999999999,0.46046099999999995,-0.136154,-0.439255,-0.33009299999999997
1094,10.94,0.960573,-1.1344370000000001,0.635887,-0.184082,-0.494644,-0.358856
1095,10.95,0.755829,-1.260161,0.705789,-0.20005799999999999,-0.545776,-0.368454
1096,10.96,0.525414,-1.430807,0.66393,-0.197937,-0.5990449999999999,-0.36525
1097,10.97,0.24297399999999997,-1.623399,0.49991,-0.18196099999999998,-0.65123,-0.340744
1098,10.98,0.042493,-1.82706,0.478396,-0.156387,-0.684265,-0.316254
1099,10.99,-0.140479,-1.953284,0.342033,-0.127625,-0.700241,-0.287491
1100,11.0,-0.31083299999999997,-2.028648,0.16703900000000002,-0.105255,-0.705566,-0.267242
1101,11.01,-0.46771899999999994,-2.041507,0.021945999999999997,-0.098862,-0.70343,-0.250198
1102,11.02,-0.6671819999999999,-1.913169,-0.12228800000000001,-0.10739100000000001,-0.700241,-0.233154
1103,11.03,-0.831499,-1.7330830000000002,-0.302365,-0.122299,-0.690643,-0.215042
1104,11.04,-0.9303790000000001,-1.551002,-0.470102,-0.138275,-0.67894,-0.188416
1105,11.05,-0.9616540000000001,-1.472633,-0.591216,-0.151062,-0.660828,-0.16391
1106,11.06,-0.959722,-1.369142,-0.666092,-0.153198,-0.6416470000000001,-0.13942000000000002
1107,11.07,-0.9496610000000001,-1.462359,-0.654998,-0.14573699999999998,-0.624603,-0.11491400000000002
1108,11.08,-0.978941,-1.571301,-0.664274,-0.137207,-0.593704,-0.093613
1109,11.09,-1.051009,-1.6726619999999999,-0.647633,-0.136154,-0.557495,-0.071243
1110,11.1,-1.054152,-1.663132,-0.7335050000000001,-0.128693,-0.522339,-0.050995
1111,11.11,-1.064157,-1.496394,-0.782782,-0.12123099999999999,-0.495712,-0.029693999999999998
1112,11.12,-0.964985,-1.224209,-0.8757469999999999,-0.10206599999999999,-0.4776,-0.005188
1113,11.13,-0.75935,-0.966825,-1.082287,-0.071167,-0.46907,0.021439
1114,11.14,-0.618494,-0.7936310000000001,-1.212609,-0.043472000000000004,-0.466949,0.041687
1115,11.15,-0.547089,-0.660121,-1.229941,-0.023224,-0.46374499999999996,0.055527
1116,11.16,-0.509678,-0.588387,-1.2562200000000001,-0.00618,-0.460556,0.06405599999999999
1117,11.17,-0.464031,-0.44206000000000006,-1.34521,0.012985,-0.454163,0.076828
1118,11.18,-0.683399,-0.276865,-1.422748,0.027908,-0.42753599999999997,0.085358
1119,11.19,-1.106658,0.07555400000000001,-1.37019,0.027908,-0.372131,0.087479
1120,11.2,-1.719585,0.643281,-1.3254620000000001,0.015121,-0.293304,0.06192
1121,11.21,-2.45545,1.335353,-1.193474,-0.004058999999999999,-0.204895,0.002258000000000003
1122,11.22,-3.091332,1.875372,-1.007816,-0.023224,-0.08984400000000001,-0.07975800000000001
1123,11.23,-3.4645089999999996,2.265531,-0.814423,-0.037079,0.03266899999999999,-0.170303
1124,11.24,-3.394574,2.370756,-0.675607,-0.039215,0.143448,-0.236359
1125,11.25,-2.763636,2.2003310000000003,-0.734317,-0.016846,0.231873,-0.26405300000000004
1126,11.26,-1.8468490000000002,2.086809,-0.908479,0.042816,0.284073,-0.252335
1127,11.27,-0.722525,2.2697529999999997,-0.9913190000000001,0.102478,0.296844,-0.21611
1128,11.28,0.252042,2.9237759999999997,-1.1088559999999998,0.11099200000000001,0.264893,-0.178833
1129,11.29,1.0203149999999999,3.610415,-1.0185110000000002,-0.015778,0.23613,-0.177765
1130,11.3,1.558247,3.716908,-0.18661,-0.195801,0.22547899999999998,-0.23848000000000003
1131,11.31,1.150631,3.130791,1.123793,-0.27037,0.18074,-0.321579
1132,11.32,0.28441900000000003,1.8163060000000002,2.4951380000000003,-0.238419,0.122147,-0.36950700000000003
1133,11.33,-0.092559,0.526506,3.340978,-0.164917,0.052902,-0.366318
1134,11.34,0.266427,-0.321763,3.621854,-0.096741,-0.040833000000000015,-0.320511
1135,11.35,0.86288,-0.7326,3.988521,-0.023224,-0.15802,-0.23422199999999999
1136,11.36,1.971191,0.08316500000000003,3.159134,0.042816,-0.234711,-0.167114
1137,11.37,2.4852939999999997,1.159632,2.300247,0.032166,-0.33699,-0.118103
1138,11.38,2.591929,1.972807,1.732127,0.014053,-0.398773,-0.077637
1139,11.39,2.279382,2.210464,1.588406,0.044952,-0.415817,-0.029693999999999998
1140,11.4,1.646471,1.998345,1.611597,0.102478,-0.398773,0.029968
1141,11.41,0.785053,1.316763,1.6792610000000001,0.15040599999999998,-0.37001,0.09814500000000001
1142,11.42,-0.06687700000000002,0.497835,1.611201,0.166382,-0.340179,0.15246600000000002
1143,11.43,-0.759145,-0.189346,1.421405,0.158936,-0.300766,0.18548599999999998
1144,11.44,-1.312077,-0.542641,1.1316,0.129105,-0.256027,0.21318099999999998
1145,11.45,-1.4337739999999999,-0.649521,0.9556450000000001,0.09287999999999999,-0.202759,0.25473
1146,11.46,-1.263249,-0.46943,0.749916,0.061996,-0.127121,0.303741
1147,11.47,-0.905645,-0.33760500000000004,0.618897,0.042816,-0.046173,0.349548
1148,11.48,-0.547737,-0.349933,0.46648,0.039626999999999996,0.029464999999999998,0.379364
1149,11.49,-0.25064000000000003,-0.556778,0.331493,0.052399,0.08699,0.397476
1150,11.5,0.046352999999999984,-0.888943,0.143494,0.064117,0.130661,0.407059
1151,11.51,0.27924699999999997,-1.290564,0.039092,0.079041,0.150909,0.406006
1152,11.52,0.516415,-1.7154490000000002,-0.038325,0.096085,0.15623499999999998,0.39961199999999997
1153,11.53,0.704784,-2.089506,-0.23915999999999998,0.10992400000000001,0.143448,0.390015
1154,11.54,0.772452,-2.4129080000000003,-0.346208,0.103531,0.12107799999999999,0.36978099999999997
1155,11.55,0.776297,-2.560432,-0.423005,0.073715,0.110428,0.356995
1156,11.56,0.7237100000000001,-2.62704,-0.48566400000000004,0.022583000000000002,0.110428,0.339951
1157,11.57,0.650895,-2.4403799999999998,-0.46874399999999994,-0.038147,0.114685,0.316513
1158,11.58,0.534798,-2.139132,-0.355603,-0.09567300000000001,0.123215,0.28881799999999996
1159,11.59,0.376382,-1.8377169999999998,-0.252236,-0.128693,0.136002,0.25154099999999996
1160,11.6,0.221515,-1.6448509999999998,-0.16103699999999999,-0.13295,0.155167,0.212128
1161,11.61,0.180221,-1.540333,-0.18731,-0.115906,0.179672,0.174835
1162,11.62,0.30338200000000004,-1.570584,-0.310866,-0.088211,0.193512,0.13755799999999999
1163,11.63,0.6003569999999999,-1.637887,-0.508725,-0.064774,0.19458,0.104538
1164,11.64,0.9380139999999999,-1.668694,-0.754283,-0.055191,0.189255,0.073639
1165,11.65,1.137359,-1.6392830000000003,-0.9673649999999999,-0.063705,0.174347,0.044876
1166,11.66,1.156147,-1.518138,-1.09985,-0.07756,0.149841,0.025695999999999997
1167,11.67,1.0575,-1.412943,-1.19402,-0.094604,0.133865,0.011856000000000002
1168,11.68,0.792734,-1.323106,-1.183058,-0.10845899999999999,0.12428299999999999,-0.0030670000000000003
1169,11.69,0.49453800000000003,-1.093141,-1.058311,-0.115906,0.11256400000000001,-0.020111
1170,11.7,0.21289500000000006,-0.697816,-0.8997809999999999,-0.113785,0.096573,-0.035019
1171,11.71,0.01721399999999999,-0.209121,-0.907969,-0.085022,0.085922,-0.050995
1172,11.72,-0.090148,0.226408,-1.008492,-0.036011,0.075272,-0.060592999999999994
1173,11.73,-0.137516,0.410587,-1.327351,0.027907999999999995,0.06994600000000001,-0.073364
1174,11.74,0.09429900000000001,0.299311,-1.49168,0.08541900000000001,0.047577,-0.07656900000000001
1175,11.75,0.467022,0.152075,-1.417498,0.107803,0.0007020000000000048,-0.063782
1176,11.76,0.923534,0.127968,-1.21999,0.095016,-0.026993,-0.007323999999999997
1177,11.77,1.456609,0.314564,-1.110012,0.058792,-0.035507,0.057663
1178,11.78,1.733254,0.713571,-1.047035,0.007659999999999999,-0.048294,0.11198399999999999
1179,11.79,1.596862,1.174432,-1.0802100000000001,-0.010452,-0.05575599999999999,0.140747
1180,11.8,0.857454,1.639704,-1.401144,0.031097000000000003,-0.03978,0.14820899999999998
1181,11.81,-0.150661,1.944489,-1.8884459999999998,0.1259,0.014556999999999999,0.13542200000000001
1182,11.82,-1.044395,2.013332,-2.414906,0.209,0.09552000000000001,0.108795
1183,11.83,-2.124344,2.121397,-2.200549,0.20047,0.182861,0.068314
1184,11.84,-2.839109,2.877871,-1.1312799999999998,0.156799,0.30004899999999995,0.070435
1185,11.85,-2.769336,4.153474,-0.46750600000000003,0.040680000000000015,0.38952600000000004,0.168442
1186,11.86,-1.6370020000000003,4.263832,0.902149,-0.115906,0.497116,0.285629
1187,11.87,-0.05827800000000005,3.518133,2.764945,-0.126556,0.502441,0.390015
1188,11.88,1.167471,2.871167,3.792151,0.0001980000000000037,0.43746899999999994,0.47950699999999996
1189,11.89,1.856437,1.735802,4.194363,0.15040599999999998,0.40870700000000004,0.505066
1190,11.9,1.5297020000000001,0.2184490000000001,4.322394,0.254807,0.44811999999999996,0.46032700000000004
1191,11.91,0.959825,-0.803983,3.79751,0.28036500000000003,0.47474700000000003,0.394287
1192,11.92,0.527031,-0.485538,3.357772,0.253738,0.45983900000000005,0.32611100000000004
1193,11.93,0.075461,0.751456,2.6623240000000004,0.20579499999999998,0.45983900000000005,0.28881799999999996
1194,11.94,0.310316,1.64473,2.269534,0.161057,0.501373,0.235565
1195,11.95,0.405457,1.8682869999999998,2.256696,0.158936,0.46835299999999996,0.153534
1196,11.96,0.107155,1.9459819999999999,2.194274,0.202606,0.37248200000000004,0.071503
1197,11.97,-0.14143700000000006,1.505911,1.7612990000000002,0.246277,0.294724,-0.019043
1198,11.98,-0.092221,0.630629,1.205378,0.23988299999999999,0.251038,-0.102127
1199,11.99,0.10643399999999999,-0.21461100000000005,0.7598550000000001,0.18023699999999998,0.2276,-0.166046
1200,12.0,0.425407,-0.725193,0.439475,0.096085,0.193512,-0.20971700000000001
1201,12.01,0.637152,-0.733454,0.27069,0.006592000000000001,0.138123,-0.24913000000000002
1202,12.02,0.696186,-0.5687300000000001,0.264396,-0.081818,0.071014,-0.29921
1203,12.03,0.480889,-0.414109,0.474774,-0.16171300000000002,0.0017700000000000007,-0.340744
1204,12.04,0.23836300000000002,-0.406658,0.664213,-0.216049,-0.057877,-0.367386
1205,12.05,0.031798999999999994,-0.562385,0.9043709999999999,-0.22776799999999997,-0.088776,-0.3759
1206,12.06,-0.13816900000000001,-0.863231,0.9219649999999999,-0.20645100000000002,-0.11328099999999999,-0.373779
1207,12.07,-0.321496,-1.259765,0.764175,-0.16597,-0.145233,-0.366318
1208,12.08,-0.493827,-1.627412,0.599854,-0.122299,-0.182526,-0.354599
1209,12.09,-0.65246,-1.911892,0.316677,-0.083954,-0.209152,-0.338623
1210,12.1,-0.822009,-2.1027270000000002,-0.03947899999999999,-0.06691,-0.226196,-0.32264699999999996
1211,12.11,-0.9286989999999999,-2.2719560000000003,-0.28058299999999997,-0.079697,-0.220871,-0.303467
1212,12.12,-0.970607,-2.266747,-0.5473020000000001,-0.120163,-0.19957,-0.27577199999999996
1213,12.13,-0.9621860000000001,-2.230991,-0.677954,-0.177689,-0.1772,-0.24913000000000002
1214,12.14,-0.909717,-2.0793049999999997,-0.765285,-0.22776799999999997,-0.161209,-0.223572
1215,12.15,-0.940541,-1.8961869999999998,-0.777732,-0.25972,-0.159088,-0.20013399999999998
1216,12.16,-0.979707,-1.762341,-0.713001,-0.272507,-0.167603,-0.173508
1217,12.17,-1.115151,-1.676968,-0.73245,-0.263977,-0.170807,-0.14793399999999998
1218,12.18,-1.162513,-1.6518439999999999,-0.797533,-0.23948699999999998,-0.164413,-0.11705
1219,12.19,-1.231399,-1.646227,-0.9458709999999999,-0.21072399999999997,-0.137772,-0.085083
1220,12.2,-1.316708,-1.65652,-1.160532,-0.19261199999999998,-0.098358,-0.058455999999999994
1221,12.21,-1.395605,-1.648677,-1.338913,-0.188339,-0.061080999999999996,-0.031830000000000004
1222,12.22,-1.389784,-1.618011,-1.3452389999999999,-0.19261199999999998,-0.025925,-0.010513
1223,12.23,-1.235052,-1.474322,-1.249398,-0.188339,-0.002487,0.017181000000000002
1224,12.24,-0.9354979999999999,-1.2107569999999999,-1.289491,-0.163849,0.006027,0.040619
1225,12.25,-0.617031,-0.9733940000000001,-1.417159,-0.12443499999999999,0.008163,0.056595000000000006
1226,12.26,-0.500188,-0.8022859999999999,-1.552209,-0.088211,0.013489,0.06192
1227,12.27,-0.536882,-0.606517,-1.6722279999999998,-0.063705,0.019882,0.055527
1228,12.28,-0.6757850000000001,-0.523602,-1.6844459999999999,-0.07435599999999999,0.029464999999999998,0.044876
1229,12.29,-0.940061,-0.5173909999999999,-1.486544,-0.10845899999999999,0.06675700000000001,0.036345999999999996
1230,12.3,-1.199309,-0.304595,-1.376566,-0.16171300000000002,0.115753,0.00972
1231,12.31,-1.5615370000000002,0.028773999999999994,-1.227166,-0.217102,0.174347,-0.026505000000000004
1232,12.32,-1.85047,0.668132,-1.1126260000000001,-0.265045,0.22973600000000002,-0.08189400000000001
1233,12.33,-2.0582740000000004,1.308649,-1.000818,-0.282089,0.274475,-0.137283
1234,12.34,-2.127311,1.8918869999999999,-1.0220989999999999,-0.263977,0.327744,-0.175629
1235,12.35,-1.942152,2.36614,-1.188592,-0.22776799999999997,0.382065,-0.18948399999999999
1236,12.36,-1.59766,2.807068,-1.433316,-0.18728599999999998,0.43426499999999996,-0.170303
1237,12.37,-1.026627,3.134775,-1.6351229999999999,-0.155319,0.46835299999999996,-0.12449600000000001
1238,12.38,-0.378753,3.5640970000000003,-1.4815479999999999,-0.142548,0.48220799999999997,-0.068039
1239,12.39,0.16257700000000005,4.497372,-1.094064,-0.144669,0.484329,-0.046738
1240,12.4,0.338439,5.696976,-1.172803,-0.20432999999999998,0.46196000000000004,-0.098938
1241,12.41,-0.12033399999999993,5.850694,-0.730259,-0.324707,0.43640100000000004,-0.218246
1242,12.42,-1.0861180000000001,5.241102,0.5287390000000001,-0.358795,0.42681899999999995,-0.363113
1243,12.43,-2.022079,4.199631,1.788719,-0.288483,0.485397,-0.468582
1244,12.44,-2.04125,2.622446,2.782421,-0.18196099999999998,0.549316,-0.495209
1245,12.45,-1.198925,0.4751889999999999,3.264548,-0.05519099999999999,0.497116,-0.43342600000000003
1246,12.46,-0.27511199999999997,-1.756721,3.3151129999999998,0.06944299999999999,0.384201,-0.301331
1247,12.47,0.9186700000000001,-3.050364,2.651809,0.170654,0.23294099999999998,-0.13089
1248,12.48,1.807353,-3.205064,1.657341,0.23243699999999998,0.06994600000000001,0.013977000000000005
1249,12.49,2.017117,-2.2391400000000004,0.8647020000000001,0.249481,-0.090912,0.08429
1250,12.5,1.377556,-0.8418690000000001,0.12211099999999996,0.181305,-0.220871,0.090683
1251,12.51,0.17406100000000002,0.208587,0.157478,0.051330999999999995,-0.23684699999999997,0.082153
1252,12.52,-0.9892059999999999,0.721938,0.814026,-0.040268,-0.08238200000000001,0.09600800000000001
1253,12.53,-2.000711,0.867402,1.269216,-0.057312,0.136002,0.143951
1254,12.54,-2.620266,0.8799450000000001,1.518232,-0.043472000000000004,0.339462,0.20573400000000003
1255,12.55,-2.639899,0.6111770000000001,1.694134,-0.015778,0.49925200000000003,0.232361
1256,12.56,-2.32138,0.249304,1.7685939999999998,0.027908,0.594055,0.24408000000000002
1257,12.57,-1.7205,0.10215700000000001,1.652638,0.077972,0.646255,0.25260900000000003
1258,12.58,-1.045851,0.14115,1.417582,0.130173,0.6771550000000001,0.27603099999999997
1259,12.59,-0.40058299999999997,0.018121,1.180185,0.19728099999999998,0.700592,0.317581
1260,12.6,0.06931699999999999,-0.149872,0.807029,0.262253,0.7155,0.363388
1261,12.61,0.309699,-0.44506,0.37587800000000005,0.318726,0.7112430000000001,0.40387
1262,12.62,0.423393,-0.858662,-0.07872099999999999,0.358139,0.689926,0.437958
1263,12.63,0.419583,-1.24822,-0.552149,0.376236,0.6611630000000001,0.452866
1264,12.64,0.352781,-1.607125,-0.8982870000000001,0.371979,0.6238859999999999,0.45819099999999996
1265,12.65,0.2425,-1.9737220000000002,-1.184131,0.340027,0.598312,0.448608
1266,12.66,0.228465,-2.271141,-1.399464,0.287827,0.586594,0.427307
1267,12.67,0.230553,-2.468563,-1.490027,0.221786,0.5844729999999999,0.401733
1268,12.68,0.329482,-2.569234,-1.535334,0.15998800000000002,0.5844729999999999,0.375107
1269,12.69,0.45786899999999997,-2.558027,-1.569585,0.099274,0.591934,0.346344
1270,12.7,0.5147619999999999,-2.549362,-1.451914,0.041748,0.587662,0.314392
1271,12.71,0.380225,-2.54033,-1.310956,-0.006180000000000002,0.565292,0.27923600000000004
1272,12.72,0.163214,-2.508239,-1.180318,-0.051987,0.548248,0.240891
1273,12.73,-0.028544,-2.562438,-1.134215,-0.07649199999999999,0.545059,0.208923
1274,12.74,-0.275499,-2.499582,-1.016849,-0.09353600000000001,0.564224,0.17697100000000002
1275,12.75,-0.46614700000000003,-2.285941,-0.8499,-0.09353600000000001,0.606842,0.15033
1276,12.76,-0.563585,-1.9356099999999998,-0.76926,-0.059448,0.6601100000000001,0.126907
1277,12.77,-0.572832,-1.560119,-0.740304,0.003403,0.703781,0.093872
1278,12.78,-0.532104,-1.24502,-0.896867,0.081161,0.718689,0.05020100000000001
1279,12.79,-0.42531499999999994,-1.080468,-1.047975,0.144012,0.712296,0.0012050000000000012
1280,12.8,-0.189649,-0.962664,-1.1265319999999999,0.18556199999999998,0.68248,-0.040344
1281,12.81,0.126133,-0.6970970000000001,-1.347007,0.211121,0.6515810000000001,-0.050995
1282,12.82,0.5329149999999999,-0.43085100000000004,-1.795186,0.22390700000000002,0.643066,-0.032882999999999996
1283,12.83,1.0358530000000001,0.369329,-2.542178,0.15361,0.615356,0.045944
1284,12.84,1.3289600000000001,2.071153,-2.630689,0.020447,0.498184,0.139679
1285,12.85,1.384706,2.590712,-2.415203,-0.036011,0.409775,0.173767
1286,12.86,1.290239,2.934765,-2.109066,-0.044539999999999996,0.313889,0.18975799999999998
1287,12.87,1.102114,3.1579610000000002,-1.8553509999999998,0.007659999999999999,0.21375999999999998,0.187622
1288,12.88,0.579467,3.5875529999999998,-1.518877,0.08329800000000001,0.11256400000000001,0.18869
1289,12.89,-0.2806540000000001,4.5372,-0.9297219999999999,0.139755,0.064621,0.20253
1290,12.9,-1.1165889999999998,5.6288279999999995,-0.445986,0.06304900000000001,0.053970000000000004,0.26326
1291,12.91,-1.7137810000000002,5.749755,1.279582,-0.16703800000000002,0.09338400000000001,0.349548
1292,12.92,-1.842007,4.984781,3.777554,-0.281021,0.145584,0.443283
1293,12.93,-1.2192690000000002,4.07515,5.438737000000001,-0.158524,0.176468,0.558334
1294,12.94,-0.7327600000000001,2.7037150000000003,6.017628,0.06837500000000002,0.198853,0.619049
1295,12.95,-0.679221,0.8224599999999999,5.583721,0.309128,0.293655,0.593491
1296,12.96,-0.849517,-0.39079400000000003,4.527847,0.48384099999999997,0.44705200000000006,0.477371
1297,12.97,-1.273966,-0.422447,2.863871,0.545624,0.590866,0.34315500000000004
1298,12.98,-1.465057,-0.0012989999999999946,1.4518950000000002,0.48277299999999995,0.718689,0.243011
1299,12.99,-1.241278,0.367504,0.524458,0.358139,0.806046,0.163116
1300,13.0,-1.292927,0.6792050000000001,0.055897,0.228165,0.7890010000000001,0.091751
1301,13.01,-1.13509,0.665192,-0.183828,0.087555,0.7080380000000001,0.031020999999999996
1302,13.02,-0.6537,0.208512,0.03781400000000002,-0.06691,0.6601100000000001,-0.038208
1303,13.03,-0.140733,-0.200295,0.451967,-0.20005799999999999,0.653717,-0.100006
1304,13.04,0.332257,-0.307267,0.746301,-0.28527800000000003,0.637741,-0.159653
1305,13.05,0.566628,-0.451834,0.789403,-0.316177,0.595123,-0.222504
1306,13.06,0.627261,-0.8087,0.726685,-0.302338,0.531204,-0.27684000000000003
1307,13.07,0.552841,-1.180007,0.52503,-0.272507,0.47474700000000003,-0.3237
1308,13.08,0.41292299999999993,-1.6081239999999999,0.25041399999999997,-0.245865,0.41296400000000005,-0.370575
1309,13.09,0.245387,-1.982822,0.019583000000000017,-0.233093,0.36183200000000004,-0.402542
1310,13.1,0.037739,-2.299312,-0.193999,-0.22349499999999997,0.312836,-0.425964
1311,13.11,-0.11850799999999999,-2.469769,-0.348958,-0.214981,0.274475,-0.43342600000000003
1312,13.12,-0.31599499999999997,-2.598866,-0.5166850000000001,-0.203262,0.230804,-0.425964
1313,13.13,-0.482929,-2.589359,-0.596821,-0.189407,0.199905,-0.415314
1314,13.14,-0.743057,-2.522223,-0.616192,-0.168106,0.179672,-0.40679899999999997
1315,13.15,-1.047168,-2.374377,-0.665324,-0.14573699999999998,0.182861,-0.404663
1316,13.16,-1.267668,-2.213022,-0.745207,-0.126556,0.182861,-0.407867
1317,13.17,-1.475471,-2.011947,-0.869253,-0.123367,0.169022,-0.409988
1318,13.18,-1.60663,-1.831955,-0.967432,-0.128693,0.15304600000000002,-0.395081
1319,13.19,-1.506376,-1.712379,-1.111035,-0.139343,0.147705,-0.367386
1320,13.2,-1.306016,-1.673902,-1.310431,-0.15213,0.139191,-0.338623
1321,13.21,-1.043709,-1.699758,-1.468429,-0.156387,0.114685,-0.308792
1322,13.22,-0.773727,-1.695301,-1.547042,-0.146805,0.07633999999999999,-0.282166
1323,13.23,-0.631603,-1.589725,-1.567018,-0.11483800000000001,0.045441,-0.258728
1324,13.24,-0.668482,-1.2626680000000001,-1.566748,-0.055191,0.007094999999999997,-0.23422199999999999
1325,13.25,-0.8356020000000001,-0.786423,-1.855046,0.025772000000000003,-0.026993,-0.202271
1326,13.26,-0.986975,-0.17689700000000005,-2.267309,0.108856,-0.05575599999999999,-0.16178900000000002
1327,13.27,-1.1495389999999999,0.29436100000000004,-2.567134,0.171707,-0.084518,-0.12449600000000001
1328,13.28,-1.339803,0.48498100000000005,-2.9010689999999997,0.21965,-0.115402,-0.08934
1329,13.29,-1.527518,0.394016,-2.9767799999999998,0.237762,-0.136719,-0.046738
1330,13.3,-1.7546240000000002,0.551085,-2.866015,0.20686300000000002,-0.13458299999999998,0.00972
1331,13.31,-2.059455,1.049307,-2.705395,0.13761900000000002,-0.11860699999999999,0.054459
1332,13.32,-2.490415,1.685041,-2.566252,0.048141,-0.080261,0.07470700000000001
1333,13.33,-3.153836,2.0863080000000003,-2.255664,-0.041336000000000005,-0.020599,0.07896399999999999
1334,13.34,-3.621579,2.297846,-1.8565,-0.103119,0.084854,0.082153
1335,13.35,-3.3454269999999995,2.381672,-1.472356,-0.125504,0.198853,0.088547
1336,13.36,-2.4712240000000003,2.467134,-1.064869,-0.09992999999999999,0.260635,0.092819
1337,13.37,-0.7525569999999999,2.96177,-0.191121,-0.092468,0.25317399999999995,0.083221
1338,13.38,0.814771,3.896896,1.3783540000000003,-0.10845899999999999,0.134933,0.041687
1339,13.39,2.702269,4.95132,2.111879,-0.28527800000000003,-0.028061,-0.050995
1340,13.4,3.755638,4.500726,4.078344,-0.581436,-0.165482,-0.20652800000000002
1341,13.41,3.403808,2.9872810000000003,6.393253,-0.59314,-0.145233,-0.383362
1342,13.42,1.622853,1.593617,6.988707000000001,-0.273575,0.008163000000000005,-0.539948
1343,13.43,-0.37553200000000003,0.5025470000000001,5.648643,0.182358,0.125336,-0.588959
1344,13.44,-1.718231,-0.100324,3.7215510000000003,0.574387,0.132797,-0.5218510000000001
1345,13.45,-2.0516490000000003,-0.082604,1.7540919999999998,0.804474,0.115753,-0.385498
1346,13.46,-1.604935,0.27475,0.10564300000000017,0.805542,0.173279,-0.267242
1347,13.47,-1.125029,0.764368,-0.7346010000000001,0.6063390000000001,0.181793,-0.170303
1348,13.48,-0.637729,1.246461,-0.883066,0.330444,0.164749,-0.08934
1349,13.49,-0.429396,1.6941389999999998,-0.9244049999999999,0.072647,0.129608,-0.044601
1350,13.5,-0.828425,1.64924,-0.17857,-0.103119,0.11256400000000001,0.024643
1351,13.51,-0.9474809999999999,1.378963,0.724021,-0.142548,0.159424,0.12051400000000001
1352,13.52,-0.907394,1.203403,1.2865540000000002,-0.07756,0.23294099999999998,0.200409
1353,13.53,-0.845493,0.791203,1.5514780000000001,0.031097000000000003,0.30856300000000003,0.264313
1354,13.54,-0.679528,0.319848,1.289324,0.15466300000000002,0.38526900000000003,0.321838
1355,13.55,-0.552823,-0.351536,0.719233,0.255875,0.444916,0.350601
1356,13.56,-0.552348,-1.1261459999999999,0.147267,0.315521,0.47261000000000003,0.37191799999999997
1357,13.57,-0.7019449999999999,-2.0795369999999997,-0.201639,0.338959,0.49604799999999993,0.386826
1358,13.58,-0.8994139999999999,-3.039773,-0.298406,0.332565,0.523758,0.404938
1359,13.59,-0.9812870000000001,-3.8598790000000003,-0.40691700000000003,0.293152,0.557846,0.416656
1360,13.6,-0.960517,-4.487612,-0.399978,0.238831,0.591934,0.43688999999999995
1361,13.61,-0.675583,-4.7837559999999995,-0.48404200000000003,0.18023699999999998,0.611099,0.443283
1362,13.62,-0.354919,-4.654851,-0.546462,0.12271099999999999,0.6047060000000001,0.441147
1363,13.63,0.022927000000000003,-4.3350290000000005,-0.62143,0.076904,0.594055,0.42305
1364,13.64,0.377602,-3.801706,-0.628634,0.050277999999999996,0.596191,0.384689
1365,13.65,0.489642,-3.2305040000000003,-0.5534100000000001,0.037491000000000003,0.603653,0.3293
1366,13.66,0.368648,-2.7698869999999998,-0.465621,0.039626999999999996,0.608978,0.25793499999999997
1367,13.67,0.06882700000000003,-2.4721450000000003,-0.469246,0.064117,0.624954,0.18975799999999998
1368,13.68,-0.15813,-2.209593,-0.7049380000000001,0.103531,0.646255,0.134354
1369,13.69,-0.27938,-2.089553,-0.889394,0.163193,0.666489,0.087479
1370,13.7,-0.12665099999999999,-1.977812,-1.1979440000000001,0.22390700000000002,0.694199,0.050200999999999996
1371,13.71,0.003637000000000001,-1.785298,-1.526571,0.26013200000000003,0.714432,0.002258
1372,13.72,0.030199,-1.6181159999999999,-1.6483740000000002,0.256927,0.737869,-0.048874
1373,13.73,0.082254,-1.3472110000000002,-1.761871,0.20579499999999998,0.733612,-0.095734
1374,13.74,0.267935,-0.7654,-1.9392599999999998,0.11845399999999999,0.70697,-0.108521
1375,13.75,0.539238,0.150517,-2.227042,0.010863999999999992,0.669693,-0.094681
1376,13.76,0.959513,1.167459,-2.2256110000000002,-0.053055,0.602585,-0.074432
1377,13.77,1.512779,2.3355479999999997,-2.124339,-0.030685000000000004,0.50032,-0.048874
1378,13.78,2.2444610000000003,3.257359,-1.992862,0.04068,0.37355,-0.0051880000000000025
1379,13.79,2.853694,3.548379,-1.6720509999999997,0.09820599999999999,0.230804,0.056595000000000006
1380,13.8,3.051731,3.342682,-1.208691,0.123779,0.111496,0.089615
1381,13.81,2.4605200000000003,3.064219,-1.015331,0.14294400000000002,0.032669,0.085358
1382,13.82,1.4314639999999998,3.329626,-1.079302,0.164261,-0.028061000000000003,0.068314
1383,13.83,0.4018709999999999,4.15228,-0.789829,0.158936,-0.06427000000000001,0.069382
1384,13.84,-0.735559,5.051689,0.15683399999999995,0.004471000000000003,-0.067474,0.132233
1385,13.85,-1.696812,5.296956,2.286036,-0.281021,0.0017700000000000007,0.23449699999999998
1386,13.86,-2.610689,4.931739,5.125287999999999,-0.523911,0.012421,0.391083
1387,13.87,-2.1309270000000002,3.8759940000000004,7.507614,-0.48661800000000005,-0.041901,0.597748
1388,13.88,-0.662988,2.667863,7.806697,-0.134018,-0.110077,0.718124
1389,13.89,0.8133949999999999,1.902451,6.347742,0.31233200000000005,-0.147369,0.6819
1390,13.9,1.340526,1.507285,3.7549269999999995,0.642563,-0.167603,0.544479
1391,13.91,0.9104120000000001,1.142412,1.408798,0.768265,-0.081314,0.342087
1392,13.92,-0.2618900000000001,0.9244399999999999,-0.31504899999999997,0.6968840000000001,0.002838,0.11731
1393,13.93,-1.401829,0.589789,-1.110942,0.489166,0.064621,-0.068039
1394,13.94,-1.939354,0.11905100000000003,-1.136342,0.226044,0.134933,-0.202271
1395,13.95,-1.8612689999999998,-0.10395399999999999,-0.8776879999999999,-0.014709,0.2276,-0.28321799999999997
