,ts,ax,ay,az,wx,wy,wz
0,0.0,-0.03194678961846021,-0.06482863137857989,6.596929069781787,-0.0028853171973031713,-0.00247680797691779,-0.00247680797691779
1,0.01,-0.04414064629241659,0.0017487008898597611,1.2868238717827714,-0.006191488693996021,-0.003225273373030155,-0.003225273373030155
2,0.02,-0.002321496451461097,0.038213636607723284,-1.860459074230488,-0.0045184683574442455,-0.0022340054136967074,-0.0022340054136967074
3,0.03,0.03488450342373466,0.055196369529542724,-3.492470025765984,-0.004588751401130999,-0.0005400270263532631,-0.0005400270263532631
4,0.04,0.05198396871790588,0.013098061020902808,-3.9027055478585257,-0.001825882697237089,0.00047047568707620733,0.00047047568707620733
5,0.05,0.030081093237305494,-0.023841598792032646,-3.5913806305045277,-0.002876827741069495,-0.0031311008929988983,-0.0031311008929988983
6,0.06,0.001908477849308629,0.0013418275052438696,-2.890216704265512,-0.0023517898252265928,-0.002554861449071964,-0.002554861449071964
7,0.07,0.03001994972838159,0.036574874500992276,-1.92920779180114,-0.0031190211178071057,-0.0030908499985456625,-0.0030908499985456625
8,0.08,0.014989876820127339,0.07910940057719976,-0.9790908295607843,-0.0029103823548602037,-0.004374454311862528,-0.004374454311862528
9,0.09,0.04091944476951758,-0.013194390219868807,0.14962154868217992,0.00032302859723270464,-0.0037569965756990096,-0.0037569965756990096
10,0.1,0.003326405212714224,-0.12152163845410138,0.998782662030076,-0.001762562828556934,-0.004355776298361265,-0.004355776298361265
11,0.11,-0.039941277322952495,-0.07110038189299193,1.7272691801375903,-0.008066705462959909,-0.002722955014026203,-0.002722955014026203
12,0.12,-0.030324829284264526,0.0671398662767606,2.187903987340425,-0.005732192781092908,0.0007187168899742981,0.0007187168899742981
13,0.13,-0.035705080190374036,0.07586134141332164,2.5450705287117126,-0.003881398525537518,-0.0026318828299130748,-0.0026318828299130748
14,0.14,0.013978847804147026,-0.08039249350171197,2.7716064313876947,-0.0005654071773404925,-0.003980949434209664,-0.003980949434209664
15,0.15,-0.026173353863432707,-0.10042348222082155,2.7871159302215975,-0.0031320064608091713,-0.0030320641240187056,-0.0030320641240187056
16,0.16,-0.028382008114872875,-0.007965133383731358,2.5896438873846233,-0.005097172757498711,-0.0017989324572739618,-0.0017989324572739618
17,0.17,-0.02812600002453622,0.07312243420947684,2.221460598759877,-0.007839420466092557,-0.001835191706708566,-0.001835191706708566
18,0.18,0.009405195493996793,0.05294436408076909,1.8145371482609858,-0.003632228027448011,-0.0011887587335163616,-0.0011887587335163616
19,0.19,-0.006792203646085897,-0.020671311492621865,1.4601324484512639,-0.0005398470552981756,-0.0011826711961580641,-0.0011826711961580641
20,0.2,-0.05162786434576066,-0.07425086672221368,0.9489728726068047,-0.0013830418344769392,-0.004350648269904835,-0.004350648269904835
21,0.21,-0.02562792776284591,0.020921685785824467,0.4747188372827371,-0.0020491684803338006,-0.0010873303906060617,-0.0010873303906060617
22,0.22,-0.01675242925936583,0.07754194384507265,-0.16193796342824363,-0.0033003142680236067,-0.0017484942990532468,-0.0017484942990532468
23,0.23,-0.009623784706940492,0.04470983847662655,-0.615711408496733,-0.0020087367018087735,-0.001115772048015168,-0.001115772048015168
24,0.24,0.011466488789700045,-0.05070973108456143,-1.0016500270028152,-0.0007248384621630893,-0.0023862806008367425,-0.0023862806008367425
25,0.25,0.007966293328382288,-0.08033395688210149,-1.277568589389812,-0.002352967631525837,-0.0006594699642758803,-0.0006594699642758803
26,0.26,0.012958188275745469,0.012776510535450949,-1.5742644050743326,-0.0033788758891674497,-0.002021243398645111,-0.002021243398645111
27,0.27,-0.011721331710676105,0.05810141017245881,-1.8759081297157216,-0.0031107413375757666,-0.002473220123958998,-0.002473220123958998
28,0.28,0.04115031097494628,0.03831018337834392,-2.060651559397324,-0.002818902130398127,-0.00194332009933146,-0.00194332009933146
29,0.29,0.030158879239737722,-0.07356893016639411,-2.1005547709445085,-0.0021744535249445503,-0.0018699883669805405,-0.0018699883669805405
30,0.3,0.023763302379492934,-0.07012089572844525,-2.047789439693646,-0.003627540033097492,-0.0022853146481863905,-0.0022853146481863905
31,0.31,0.012043616805431319,-0.006936009487896862,-1.9813427644450772,-0.0048806285278495025,-0.0014307335204478905,-0.0014307335204478905
32,0.32,0.00961163452380321,0.07612251341755609,-1.9439604750049413,-0.004888576817714989,-0.0010509161976728397,-0.0010509161976728397
33,0.33,0.03648815658087097,0.03899935506005109,-1.7442600856172827,-0.004359642260362373,-0.0008774949014885492,-0.0008774949014885492
34,0.34,0.03267969622028043,-0.017858583250048868,-1.5299565342244237,-0.002673859663482863,-0.0006452749628999227,-0.0006452749628999227
35,0.35,0.020404101212536795,-0.013403561295748243,-1.1572542162161457,-0.005337523440204727,-0.0010993602732443245,-0.0010993602732443245
36,0.36,0.01728160932272345,0.019318148041310265,-0.9721960382626331,-0.0055294905743575725,0.0009221865791724141,0.0009221865791724141
37,0.37,0.022815989294713554,0.09429470909828738,-0.6929515499571456,-0.004690221939780028,-0.0005272237113180204,-0.0005272237113180204
38,0.38,0.042316521056613404,0.03180498392347908,-0.4266547170262015,-0.004133460419816687,-0.00031509664300779627,-0.00031509664300779627
39,0.39,0.0013037644753299323,-0.012696271451763108,-0.08358425269066178,-0.00537554911868589,-0.0009036516508272224,-0.0009036516508272224
40,0.4,0.010715286573573544,-0.03958590587807304,0.2645226214951327,-0.003575371730983553,-0.00015294745862299165,-0.00015294745862299165
41,0.41,-0.015806499756551764,0.017796055550675656,0.4846817858443088,-0.004537076323114302,0.0007717790754905836,0.0007717790754905836
42,0.42,-0.00415850451399373,0.07235892261168402,0.7393793622719214,-0.0036753295063941117,-0.00026472901709017336,-0.00026472901709017336
43,0.43,-0.02168909374040401,0.015221754830392165,0.9301720267979428,-0.0013672029790380439,-0.0015990070498009391,-0.0015990070498009391
44,0.44,-0.01424530548985331,-0.030552459948435435,1.1988963177079328,-0.002346751557347757,-0.002953484160820175,-0.002953484160820175
45,0.45,-0.0032549592364317006,-0.0683760372801914,1.3628847034869271,-0.004151115314149115,-0.0031561560926158467,-0.0031561560926158467
46,0.46,-0.025523270506982304,0.003062706341626302,1.4565915564811598,-0.003384390637552676,-0.0013157376155985866,-0.0013157376155985866
47,0.47,-0.00632862736219332,0.011565165946859714,1.5236988187629161,-0.005314579194910788,-0.0027980670784520825,-0.0027980670784520825
48,0.48,-0.04074862775923713,0.012185777921526302,1.5217951768840559,-0.003960885587149087,-0.0037649076422130922,-0.0037649076422130922
49,0.49,-0.01150047244558732,-0.05788405546507286,1.6330290998743135,-0.001800452791217079,-0.0001965509647998665,-0.0001965509647998665
50,0.5,-0.01823729138871449,-0.06631537730722883,1.6005767804688544,-0.0040718157617196885,-0.003213828383894596,-0.003213828383894596
51,0.51,-0.034168552492219714,0.003001222407114871,1.5245127652468045,-0.004747338715212229,-0.001866435436120192,-0.001866435436120192
52,0.52,-0.024441633368293324,0.023531597403360305,1.380239174749406,-0.005104663665250883,-0.0023325759878966693,-0.0023325759878966693
53,0.53,-0.02666195771356851,0.014002993579775948,1.2240954464760603,-0.0017077103188738898,-0.0022279665248911232,-0.0022279665248911232
54,0.54,0.01888457527059434,-0.055122141652622296,1.1832697753372905,-0.0026704384577469235,-0.004284428587855892,-0.004284428587855892
55,0.55,-0.004171114088381698,-0.05955099951924615,0.9873233109394669,-0.002405943143891936,-0.0012986006838739534,-0.0012986006838739534
56,0.56,-0.02740226476570208,-0.011795713650376325,0.8492183005412598,-0.004055438796829418,-0.002714781512215679,-0.002714781512215679
57,0.57,-0.02898795100625196,0.02794579738160221,0.5553475309947723,-0.004055461013346004,0.00030827418612548165,0.00030827418612548165
58,0.58,-0.03087146048929773,0.012358619895958177,0.3885588836549212,-0.00292124393866546,-0.0005176511618937891,-0.0005176511618937891
59,0.59,0.009529147706442139,-0.03548553982202389,0.2227485565076321,-0.0004320037686917498,-0.0021434669870287683,-0.0021434669870287683
60,0.6,-0.03023873312828782,-0.04085618309198059,0.06062400405218038,-0.00024626538374576847,-0.002504832061876431,-0.002504832061876431
61,0.61,0.001959023529482214,-0.004700298142277404,-0.16145400146206962,-0.0031524267565594464,-0.0032537673188893644,-0.0032537673188893644
62,0.62,-0.017330090634731943,0.04855503223116108,-0.42610072043645175,-0.002478191096228075,-0.004518547887266088,-0.004518547887266088
63,0.63,0.012811770618620974,0.017237628021195057,-0.5912431539812473,-0.0016948618569594392,-0.0035648054074079345,-0.0035648054074079345
64,0.64,0.026714707893801884,-0.028997766961510234,-0.6895539326651116,0.00038252353702991133,-0.002337334935175307,-0.002337334935175307
65,0.65,0.023168517486812725,-0.03863681956086461,-0.8022026265985995,-0.0019032596036945184,-0.0015435959484323375,-0.0015435959484323375
66,0.66,0.018359303074324672,0.012678443674572904,-0.8955107172614285,-0.002115495433990573,-0.0031036474770867245,-0.0031036474770867245
67,0.67,-0.006539776949138609,0.04962290603341728,-1.1070605490940668,-0.0016273190353301725,-0.002928953990481696,-0.002928953990481696
68,0.68,0.013190272450038076,0.05644524949828235,-1.1236529571150662,-0.0023842600987395712,-0.002832811761358136,-0.002832811761358136
69,0.69,0.031061944157384547,-0.01083388643033181,-1.185356458622918,-0.00047420108023741485,-0.002412516478251225,-0.002412516478251225
70,0.7,0.019648368285974563,-0.015036192319736786,-1.1103805560592808,-0.0015727101948989465,-0.0010562168778918337,-0.0010562168778918337
71,0.71,0.01727236435370069,0.019339071212007317,-1.1764340487956968,-0.0032829000730238713,-0.00083375359632056,-0.00083375359632056
72,0.72,-0.0008329001353597661,0.04141806781318304,-1.2091020761477576,-0.003826102950875306,-0.0005065198665538216,-0.0005065198665538216
73,0.73,0.033311390639844035,0.032092033852924584,-1.1521164254954461,-0.0023295612217356628,-0.00038779217153389373,-0.00038779217153389373
74,0.74,0.04853835416165331,-0.014992633874272743,-1.0428471401068247,-0.0022789303158808048,-0.0022234434283016783,-0.0022234434283016783
75,0.75,0.0630056233530717,0.009141816105944776,-0.8943388108029326,-0.002984314483143839,-0.003398869573128051,-0.003398869573128051
76,0.76,0.0031754027014879033,0.010499442424143243,-0.8311013354365822,-0.0034986557497492486,-0.0011396621671381142,-0.0011396621671381142
77,0.77,-0.002324197412852143,0.050232576550497385,-0.7913206714824647,-0.0048564730241679906,-0.001013943679705241,-0.001013943679705241
78,0.78,0.03419422295008768,0.028314891393879688,-0.7059142090036024,-0.0031971219206270987,-0.002543399509094932,-0.002543399509094932
79,0.79,0.02884003586456218,0.00650281572670121,-0.5760025500203627,-0.0012310963523707154,-0.002659484265258563,-0.002659484265258563
80,0.8,0.005820084977537172,-0.006708693946869683,-0.33126850084352494,-0.002726992817346941,-0.001101694669668068,-0.001101694669668068
81,0.81,-0.013898527028732696,-0.013121566611354163,-0.2662202060082274,-0.006487253714764706,-0.0035450013252213883,-0.0035450013252213883
82,0.82,-0.0015514853572151741,0.04585336818290661,-0.11721481536379431,-0.004684737631714991,-0.0014587470416010633,-0.0014587470416010633
83,0.83,-0.013663628934684233,0.03078687162111712,-0.056848782798619685,-0.0019650777644363284,-0.0005972864648258499,-0.0005972864648258499
84,0.84,-0.035538618931384824,0.0317581528063704,0.15705722381282855,-0.002752442884540802,0.00013440377489673202,0.00013440377489673202
85,0.85,-0.0033603368545317546,-0.0429012751396291,0.2896461050847843,-0.0038812282602846415,-0.003233975618898063,-0.003233975618898063
86,0.86,-0.04616572042703554,-0.01785713603294622,0.3611012647632323,-0.004270076967148532,-0.006992812036578407,-0.006992812036578407
87,0.87,-0.02644326920271233,0.027212297030874015,0.4117100962933609,-0.005628618252708854,-0.0034232001320114664,-0.0034232001320114664
88,0.88,-0.01767000734927061,0.02289610645890747,0.44993828998661745,-0.004398150243879453,-0.0019361253531024465,-0.0019361253531024465
89,0.89,-0.01469168676374622,-0.019500474801449622,0.6440841788176578,-0.004503947444916939,-0.0010659177240728538,-0.0010659177240728538
90,0.9,-0.03100980101734943,-0.09602634237702826,0.7245323197243762,-0.0037433874303758703,-0.001222889757623178,-0.001222889757623178
91,0.91,-0.05655975011616096,-0.037708630510650334,0.7974548814683013,-0.005345476100108311,0.0008861421304565953,0.0008861421304565953
92,0.92,-0.012766664652892596,-0.005788929265946829,0.7854039535108613,-0.004803559355462787,-5.017108079239069e-05,-5.017108079239069e-05
93,0.93,-0.015807176389200712,0.04446077510338703,0.7478769059386603,-0.0022998292062354248,-0.0005501432626646358,-0.0005501432626646358
94,0.94,0.03115387328914105,-0.044872368928704526,0.8436095363023037,0.0008091521474741412,-0.002180530428426548,-0.002180530428426548
95,0.95,0.0008173925188725475,-0.0810178001183374,0.8272460366017642,-0.001987933329882822,-0.0008249411902920728,-0.0008249411902920728
96,0.96,-0.01887973253927388,-0.04772590053752642,0.8437064933776086,-0.004167818443524923,-0.0009574599626604467,-0.0009574599626604467
97,0.97,-0.005315580716933657,-0.001528316207790377,0.7316566476789724,-0.005137537470059164,-0.00113558079609124,-0.00113558079609124
98,0.98,-0.008759940014336512,0.03519331375450283,0.6910873880625185,-0.0013623496240523052,-0.0014308608037641207,-0.0014308608037641207
99,0.99,0.013079694792275661,-0.03599927490556528,0.7306350399118349,-0.001585560524376553,-0.002579817839325781,-0.002579817839325781
100,1.0,-0.004875852151189354,-0.06415594351947403,0.6703483890196383,-0.001732589230595598,-0.0011207127416863493,-0.0011207127416863493
101,1.01,0.030337041742421696,-0.05422713307687715,0.6185004758405724,-0.004718609478206906,0.0004364342079453,0.0004364342079453
102,1.02,0.030980091040936547,0.02865785743654664,0.40045303257638065,-0.006773225599599423,-0.0019326035596177406,-0.0019326035596177406
103,1.03,0.020637647228984996,0.04431783285061856,0.3571908191648708,-0.003586227976127997,-0.0003217877782315838,-0.0003217877782315838
104,1.04,0.02566797862968561,-0.04572266568806118,0.2945833765649302,-0.001756192241774317,-0.00031816014900660193,-0.00031816014900660193
105,1.05,0.01258126713199242,-0.07342725434446302,0.28764853746840924,2.7280850678077208e-05,-0.0005871575407359723,-0.0005871575407359723
106,1.06,0.02478638755903484,-0.021751730369500094,0.16846243938634542,-0.002304402172066696,-0.0007578585089736138,-0.0007578585089736138
107,1.07,-0.021333437795751156,0.08217635278578023,0.01686496300224924,-0.00454475667351913,-0.0015147616444758768,-0.0015147616444758768
108,1.08,0.01380276899459237,0.07140167644601234,-0.08032017798375982,-0.0014288982814343165,-0.0036031619775900936,-0.0036031619775900936
109,1.09,-0.005870566351546595,0.01431125801816864,-0.11989123107846208,0.00029004056491488807,-0.0021010339782519443,-0.0021010339782519443
110,1.1,0.023792368529165435,-0.07323680696048265,-0.18030029448045434,-0.0005776441757569943,-0.0007283037803548844,-0.0007283037803548844
111,1.11,-0.005397304838083644,-0.013948020006003495,-0.25311837778419655,-0.005540809042846579,-0.002629608992496629,-0.002629608992496629
112,1.12,-0.014468795554214688,0.0728201915607973,-0.4023545463373687,-0.006610203766821619,-0.0012729845750612356,-0.0012729845750612356
113,1.13,0.00021534503816999714,0.08467152760607793,-0.42213396667691855,-0.0017651139241023316,-0.0011643746803248207,-0.0011643746803248207
114,1.14,-0.011452973211127102,0.007229827486858218,-0.4788128868015216,-0.002263762369206609,-0.003176113492994629,-0.003176113492994629
115,1.15,-0.024583190028626776,-0.02825413036445431,-0.4232657301922528,-0.0032845466250658053,-0.003871993252548733,-0.003871993252548733
116,1.16,-0.03921342129483224,0.031184814400834503,-0.5376558428279823,-0.004804398704753545,-0.0031451818406312017,-0.0031451818406312017
117,1.17,-0.035130451189533174,0.10291009304579744,-0.5780233507712889,-0.0037849779133522954,0.00021192115982157902,0.00021192115982157902
118,1.18,0.005167298263908462,0.09351518702466358,-0.6371838839991208,-0.0035581507747253632,-0.0005166957815054245,-0.0005166957815054245
119,1.19,-0.0016660450847020593,-0.02175878607315069,-0.5761491913534109,-0.0013153719056836625,0.0003305164476374851,0.0003305164476374851
120,1.2,0.003379518543545207,-0.04786508416278583,-0.5088258021410068,-0.0034683901589133564,-0.0011567746909429105,-0.0011567746909429105
121,1.21,-0.025505122290608435,0.010008734938349664,-0.512496554757618,-0.005259201729054412,-0.0020910720990239867,-0.0020910720990239867
122,1.22,0.008425976603027697,0.11417193715598603,-0.5262579249225682,-0.005645528719691737,-0.0028551524262266717,-0.0028551524262266717
123,1.23,0.0009194597176609021,0.06250217978956236,-0.5044086147865293,-0.0033091215358081586,-0.0013039146982557965,-0.0013039146982557965
124,1.24,0.00040172835193753344,-0.020881703143895716,-0.43082050177171105,0.0009152300560357312,-0.002007261277034965,-0.002007261277034965
125,1.25,0.00893044209087496,-0.06721129598400441,-0.33682695824338044,-0.0023096600082200963,-0.0026082080235421785,-0.0026082080235421785
126,1.26,-0.0007311738651957535,-0.005207500933610042,-0.3845236212507958,-0.005944339679155165,-0.000917597252398213,-0.000917597252398213
127,1.27,0.011446018316514647,0.07001318936045911,-0.3126585719074497,-0.006694576804522433,-0.002888879271505154,-0.002888879271505154
128,1.28,0.013341091408508208,0.008078083849465123,-0.33964687405053534,-0.004799690412935315,-0.0032445364780238324,-0.0032445364780238324
129,1.29,0.009709215541839115,-0.05858527610364984,-0.1348096998001306,-0.0018992305815218355,-0.0017561840692502315,-0.0017561840692502315
130,1.3,0.023895136495508965,-0.1013987416607674,-0.09347388378164934,-0.005307182463083722,-0.0018717542133083625,-0.0018717542133083625
131,1.31,0.004116907753604655,-0.008655667334288103,-0.026899025625570658,-0.004761844033380661,-0.002197986478310364,-0.002197986478310364
132,1.32,0.027052931785476103,0.03031625598706028,-0.041014427330363694,-0.006390313157824914,-0.002989911952256841,-0.002989911952256841
133,1.33,0.00793729826940331,-0.002414497655704513,-0.023928510649469076,-0.0027784491428400897,-0.003760047306836289,-0.003760047306836289
134,1.34,0.043635738872523505,-0.05757399267020974,0.12714170310835357,-0.0004948976096679674,-0.0024659515356519404,-0.0024659515356519404
135,1.35,0.03676679656319834,-0.09811588421870406,0.16074661208168858,-0.003163734642539639,0.0016361454841557546,0.0016361454841557546
136,1.36,0.0021814088304456577,-0.009812858600951005,0.2242476940941093,-0.006263244918062682,-0.0009003505866276672,-0.0009003505866276672
137,1.37,-0.01244913600486294,-0.009886137138939405,0.17929653419267821,-0.0047023168188395975,-0.0022521540906435497,-0.0022521540906435497
138,1.38,-0.013050530778075416,0.007182738780408083,0.2152392323548063,-0.003654174390629718,-0.002606507550321864,-0.002606507550321864
139,1.39,0.027455633624606818,-0.07290484484638057,0.31428216591867275,-0.0007276998829036397,-0.002875779979307049,-0.002875779979307049
140,1.4,0.004098934059551477,-0.04872275187101169,0.3588064018870124,-0.0035853532711443313,-0.0020675694309955093,-0.0020675694309955093
141,1.41,0.0018300974182169638,-0.011975552052725925,0.4060124168095716,-0.003736101960702324,-0.0009316130419448824,-0.0009316130419448824
142,1.42,-0.01497745790885093,0.03290031753023371,0.299490733305126,-0.003422951456070709,-0.00226629790098717,-0.00226629790098717
143,1.43,-0.013430393653426,0.024349534130994843,0.32078927867674506,-0.0019034544065817172,-0.002358883955077089,-0.002358883955077089
144,1.44,-0.0005551507017480094,-0.045356168624444616,0.3324793520856571,-0.002627244666547072,-0.00313424773784589,-0.00313424773784589
145,1.45,-0.03147533276316552,-0.03701644861212533,0.37697215473697465,-0.0012734063510192394,-0.0004067439949416666,-0.0004067439949416666
146,1.46,-0.03453220470419861,-0.021047407557351575,0.3957584127510162,-0.0045820119465537976,-0.0002340316114997324,-0.0002340316114997324
147,1.47,-0.038612028723470235,0.03744367100254693,0.26610598126170293,-0.0042308087458130215,-0.003912758984480807,-0.003912758984480807
148,1.48,0.000402779989722284,0.03935033866493794,0.29678818991572636,-0.002127772821755047,-0.002690074161875468,-0.002690074161875468
149,1.49,0.0034339413331556067,-0.012559341622164436,0.24563534805542245,0.0007555959757633891,-0.002215005621023545,-0.002215005621023545
150,1.5,-0.017167102991084822,-0.013842341875000254,0.30563125294794397,-0.002310532422516053,-0.001168936609379477,-0.001168936609379477
151,1.51,-0.015547990227329422,0.00030296468085009437,0.22630510580559815,-0.0022995182700157784,-0.0020617259507972525,-0.0020617259507972525
152,1.52,-0.04549675633133033,0.06347458256673214,0.16844177863491136,-0.0036983240426664023,-0.003084051015638864,-0.003084051015638864
153,1.53,0.010984700171221582,0.02990916859553756,0.10524086470418881,-0.004196519934713992,-0.003947823892244108,-0.003947823892244108
154,1.54,-0.013914099053584764,0.013165601431280257,0.12107070703696726,-0.0035795467411789007,-0.001035506875669852,-0.001035506875669852
155,1.55,0.008045112778868225,-0.02155765339478762,0.12704385359036824,-0.0041412923247244274,-0.0011981621421226342,-0.0011981621421226342
156,1.56,-0.02510597024020745,0.015535522033311131,0.07408434910835189,-0.0020242478712504557,-0.0007628666081372668,-0.0007628666081372668
157,1.57,-0.0027367125171700426,0.060196632486924,-0.01667868835063524,-0.0028255617451966525,0.0006024551067674987,0.0006024551067674987
158,1.58,0.016864293876994528,0.058504596921282896,-0.04860173981848162,-0.0016605945251334114,-0.002361562168911353,-0.002361562168911353
159,1.59,0.013316841781427039,0.005877555322613762,-0.050032145301092235,-0.0012282770117425551,-0.0035276452305456744,-0.0035276452305456744
160,1.6,0.028159547171400574,-0.021457195998798383,0.03208986048072826,-0.0009600898328777293,-0.0020048221386326165,-0.0020048221386326165
161,1.61,0.005181257379036173,0.018628526588492577,-0.0723598222520971,-0.005826136051263749,-0.0014337515209703494,-0.0014337515209703494
162,1.62,-0.002814647786625135,0.07451273982674672,-0.1273584332152225,-0.005674418966893897,-0.0037396262105882593,-0.0037396262105882593
163,1.63,0.016970394126201875,0.06407969717296322,-0.24403131839498926,-0.0030813525349467005,-0.0026961639199802275,-0.0026961639199802275
164,1.64,0.012047702938993727,0.008434832102912626,-0.18087872555488593,-0.0020919109553877,-0.001001738076905271,-0.001001738076905271
165,1.65,0.02892893252696504,-0.026728092362830625,-0.14500233706377172,-0.004066117746261327,-0.0025862455521421003,-0.0025862455521421003
166,1.66,-0.013471763227156205,-0.013043218466376424,-0.15176629770315098,-0.005446516690577487,-0.004465574713407029,-0.004465574713407029
167,1.67,0.015071659832233818,0.033182916611880345,-0.2310992973864327,-0.004230294173402222,-0.0023713949853005185,-0.0023713949853005185
168,1.68,0.016759004497882257,0.0157757347883467,-0.31077075702954693,-0.0024028009836059155,0.001000433635423425,0.001000433635423425
169,1.69,0.03207050161875143,-0.011628655519869243,-0.25218113170475304,-0.0022503611583818053,-0.0017533640597430355,-0.0017533640597430355
170,1.7,0.005690154181274219,-0.07993391516796151,-0.18426963014344744,-0.0023290730869725373,-0.0027952375758141922,-0.0027952375758141922
171,1.71,-0.013292817730831569,-0.04828211495636868,-0.1768313823891928,-0.005888855288798091,-0.002340084663278254,-0.002340084663278254
172,1.72,-0.005091689826807617,0.024640275809379636,-0.1718136711451277,-0.00573839299574965,-0.0017116708893033282,-0.0017116708893033282
173,1.73,-0.010985388506147041,0.029431194499576332,-0.2423288954081162,-0.003841287782031417,-0.0017809278725610786,-0.0017809278725610786
174,1.74,0.0044498408335184,-0.015427141557474853,-0.15722722947400908,-0.002179336979858562,-0.003629226347479333,-0.003629226347479333
175,1.75,-0.0035569646125152366,-0.09692129159465644,-0.17229942949053342,-0.0030179158002307405,-0.004277200589587529,-0.004277200589587529
176,1.76,-0.022518688430453224,-0.042668851622056636,-0.10930913468832232,-0.0036740450955452327,-0.003539471226809516,-0.003539471226809516
177,1.77,0.006025526129833951,0.01129848473783443,-0.15606307390968288,-0.003401178808628107,-0.0029300314913915265,-0.0029300314913915265
178,1.78,0.008012280464235121,0.03813961840465723,-0.14923365100217187,-0.003842966908727199,-0.0021916691085697502,-0.0021916691085697502
179,1.79,0.019611652725354436,-0.027218284395974957,-0.054437360256827556,-0.0021102026303242392,-0.002828679722982765,-0.002828679722982765
180,1.8,-0.016235219270678482,-0.08757181193778982,-0.028861335065624688,-0.00297812548143715,-0.0012511235079840294,-0.0012511235079840294
181,1.81,-0.02184209208984813,-0.01211197163998036,0.027045464839163827,-0.0053266355954312465,-0.0004504993933044381,-0.0004504993933044381
182,1.82,-0.031315063743494166,0.0472228010876463,-0.06169802305606021,-0.004353891110538943,-0.0009410027586677412,-0.0009410027586677412
183,1.83,-0.010925602883929058,0.07541563686119404,-0.02385150057941058,-0.0032692734086153252,-0.0013801778976521974,-0.0013801778976521974
184,1.84,0.037267921727828904,-0.055072734929493626,-0.0009584514416577337,0.00039087553428940666,-4.253687076261471e-05,-4.253687076261471e-05
185,1.85,-0.0076005771420836876,-0.0801714387656972,0.043088695329344284,-0.0007541120300298676,-0.0023132436168441677,-0.0023132436168441677
186,1.86,-0.0061220771056331846,-0.03882191887062307,0.10087958889138589,-0.002966434822912867,-0.003000939573802873,-0.003000939573802873
187,1.87,-0.007668483877155356,0.05448229045649214,0.02992670773464874,-0.005510393202664544,-0.0025068830809843595,-0.0025068830809843595
188,1.88,0.021385476451158528,0.06659118527215618,0.09566503112618989,-0.0019481203614343844,-0.0004388904860874582,-0.0004388904860874582
189,1.89,-0.007332675741058603,-0.024197116875544954,0.10279126494705777,-0.0003367991112092148,-0.0010117793613266494,-0.0010117793613266494
190,1.9,-0.01569053281772734,-0.04420311506438105,0.16076318183392027,-0.0016131205135591587,-0.0013531078483496961,-0.0013531078483496961
191,1.91,0.022533577687860136,-0.013607144716194865,0.12623744044413795,-0.0036028229615473507,-0.0008187808675013036,-0.0008187808675013036
192,1.92,0.003913167885803176,0.05991830406083902,0.04925377829687125,-0.004305506079708695,-0.002819422036925285,-0.002819422036925285
193,1.93,0.0064825846659959906,0.04581062676539937,0.10718557491628401,-0.0023932157757022058,-0.0027161948069007328,-0.0027161948069007328
194,1.94,-0.01160639606976823,-0.028536029448082513,0.10374870552440041,-0.001727783895696804,-0.0030336856852718605,-0.0030336856852718605
195,1.95,0.005191133329519305,-0.06590479563358431,0.2037155940092093,-0.0008814504899161801,-0.001935542388901397,-0.001935542388901397
196,1.96,-0.004868702829501003,-0.019094151694146546,0.12519758097672024,-0.0029044424946317172,-0.0039588097185984175,-0.0039588097185984175
197,1.97,-0.03005967971614394,0.08576068992712534,0.13155783601904142,-0.0030914943025208263,-0.0010621848297731773,-0.0010621848297731773
198,1.98,0.012589550890828721,0.06329636444893649,0.09026672901631774,-0.0027355167718788385,-0.0027479424679406326,-0.0027479424679406326
199,1.99,0.003685979873974527,-0.004495597744337984,0.1308989043937206,-0.001422565219714508,-0.0026101378082520506,-0.0026101378082520506
200,2.0,0.04329458919014218,-0.07560313251418818,0.14361139518549978,-0.002877409899235108,-0.0009975608442302864,-0.0009975608442302864
201,2.01,-0.029612647532971065,-0.006314891130868559,0.08008760193272096,-0.005522186960503484,-0.0013358985210905258,-0.0013358985210905258
202,2.02,-0.005978825869440728,0.058869473415440014,0.037020782440512996,-0.004536862997524661,-0.0008721832386030093,-0.0008721832386030093
203,2.03,-0.007619408955620008,0.06201082111115055,0.03237628176800516,-0.003803820045712589,0.0008010352922534603,0.0008010352922534603
204,2.04,-0.007102495099201301,-0.004075912204567524,0.07862876489633913,-0.002130637983958263,-0.0006507447305480067,-0.0006507447305480067
205,2.05,0.008850311831135277,-0.0591230103643045,0.13323207601804976,-0.0013337685694472738,-0.0017661878624240636,-0.0017661878624240636
206,2.06,-0.008070597905159847,0.015426116308139056,0.05044874842598122,-0.0036700072589527853,-0.003434196642231574,-0.003434196642231574
207,2.07,0.015691006120300256,0.0776747492740346,0.020532804092413492,-0.005392916938590565,-0.0017127141455765369,-0.0017127141455765369
208,2.08,0.002758466673176527,0.05679250225637959,-0.0690393835517184,-0.003769184565198892,-0.0030007591907299045,-0.0030007591907299045
209,2.09,0.007790878441438727,-0.0389161214602316,0.01116864039292545,-0.002876302333433012,-0.0012200413903390894,-0.0012200413903390894
210,2.1,0.002954069435282324,-0.061373340763547994,-0.0024197088236939217,-0.004768378697317924,-0.00356497355820804,-0.00356497355820804
211,2.11,-0.024100898529081424,-0.0021638690363310585,0.015420395778876314,-0.004367605932148425,-0.0014818322348217926,-0.0014818322348217926
212,2.12,-0.0021664220714604043,0.08066356139665894,-0.05600292480620936,-0.005320244233238198,-0.00026774170131572625,-0.00026774170131572625
213,2.13,-0.013454414619618986,0.04455622171422006,-0.09078991911459738,-0.0030054824409636877,-0.002487563763854797,-0.002487563763854797
214,2.14,0.02138918017645968,-0.04777975151851377,-0.02572774986233055,-0.001863702084644369,-0.001483148669945584,-0.001483148669945584
215,2.15,0.004295700455488839,-0.06813855221498635,-0.0399701593616149,-0.0044711361938287505,-0.0030023013334478693,-0.0030023013334478693
216,2.16,0.020338798107214884,0.005561006341268854,-0.059854261110457795,-0.0064261294838187655,-0.002594551950562973,-0.002594551950562973
217,2.17,0.00514625851334543,0.05924745365144822,-0.10330082990825962,-0.0041799646022720105,-0.0017451721097852587,-0.0017451721097852587
218,2.18,-0.003807300626980193,0.011294872032503706,-0.15168738496206183,-0.003594131296394475,-0.003247428060805012,-0.003247428060805012
219,2.19,0.0167769711217286,-0.058313867189679625,-0.06175510035207424,-0.0025782485630129965,-3.0296051690590582e-05,-3.0296051690590582e-05
220,2.2,-0.015822014555213655,-0.06024160443733284,-0.09178591393100403,-0.004284671609483235,5.40980185642964e-05,5.40980185642964e-05
221,2.21,-0.024026489343557614,0.003661641376298704,-0.04015262760561249,-0.004783071039866117,-0.0011730904929473322,-0.0011730904929473322
222,2.22,-0.013406659971585386,0.019754802691650565,-0.12786004046752394,-0.003825106713111074,-0.001687014173967793,-0.001687014173967793
223,2.23,0.0052348572226745445,-0.0010929940172152378,-0.10606383978190807,-0.0018283373354379669,-4.3971053905865296e-05,-4.3971053905865296e-05
224,2.24,0.034548080209209284,-0.05545281039616129,-0.06494130593996339,-0.0005039924234779491,-0.0010475299853119377,-0.0010475299853119377
225,2.25,-0.0025274347006513606,-0.04449069556274849,-0.06000993815669097,-3.9230424757172776e-05,-0.002291218289918053,-0.002291218289918053
226,2.26,0.0006108348928083318,0.0011462607781759053,-0.0241143390080608,-0.0030439283944199013,-0.001358606280219911,-0.001358606280219911
227,2.27,-0.0250940370469432,0.001483461124072204,-0.11071874574923486,-0.004233176172486034,-0.0025346427334611856,-0.0025346427334611856
228,2.28,-0.008456987387762526,0.01984997072196619,-0.058491807338839304,-0.002453103658939998,-0.0027280182985570268,-0.0027280182985570268
229,2.29,0.0022008702534456193,-0.03785136864748348,-0.03838854209627911,-0.003841158059287426,-0.001713660817473611,-0.001713660817473611
230,2.3,-0.015745244566758434,-0.012918393691056525,0.003662816790858399,-0.002418784213219009,0.0008246877588081447,0.0008246877588081447
231,2.31,0.003426671947921108,-0.009637277739426839,-0.010403893418580402,-0.002043861433310169,-0.0022911793529635524,-0.0022911793529635524
232,2.32,-0.0203448435243892,0.04494929203343163,-0.06336286418108322,-0.0026433752771993983,-0.001368445665353651,-0.001368445665353651
233,2.33,-0.00031950088242146523,0.03673329371575749,-0.023373507326191246,-0.0017547986460301865,-0.0037687657385908884,-0.0037687657385908884
234,2.34,0.019185370164608945,-0.026910561244967088,0.004330728738261402,-0.003505800436471889,-0.003699512634758152,-0.003699512634758152
235,2.35,0.03238777597424645,-0.03214997368668318,0.07929716528062608,-0.0016714439561785054,-0.0032971921948646826,-0.0032971921948646826
236,2.36,-0.005604474051228172,-0.02042141114402323,0.04998460499865065,-0.0021760501928061514,-0.0010816607847799432,-0.0010816607847799432
237,2.37,-0.03707928974714994,0.05539609564630986,0.011069743079915137,-0.003878152490571527,-3.265857578393965e-05,-3.265857578393965e-05
238,2.38,0.02809920095144196,0.04364397685550296,0.0021397381963685,-0.004221927580885643,-0.00020099834196101813,-0.00020099834196101813
239,2.39,0.027978695251654067,0.0010716046814377746,0.010072523300678066,-0.002364859184649623,-0.0023129725520471315,-0.0023129725520471315
240,2.4,0.010162643222806227,-0.03208351314851929,0.11197965926980559,-0.004521912532435764,-0.0019169912060904336,-0.0019169912060904336
241,2.41,-0.013556992109607178,-0.027466623780813625,0.04163867539711718,-0.003019013846966476,-0.0004002344495778085,-0.0004002344495778085
242,2.42,-0.010985366837284148,0.04776717627698625,0.05189060671708193,-0.0041532950123422535,-0.0024257451953275965,-0.0024257451953275965
243,2.43,0.012655887311074393,0.038714440415902635,-0.005588666418818243,-0.0032701903482912085,-0.00045459296791100636,-0.00045459296791100636
244,2.44,-0.011549550961936467,0.014536389245124366,0.09099409586718421,-0.0014092273978034012,-0.0010512371948075486,-0.0010512371948075486
245,2.45,0.022577745746246082,-0.04365911474181823,0.10158707097448161,-0.0030232400903932076,-0.0017139803706745064,-0.0017139803706745064
246,2.46,-0.031508224411930845,-0.0008355890108516801,0.07713111345476543,-0.004949269230211966,-0.000416054430135819,-0.000416054430135819
247,2.47,0.007724290661999578,0.039759212723249254,0.00764594670073223,-0.004437026667983386,-5.885240498607983e-05,-5.885240498607983e-05
248,2.48,0.002993287922611417,0.04217473165726434,-0.020154600617335594,-0.003314200166024366,-0.002343057284781771,-0.002343057284781771
249,2.49,0.015532088860331986,-0.004322356708953515,0.046362461335677084,-0.0029495395609403395,-0.0032341371210288924,-0.0032341371210288924
250,2.5,-0.019780081093438578,-0.03762713700069068,0.09504387937696392,-0.0025268939463174264,-0.0012349749351625652,-0.0012349749351625652
251,2.51,-0.025584948765150432,0.008058462950951976,0.06676348650074636,-0.003974243958330654,-0.0020608132879724327,-0.0020608132879724327
252,2.52,-0.0007199221990835912,0.03679898308455154,0.02488373272449619,-0.005326312695641452,-0.004019112732042559,-0.004019112732042559
253,2.53,0.008348464355659595,0.031251268921781365,-0.04485759134058362,-0.003226363408362781,-0.002359138973546667,-0.002359138973546667
254,2.54,0.03162178544281357,-0.012505792723312417,0.0626541457874954,-0.0014341600239476749,-0.002789824117161841,-0.002789824117161841
255,2.55,0.022602527516125553,-0.0478607613410045,0.02482495051429657,-0.002174479795707868,-0.0024080204055475394,-0.0024080204055475394
256,2.56,-0.011615961350260245,-0.017321111206440816,0.03741327826982992,-0.004505780346035994,-0.0010391710020946224,-0.0010391710020946224
257,2.57,-0.013376963587247758,0.02634172663224616,-0.04490028334486509,-0.005627240200326361,-0.000848760314220336,-0.000848760314220336
258,2.58,-0.022492574322872525,0.03681792128647571,-0.03611236486142481,-0.0037578147409632725,-0.003127299114782888,-0.003127299114782888
259,2.59,0.015427077147661804,-0.010970916391152014,0.027757918145961607,-0.0005922614041689762,-0.003762033784721125,-0.003762033784721125
260,2.6,-0.004878135960033654,-0.06122920296772443,0.04216649715919683,-0.0009503883855143524,-0.002753576921656853,-0.002753576921656853
261,2.61,-0.008367457266689183,-0.034688515637312206,0.02391079977446405,-0.0045056118702466175,-0.002724043294538488,-0.002724043294538488
262,2.62,-0.01210101965372913,0.021344600679476817,-0.07230168549903647,-0.004264216433322765,-0.003615130077267306,-0.003615130077267306
263,2.63,0.01243583082065996,0.04832519014400144,-0.09304401666397011,-0.005231740173141531,-0.002263700089994151,-0.002263700089994151
264,2.64,0.019901170700964047,-0.01791548099257997,-0.0035199465797058384,-0.002600946808893263,-0.0031279722488253754,-0.0031279722488253754
265,2.65,-0.010844870228407702,-0.06050890377134339,0.00960399958830576,-0.0037474179436020735,-0.0017564615150303794,-0.0017564615150303794
266,2.66,-0.0159871700338381,-0.022063060261154708,0.026283729402335646,-0.0032553439265764024,-0.001409291750440652,-0.001409291750440652
267,2.67,-0.03272554383430475,0.031183765565592388,-0.0803313635830393,-0.004316921126812834,-0.0008058431008852404,-0.0008058431008852404
268,2.68,-0.00270664360207235,0.05409566922603234,-0.053806442791553735,-0.0010184551068041317,-0.0028206905011110297,-0.0028206905011110297
269,2.69,0.013979947692401188,-0.014542462591428634,-0.03638831178890843,-0.00023088781652249639,-0.0032783794525381386,-0.0032783794525381386
270,2.7,0.004947458650079348,-0.07711891722558112,0.009755076392631394,-0.004261501726289067,-0.0007979118637018267,-0.0007979118637018267
271,2.71,-0.000343205910074711,-0.041091914961045854,0.0045083829810568694,-0.005929760145418192,0.00016812330863080332,0.00016812330863080332
272,2.72,-0.004607271251750675,0.025927940879064,-0.0817457783827766,-0.003400365177805932,-0.0018976800125330687,-0.0018976800125330687
273,2.73,0.03147646518899926,0.05074712808498578,-0.03972560501053228,-0.0007378890794820467,-0.0011228419900726054,-0.0011228419900726054
274,2.74,7.707784453267301e-05,-0.024212518056029333,-0.04747769058625999,-0.0019851309971501536,-0.0022288644815026144,-0.0022288644815026144
275,2.75,-0.006536151837068524,-0.04833620383971657,0.0560034986819768,-0.00224927064578466,-0.0013496858537977185,-0.0013496858537977185
276,2.76,-0.005621995662380183,-0.01542835431979743,-0.016242949672960888,-0.004581205819095625,-0.0003088892078797748,-0.0003088892078797748
277,2.77,-0.01342797455207945,0.06749875437649157,-0.05790101471770539,-0.005549909165396835,-0.002814553347617925,-0.002814553347617925
278,2.78,0.020508011830129347,0.035433382603710636,-0.06615190288368025,-0.002393190655344611,-0.0030720502597740553,-0.0030720502597740553
279,2.79,0.009616264168565916,-0.026070398749464745,-0.008761732146984929,-0.0015893707449825484,-0.0006020505473072348,-0.0006020505473072348
280,2.8,0.021509128879319526,-0.05429697091581037,0.05545661796947952,-0.004632403909944778,-0.002297797958091261,-0.002297797958091261
281,2.81,-0.014707421530117839,-0.013366697979323442,0.005004566328618171,-0.0054723071364765905,-0.0018115798269871203,-0.0018115798269871203
282,2.82,-0.0003716407615603351,0.07239288757903449,-0.03035628763622836,-0.005759909452038846,-0.0034302543656482003,-0.0034302543656482003
283,2.83,0.014390375819988494,0.04686244299641573,-0.04994883777907995,-0.0023262463896291012,-0.002360763522885441,-0.002360763522885441
284,2.84,0.004842878023330541,-0.012385000370425146,0.00035197088307746364,-0.003102698599238031,-0.0010449076008727902,-0.0010449076008727902
285,2.85,0.014511783883315053,-0.05436002322897533,0.0924810483470862,-0.002037449461397116,-0.0015289146091146519,-0.0015289146091146519
286,2.86,-0.016809132741643577,0.009314650188432853,0.0059484241632809295,-0.0041012833799053275,0.0004863513662511378,0.0004863513662511378
287,2.87,-0.006420397772832235,0.07024875316472828,0.006797272551262706,-0.0043893114686774926,-0.0017394851564495313,-0.0017394851564495313
288,2.88,-0.007198859279256033,0.039959880248458826,-0.08070370219135303,-0.0026044059203913497,-0.0033457834186116967,-0.0033457834186116967
289,2.89,-0.009613189250880673,-0.025531608010311766,0.039991393878153945,-0.0021863360626824405,-0.0015589240423444734,-0.0015589240423444734
290,2.9,0.015569108297093601,-0.06300194417941804,0.03940323077064409,-0.003196299827609725,-0.0012854604609756713,-0.0012854604609756713
291,2.91,-0.021165145032537306,0.019513784091659846,0.04457442706569065,-0.004158269275886082,-0.00016776946379909344,-0.00016776946379909344
292,2.92,0.0040211781038550585,0.059249816208923015,-0.022880112778621967,-0.004401561238246113,-0.001414995091491592,-0.001414995091491592
293,2.93,-0.009826507871348845,0.028359708111341655,-0.041624356459899335,-0.002807130961988425,-0.001507153887136652,-0.001507153887136652
294,2.94,0.022374977496040803,-0.0392552503737681,0.02799517734091301,-0.0010676710493985019,-0.003409731168308204,-0.003409731168308204
295,2.95,-0.0071894730242260335,-0.05162640092465791,0.04157470378303421,0.000538498409156669,-0.003739477510165007,-0.003739477510165007
296,2.96,-0.017520061839237613,0.020759357702933096,0.04481681483971944,-0.004661242476805214,-0.0035185365127641368,-0.0035185365127641368
297,2.97,-0.003159222380120226,0.04689696402846907,-0.008635260605409641,-0.003866176777725284,-0.0007545894684822997,-0.0007545894684822997
298,2.98,-0.003806576828494808,0.01262924278743386,-0.04368560953550986,-0.0015884603462277356,-0.003163979832817764,-0.003163979832817764
299,2.99,0.013952391402011583,-0.0557204665475355,0.05902585883783744,-0.002611499168313514,-0.002731162880036851,-0.002731162880036851
300,3.0,-0.011321367959324275,-0.04980467226965785,0.042577873473008454,-0.004222576945092146,-0.002287628124666056,-0.002287628124666056
301,3.01,0.0033581351302134164,0.023162945687528032,0.08514228214606231,-0.0025048798008631967,-0.0013425345790435707,-0.0013425345790435707
302,3.02,-0.010817969510047244,0.058454355873843886,-0.02708233253271687,-0.0028307506797590203,-0.001158410857588786,-0.001158410857588786
303,3.03,-0.0006552030237247197,0.018490674976431584,-0.03102595509252145,-0.0032495028745895232,-0.0017090083972828912,-0.0017090083972828912
304,3.04,0.018662548960822083,-0.05685992140465302,0.0108641492557844,-0.0011536140371411856,-0.0010950578248858905,-0.0010950578248858905
305,3.05,-0.012807681892591695,-0.04490190989937463,0.035646024231402014,-0.004126217498405713,-0.0030320614886653998,-0.0030320614886653998
306,3.06,0.0027512913390157125,0.020122319280179084,0.041907151152577996,-0.004235868681045589,-0.002144403827168705,-0.002144403827168705
307,3.07,-0.013987066506856287,0.02375638931447591,-0.04592039283472636,-0.006027607949937315,-0.0015369441642779332,-0.0015369441642779332
308,3.08,0.0092383510595956,0.004910239259572449,-0.03547486848258,-0.002780693208912644,-0.0017096591831496474,-0.0017096591831496474
309,3.09,0.020104478827417706,-0.04027182701971824,0.0022190926059743113,-0.002444598802882591,0.0008921187754079232,0.0008921187754079232
310,3.1,0.02637988511720147,-0.021233481295075178,0.0636571910922995,-0.0021701442160000487,-0.0009833404404535938,-0.0009833404404535938
311,3.11,-0.0060791241590637275,0.007150583147579482,0.062292755810156725,-0.0038314217680683322,-0.0005479028748881548,-0.0005479028748881548
312,3.12,-0.05052371732479529,0.039545272343634336,-0.03998416541510202,-0.002911141658095699,-0.0019155344450868922,-0.0019155344450868922
313,3.13,0.00995167569596565,0.018610240692908318,-0.045738902110126,-0.003032768966520455,-0.002590628194221969,-0.002590628194221969
314,3.14,0.026774620014745332,-0.0378870484855073,-0.05141348697958384,-0.003143646628360845,-0.001788623804674311,-0.001788623804674311
315,3.15,0.0049026896296668,-0.03522085510384622,0.032619493197067785,-0.0029014585071070863,-0.0016697589574199865,-0.0016697589574199865
316,3.16,-0.016609078378958197,-0.010687341953002165,0.027976754816238514,-0.005126777423700416,-0.0010137561271823994,-0.0010137561271823994
317,3.17,-0.00026506353456275805,0.017793526481375947,-0.03346969427984661,-0.004538905591676365,-0.0011996195797725714,-0.0011996195797725714
318,3.18,0.024747536727829512,0.015295468136880487,-0.017448831685198125,-0.002759420659058157,-0.0010646165454008952,-0.0010646165454008952
319,3.19,-0.008848028150572583,-0.0029505455555816126,-0.04030742559905032,-0.0021031432644007357,-0.0008597493975951115,-0.0008597493975951115
320,3.2,0.0030602184972804104,-0.016920219491731565,0.0754905204606908,-0.0031612066875018885,-0.0012447147196493946,-0.0012447147196493946
321,3.21,-0.005485417904079889,-0.027960322224453084,-0.030470300293074418,-0.0029726679537315577,-0.002042968977204435,-0.002042968977204435
322,3.22,-0.009125636742324182,0.025953873054197486,-0.041919924076859995,-0.003413065054897401,-0.0013624744035465911,-0.0013624744035465911
323,3.23,0.006288562531640553,0.026898718657625557,-0.08169299233734341,-0.0022986865283024962,-0.00023809824253311768,-0.00023809824253311768
324,3.24,-0.00777576003472897,0.004681440781596661,-0.0043350231318798026,-0.0011294401531689352,-0.0037827177610618304,-0.0037827177610618304
325,3.25,0.018209569524536166,-0.037363661221014,0.0373575494461729,-0.0024591246279385267,-0.004046256891842642,-0.004046256891842642
326,3.26,-0.029647257547853256,-0.010016857682062891,0.016164098518963124,-0.003483573085085973,-0.003182316340343512,-0.003182316340343512
327,3.27,-0.017843674623683154,0.05255560928756783,-0.024635906685993837,-0.00629890023653105,-0.002190375951730334,-0.002190375951730334
328,3.28,0.005856168945276387,0.03480857415707638,-0.08121748490568789,-0.00284010904785802,-0.002661858637617664,-0.002661858637617664
329,3.29,0.03801725455300964,-0.01053616309194591,-0.02241542439898004,-0.0008005463673261829,-0.00018275255591642317,-0.00018275255591642317
330,3.3,0.019709561863716477,-0.05751421178239022,0.043699775073359065,-0.0020453337169001173,-0.0002088072025730243,-0.0002088072025730243
331,3.31,-0.027037097649380715,-0.0041994929710845695,0.026904651336844825,-0.0050224792529541045,-0.002540558393674016,-0.002540558393674016
332,3.32,-0.02412902779531782,0.051879219488832576,0.0075427128273232585,-0.003903800739061903,-0.0016954644992641524,-0.0016954644992641524
333,3.33,-0.01608424446399391,0.04865054295352517,-0.08730235685406952,-0.0027314168835683677,-0.002338583600149705,-0.002338583600149705
334,3.34,0.009125108872211568,0.004600564054933658,0.03622331898275743,-0.0020528434208844947,-0.001749106992958108,-0.001749106992958108
335,3.35,0.022462802107786485,-0.03751846213716582,0.008082054029562774,-0.00235473845205676,-0.0004992662227477078,-0.0004992662227477078
336,3.36,-0.022349133838889458,-0.015530635202581744,0.06487065468768619,-0.006605616297169272,-0.0017109147328751135,-0.0017109147328751135
337,3.37,0.007810460638545699,0.031720239824843066,-0.03480465892701208,-0.006557143883511565,-0.0018271049100760915,-0.0018271049100760915
338,3.38,0.00894503149929147,0.04645917241384709,-0.03394284002222631,-0.0031628181155142158,-0.001261084015857126,-0.001261084015857126
339,3.39,0.038024514586567616,-0.015853127710154985,0.019961355761209627,-0.0023615263568636737,-0.0023267666770948607,-0.0023267666770948607
340,3.4,-0.025585132023184923,-0.05229573780277263,0.05516750703564913,-0.0011221105818029692,-0.0019102392287785265,-0.0019102392287785265
341,3.41,-0.00888843512570094,-0.01903837458600918,0.0554688011606046,-0.00638592169804739,-0.002696238179186176,-0.002696238179186176
342,3.42,0.0032061513323932457,0.03994155727631477,-0.0324895170468112,-0.00470284790338016,-0.003457693525398281,-0.003457693525398281
343,3.43,0.0030903255173101085,0.054086740439062586,-0.05663993820111696,-0.0013402681175261105,-0.003765130678304538,-0.003765130678304538
344,3.44,0.019024911575208123,-0.03184570721717816,0.00422735145404822,0.00037626901467721846,0.0009318960929476844,0.0009318960929476844
345,3.45,0.0064178959146072,-0.07287700145458811,0.03291758794446345,-0.0012666172097642054,-0.0006700340119455313,-0.0006700340119455313
346,3.46,-0.0038028183971042257,-0.04139878019789462,0.08089351752368833,-0.005270620463023524,-0.003361378792138928,-0.003361378792138928
347,3.47,-0.019556186773089543,0.05020821517972389,-0.024357556629091986,-0.004737593561416653,-0.0024176918660767702,-0.0024176918660767702
348,3.48,0.01392234592836782,0.06000218550028576,-0.009045300701385931,-0.0018185851812866985,-0.0010741149193021868,-0.0010741149193021868
349,3.49,0.007297247793039816,-0.02971795886304254,-0.008517824322190039,-0.000536889794485355,-0.0005590081638699316,-0.0005590081638699316
350,3.5,-0.007721527530181708,-0.07817198877407522,0.026908646378147813,-0.0017831428268130906,-0.0013705889048680321,-0.0013705889048680321
351,3.51,0.005861392436743253,-0.036368323967551644,0.019230323276084253,-0.004799875135989093,-0.003055825019101989,-0.003055825019101989
352,3.52,-0.0181768258128862,0.05533489633861556,-0.061280425248247776,-0.0072823024582681735,-0.001556634360160583,-0.001556634360160583
353,3.53,0.008406148280540844,0.06618823833747953,-0.02762543327044867,-0.002361460796093135,-0.0036928103332927588,-0.0036928103332927588
354,3.54,-0.003990112817864927,-0.030787082508755226,-0.006213932237905902,-0.0022421425049015935,-0.0016558797539131904,-0.0016558797539131904
355,3.55,-0.008542121799180707,-0.0572643719370769,0.06657307222450327,-0.004451795573924829,0.00047642396480790763,0.00047642396480790763
356,3.56,-0.019044553010636605,-0.004934407046681719,0.03660338051915476,-0.006237971137962664,-0.0014974738911283196,-0.0014974738911283196
357,3.57,-0.023429972490761564,0.08317430244721447,-0.022919136412619362,-0.005494749272345457,-0.002742924309306504,-0.002742924309306504
358,3.58,0.032343783852274474,0.046360928484207975,-0.044978085112506797,-0.004221635820983243,-0.0014613780004034671,-0.0014613780004034671
359,3.59,0.008805043834674797,-0.05115167732894577,-0.02342815403664202,-0.0014769249352802115,-0.0028565700425600567,-0.0028565700425600567
360,3.6,0.0027496432737125383,-0.07167319534477186,0.051287637759740386,-0.0018931024052730816,-0.0011062728423217733,-0.0011062728423217733
361,3.61,-0.021262940911789117,-0.02276258851277397,0.0359171891853647,-0.003358628911437342,-0.0011792049927164356,-0.0011792049927164356
362,3.62,-0.013850226435850387,0.07880680398903092,-0.020515394096185177,-0.005286977068251391,-0.0021358175285072657,-0.0021358175285072657
363,3.63,0.003261178915513467,0.041965231260769315,-0.03760661429968084,-0.0027611160935717147,-0.0037790591396164685,-0.0037790591396164685
364,3.64,-0.004637307330011666,-0.032740910340150656,-0.011682519749686447,-0.0013927609329294627,-0.0015758211786925074,-0.0015758211786925074
365,3.65,0.010020514324086264,-0.0670510119639885,0.06869327834886814,-0.0031639286834126467,-0.0005721358797493287,-0.0005721358797493287
366,3.66,0.0019182256623050753,-0.001244952066362463,-0.019182234878478706,-0.006129656382307282,-0.001044148275688325,-0.001044148275688325
367,3.67,0.008526549785434073,0.0671584051607344,0.013851476500017435,-0.0044515634843938535,-0.0034310702334910998,-0.0034310702334910998
368,3.68,-0.0030155647381338085,0.017356123935091155,-0.08013260530920528,-0.0016046637948234528,-0.0052387828598270845,-0.0052387828598270845
369,3.69,-0.013569960481954406,-0.027234717248909822,0.01672889361709902,-0.0019503975432776605,-0.003952197001278336,-0.003952197001278336
370,3.7,0.02419448226862219,-0.05088288412220121,0.022243700305087693,-0.003002727931159737,-0.0026121304636824915,-0.0026121304636824915
371,3.71,-0.013047191698530693,0.014618538263959025,0.030177673340995262,-0.004718016234706668,-0.0006315042718544705,-0.0006315042718544705
372,3.72,0.0035949100394877514,0.050193969886434674,-0.016751400917150158,-0.0038730828862096212,-7.385294161116755e-05,-7.385294161116755e-05
373,3.73,-0.00569668824767525,0.026315031574479217,-0.0665768901834388,-0.0022021456541849206,-0.0014380630987556355,-0.0014380630987556355
374,3.74,0.03684181057640574,-0.03797539348672349,0.005148686145609724,-0.001623052419003912,-0.001402912582195308,-0.001402912582195308
375,3.75,0.013663496297135088,-0.0494129582507548,0.01639829076449787,-0.003054037790975129,-0.0017415115963737445,-0.0017415115963737445
376,3.76,-0.010653322685730215,0.015392726983862685,0.03756233992934207,-0.004547320010939256,-0.002297954069843929,-0.002297954069843929
377,3.77,2.5059985590547562e-05,0.03759940882381911,-0.007831009358533233,-0.0031088484141915114,-0.0024194850271061236,-0.0024194850271061236
378,3.78,-0.006274061763710464,0.0580488710981681,-0.06779991590166697,-0.002225561546200623,-0.0001794699165993236,-0.0001794699165993236
379,3.79,0.025695003860658858,-0.024550821622399407,0.034162876122243356,-0.002802994047061537,-0.0005043791136551136,-0.0005043791136551136
380,3.8,-0.001673091936109053,-0.044602222203532445,0.007029435093655466,-0.003989482672863139,-0.0020576398956138283,-0.0020576398956138283
381,3.81,-0.015043714261382776,0.003953443065991718,0.06876368672241984,-0.0064347285472634895,-0.0020459989849950086,-0.0020459989849950086
382,3.82,-0.014216937094418652,0.04203830611482961,-0.061437442467854805,-0.004066769096463008,-0.0022517528324123115,-0.0022517528324123115
383,3.83,-0.012124219029325199,0.034461523667473744,-0.03133274443995711,-0.0007611332455641099,-0.0009212322312604881,-0.0009212322312604881
384,3.84,0.03370715023735796,-0.047861654837983665,-0.013607354962589548,-0.0014024623120039088,-0.002546912954584149,-0.002546912954584149
385,3.85,-0.0009308310871080847,-0.04813978944942762,0.030201840771876102,-0.002153848975176627,-0.003241303427404699,-0.003241303427404699
386,3.86,0.013682234875846602,-0.004542143381110805,0.05212744963458117,-0.003738737544732289,-0.0029258690784207853,-0.0029258690784207853
387,3.87,-0.03318456318348912,0.05589239559326227,-0.03311737730128449,-0.005974342944375573,-0.0006863558460638527,-0.0006863558460638527
388,3.88,0.011425550430934808,0.037161080746673784,-0.02651478003844016,-0.0035044484530138142,-0.0013738837612215845,-0.0013738837612215845
389,3.89,-0.0007769159539685981,-0.05038122936689498,-0.03103767303192561,-0.002534620365209089,-0.002309998027977077,-0.002309998027977077
390,3.9,-0.017847184429287077,-0.06659157418845041,0.032825959104625435,-0.005503908237807185,-0.0015855573489752775,-0.0015855573489752775
391,3.91,-0.016671088314302605,0.0024100315935272135,0.025344398066300924,-0.0051157633507583405,-0.003432845712140735,-0.003432845712140735
392,3.92,-0.021521231421060744,0.05192966361313446,-0.04610093701713472,-0.006679520396211423,-0.003302808406260039,-0.003302808406260039
393,3.93,0.011022534889618017,0.016294402796767166,-0.030435465302059234,-0.005515800944191221,-0.003744824881829112,-0.003744824881829112
394,3.94,-0.0016861334714538701,-0.04542354626027582,-0.025753277055262605,-0.003119200795369648,-1.95985375680309e-05,-1.95985375680309e-05
395,3.95,0.008342417073115348,-0.033883781569831455,0.05458036693995272,-0.003022763833305045,-0.0016516072662924044,-0.0016516072662924044
396,3.96,-0.00451893254507024,0.0026867923075305847,0.05048145396878782,-0.004674256280500803,-0.0014872655229163855,-0.0014872655229163855
397,3.97,-0.025674264463725584,0.04701845234804834,-0.017305427753004712,-0.0023242387368893466,-0.0001081905716388584,-0.0001081905716388584
398,3.98,0.020932930298344414,0.026995698062778926,-0.02727142818360247,-0.0038687076134403587,0.0002674447791072635,0.0002674447791072635
399,3.99,0.005995164393318986,-0.02225927311363261,-0.021968975042489104,-0.0010672355175382405,-0.0012598523389700555,-0.0012598523389700555
400,4.0,0.007905852449897508,-0.015117761937507211,0.05838516984407843,-0.0007271909176649713,-0.002380918946442427,-0.002380918946442427
401,4.01,-0.014435490796112116,-0.013852691961767853,0.0020109639228266564,-0.002524236467758174,-0.001287510178195767,-0.001287510178195767
402,4.02,0.0009267180875421445,0.024934141129415,0.019984985440955234,-0.004283575178699707,-0.0037658428901962506,-0.0037658428901962506
403,4.03,0.013109788101699655,0.012255672404081956,-0.0339062150414264,-0.002578071967782814,-0.0034749947220465947,-0.0034749947220465947
404,4.04,0.023180750183425212,-0.0034750998925030096,0.014396579564125284,-0.002967117287514497,-0.0023932023704189113,-0.0023932023704189113
405,4.05,0.039241916103592026,-0.018602920724491823,0.06915138836833548,-0.0004056023796311856,-0.0012132631880743855,-0.0012132631880743855
406,4.06,-0.015375257848130985,-0.01460542655722608,0.019730048751849666,-0.002852896911164641,-0.0012513362704171796,-0.0012513362704171796
407,4.07,-0.002278381368471697,0.028293840166630717,-0.0199646237217245,-0.005496999723902903,-0.0033945067300757198,-0.0033945067300757198
408,4.08,0.00048592502230320215,0.022000712695821795,-0.07009870006232212,-0.0037005802595357702,-0.002859441007690474,-0.002859441007690474
409,4.09,0.005341486596639306,0.016932080274677366,-0.012183762983528267,-0.004752899385972012,-0.00045484488199748875,-0.00045484488199748875
410,4.1,-0.001865865125874206,-0.03989371352333481,0.042917347296144645,-0.0036872068890641827,-0.002203738023635601,-0.002203738023635601
411,4.11,-0.02207271253630201,-0.018136044968429906,0.008899600257528506,-0.00376897502218642,-0.0020953209665441988,-0.0020953209665441988
412,4.12,-0.013750117155865058,0.025825370831603297,0.01955923323997579,-0.002845167749733099,-0.002985193022633729,-0.002985193022633729
413,4.13,0.008039108206889575,0.04859393248993166,-0.08520756653640331,-0.0037726913630711525,-0.001156008802117192,-0.001156008802117192
414,4.14,0.026266491642374625,0.013723148527374163,0.03285827174690169,-0.0017581421327586735,0.00034429375625744845,0.00034429375625744845
415,4.15,0.0024766774910962184,-0.06348358358973549,-6.920932344915698e-05,-0.0007689591363924584,0.0005925914465602318,0.0005925914465602318
416,4.16,-0.038506007795358024,-0.026519892394262414,0.03832890166236561,-0.0010866534298499923,-0.0021124948642294444,-0.0021124948642294444
417,4.17,-0.0031669866339517987,0.01517790888376706,-0.027964490835242415,-0.004145086290873359,-0.00033997053118213494,-0.00033997053118213494
418,4.18,-0.019574833975264033,0.06032382405021704,-0.04831821913311543,-0.002504086701521935,-0.0009632966948153336,-0.0009632966948153336
419,4.19,0.01709427216941682,-0.007206119878875324,0.026018546839387167,-0.0008442306840305714,-0.002001731116875859,-0.002001731116875859
420,4.2,-0.014352892673872544,-0.058066414684864016,0.022020198104586722,-0.003521415220543089,-0.0012467060765847956,-0.0012467060765847956
421,4.21,-0.0017674686593587893,-0.02956387588429911,0.04314610910944124,-0.004613148600796575,-0.0020727131245579867,-0.0020727131245579867
422,4.22,-0.013165502879595687,0.024854064833528536,-0.04124636909969741,-0.003815441406980528,0.0001811548379656346,0.0001811548379656346
423,4.23,0.014698983616586267,0.06445140026967312,-0.058924437718239756,-0.003577186124910668,-0.002606806323556791,-0.002606806323556791
424,4.24,0.026804745393319403,-0.02850722412340933,0.02669925273986501,-0.001448051020948942,-0.0016009753834470206,-0.0016009753834470206
425,4.25,-0.03510130706508682,-0.04363218753712008,0.008632147319379158,-0.002355884401133526,0.0016030276278025982,0.0016030276278025982
426,4.26,0.006453936382544087,-0.028818170745874023,0.05872668232450785,-0.007232355733165127,-0.0011596853557364608,-0.0011596853557364608
427,4.27,-0.002064464972642833,0.057148927345838506,-0.07058985667482988,-0.007404522871000842,-0.0005852110808828557,-0.0005852110808828557
428,4.28,0.003594408966196542,0.05624501034869624,-0.015756249590677583,-0.004170482484937371,-0.0019963436243736715,-0.0019963436243736715
429,4.29,0.008225934588818746,-0.026923764587947405,-0.010886522652054326,9.801137508279325e-06,-0.002972570729133089,-0.002972570729133089
430,4.3,-0.002287668282786796,-0.058313508494870894,0.06270972989902035,-0.0030538587897883922,-0.0005290982278826777,-0.0005290982278826777
431,4.31,0.015892477498926118,-0.02418708914876098,0.03003771366201023,-0.003535717637947013,-0.00181475852682393,-0.00181475852682393
432,4.32,-0.023537119321346094,0.05747321959654445,-0.04909580608546468,-0.005341727240745289,-0.0011908327156092491,-0.0011908327156092491
433,4.33,0.01870203058634936,0.05328764660692839,-0.02568376559343684,-0.0033026759816637964,-0.0009181914871615443,-0.0009181914871615443
434,4.34,0.0090188885067147,-0.03374044425976231,-0.02696414497644216,-0.0017999525200350895,-0.00278481089594776,-0.00278481089594776
435,4.35,0.008996401316390143,-0.0696893714134221,0.057376951540015826,-0.0021621453243997808,-0.0026204864502006905,-0.0026204864502006905
436,4.36,-0.0027696666427643544,-0.02451889050358756,0.01578407239203805,-0.003623741379311225,-0.0012870923851315036,-0.0012870923851315036
437,4.37,-0.016399974369728638,0.06413126036088168,-0.02767401202820048,-0.0040927801846856425,-0.0008572709810576517,-0.0008572709810576517
438,4.38,0.018741779271987682,0.04681617057740696,-0.025804862705141644,-0.0020689746653502344,-0.001546575788789307,-0.001546575788789307
439,4.39,0.007923680952425429,-0.03285862273235268,0.006629913753178214,-0.001299563478999076,-0.003446627007731879,-0.003446627007731879
440,4.4,0.02106435165209817,-0.05868945972546269,0.05438873249158298,-0.0026335729189511823,-0.0015431010667919284,-0.0015431010667919284
441,4.41,-0.013023084140294246,-0.008093841706821174,0.009269364998085752,-0.005193720014507582,-0.002848241184191109,-0.002848241184191109
442,4.42,0.0036623730835076054,0.05107775212852256,-0.03487682061847597,-0.004540770778280802,-0.0009792346947109674,-0.0009792346947109674
443,4.43,0.021009565206767833,0.0419293629428494,-0.047550278313929994,-0.002408621904368355,-0.002149290348847602,-0.002149290348847602
444,4.44,-0.0047035436123052665,-0.04123583843990074,-0.008487398556956342,-0.0010207672418590817,-0.002544471247741084,-0.002544471247741084
445,4.45,-0.005613269365069037,-0.058406195228379844,0.07112132740179973,-0.003135203431078257,-0.0010735834481326175,-0.0010735834481326175
446,4.46,-0.027567695427211443,-0.0016039337615964058,-0.0015347416488663418,-0.004201951425865982,-0.0005333963758839917,-0.0005333963758839917
447,4.47,-0.009571317220558345,0.0831905288382669,-0.0065836106572013525,-0.005038885100657893,-0.002914106791318744,-0.002914106791318744
448,4.48,-0.006285919214587789,0.033487601163349104,-0.06248556635395789,-0.003181628152670118,-0.002910212745073414,-0.002910212745073414
449,4.49,-0.004918165642824149,-0.034760499199831846,0.034403462381615214,0.00099654901172661,-0.0034187104459300907,-0.0034187104459300907
450,4.5,0.014036081202913227,-0.06269803071996087,0.02364016006990983,-0.003095543366108655,-0.0026191401278381713,-0.0026191401278381713
451,4.51,-0.008982374021540625,0.001849719791898902,0.012044724080107216,-0.004363739253233925,0.00013397212732146196,0.00013397212732146196
452,4.52,0.014906909612658281,0.05046110572637258,-0.034556093307252726,-0.005805076230333914,-0.002833448256946118,-0.002833448256946118
453,4.53,-0.026635996568175956,0.025063753710264168,-0.03859505490254792,-0.0022413370579973434,-0.003951599725776685,-0.003951599725776685
454,4.54,0.017413979472007998,-0.020461490229324433,0.034857063845539826,-0.00044645194241122235,-0.003162142299302461,-0.003162142299302461
455,4.55,-0.0009265851626549526,-0.04919322731510535,0.060703945970646406,-0.004998463453504763,-0.0011402635933704078,-0.0011402635933704078
456,4.56,-0.018363637856166706,0.029403735427032764,0.009392150999900477,-0.004338765851840959,-0.0004231841824729981,-0.0004231841824729981
457,4.57,-0.009633873211716765,0.049072277043039014,-0.02864819220604869,-0.0025566438258779346,-0.0003585316588278603,-0.0003585316588278603
458,4.58,0.0033898182911207605,0.021167011263663573,-0.09456397311086226,-0.003039372772962225,-0.0003904533785543688,-0.0003904533785543688
459,4.59,0.014641376202217322,-0.04453868522608993,0.04504520817985409,-0.002959564656619986,-0.002184401832520357,-0.002184401832520357
460,4.6,0.004021253334238204,-0.04459110538017998,0.024771273362621228,-0.0038950671528642593,-0.002487912384688705,-0.002487912384688705
461,4.61,0.0044909150245653826,0.02650209041913364,0.07354104973410976,-0.0035620232673237,-0.0021542014135731173,-0.0021542014135731173
462,4.62,-0.009686989759075412,0.03428210844308102,-0.04335603225637219,-0.0020244905595356274,-0.000501765943442528,-0.000501765943442528
463,4.63,-0.030489066610230334,0.03836898474153294,-0.02963596047796007,-0.002091960830075906,9.702519157269338e-05,9.702519157269338e-05
464,4.64,0.02213998423316374,-0.038187653558036584,0.0051190539058738604,-0.0017752719130684973,-0.0004597323885255501,-0.0004597323885255501
465,4.65,-0.006475183592081893,-0.02331328005583991,0.025362806425276864,-0.0021478162741987755,-0.0018444825923661574,-0.0018444825923661574
466,4.66,0.01901766292930911,-0.005980459206118043,0.026069465547361108,-0.006854979110273964,-0.0032740042382398155,-0.0032740042382398155
467,4.67,-0.013064069314318943,0.016746641189774918,-0.05953442795210549,-0.0040631403693451905,-0.0038893825783561523,-0.0038893825783561523
468,4.68,0.003674271310766492,0.024061378484350332,-0.045324922711505934,-0.0028572765262808485,-0.0021838523345335237,-0.0021838523345335237
469,4.69,0.014843460999933923,-0.04126199232637117,0.027415725185522877,-0.0009679716487736,-0.0024788490072615555,-0.0024788490072615555
470,4.7,0.0016499409443335687,-0.01764419177590673,0.05704644013296747,-0.0036778641329629678,-0.0028812123282077485,-0.0028812123282077485
471,4.71,0.0065118156595948265,-0.013453385914612159,0.06626628157356332,-0.0050712154491444495,-0.001983498245205214,-0.001983498245205214
472,4.72,-0.03110306455093369,0.04709094493552152,-0.05997221736342466,-0.0042914142172983324,-0.002123297804272089,-0.002123297804272089
473,4.73,0.01275152150732823,0.01996891853769006,-0.02647954128373453,-0.001413325440815285,-0.002237072664538992,-0.002237072664538992
474,4.74,0.015300962322267617,-0.02275970848198823,-0.049330725928903245,-0.0034201542097092304,-0.003185872183861249,-0.003185872183861249
475,4.75,0.0033177298991404107,-0.044594153295128426,0.03594697859070578,-0.002056502808311336,-0.0031005070740027767,-0.0031005070740027767
476,4.76,0.0036122990973202485,-0.017309049964566635,-0.002791532042439926,-0.004326366469276864,-0.0020580935666408093,-0.0020580935666408093
477,4.77,-0.028536957712419313,0.028098642087797655,-0.01364637105135558,-0.003309297866553045,-0.0005032236234304339,-0.0005032236234304339
478,4.78,0.008914565498157927,0.030404716577266393,-0.010938860091050693,-0.0011082080117104127,-0.002752989292857648,-0.002752989292857648
479,4.79,-0.009611516607494762,-0.010278028271166539,0.001493329865642018,-0.002442457313358029,-0.0024133070800984326,-0.0024133070800984326
480,4.8,0.022387971698350554,-0.025482834808969304,0.07028397522693529,-0.003882575574865491,0.0005127949109144485,0.0005127949109144485
481,4.81,-0.008835402213869952,0.0008376296705702741,-0.000815858529710784,-0.002331040575688809,-0.00256579331606562,-0.00256579331606562
482,4.82,-0.013209963801258785,0.026071562762065546,-0.04625429087289315,-0.003319281278025614,-0.002224693019431748,-0.002224693019431748
483,4.83,0.023956380423313297,-0.0034556789770030464,-0.07204678708224975,-0.003649484532536997,-0.001957145504061461,-0.001957145504061461
484,4.84,0.0029903954722551914,-0.03538488024027079,0.0030998747502676387,-0.0018383338786046206,-0.003340751207338657,-0.003340751207338657
485,4.85,0.013373104761677765,-0.034808208954266076,0.07577287610374672,-0.001905929238067345,-0.002485394304572702,-0.002485394304572702
486,4.86,-0.042608599743118515,0.010499177689443851,0.05096343540668927,-0.002645670039899921,-0.001321524743387462,-0.001321524743387462
487,4.87,-0.009793872472775394,0.03567704598170704,-0.0006924038602396862,-0.003031502478122273,-0.0032736964310870077,-0.0032736964310870077
488,4.88,0.013752557915117564,0.035100760658887155,-0.06456248874173003,-0.0022249366587966755,-0.0035566418978712467,-0.0035566418978712467
489,4.89,0.037784473126455734,-0.006690971428354576,-0.007478538487091006,-0.002887731459387101,-0.001762275622586185,-0.001762275622586185
490,4.9,0.02565447335181422,-0.04346548728273231,0.0368450114531149,-0.0027146650017350004,-0.00178146309485444,-0.00178146309485444
491,4.91,-0.015763634958349107,-0.029249070085218463,0.0007337847396999553,-0.003929342383018404,-0.002614728842319837,-0.002614728842319837
492,4.92,-0.0027853982655449104,0.02340846780457793,0.0056768727391959635,-0.003737206882060357,-0.002814721294471721,-0.002814721294471721
493,4.93,-0.010922605565808886,0.039289302513154586,-0.06641371047447114,-0.0016627951871685633,-0.001588056246341292,-0.001588056246341292
494,4.94,-0.006901667198048476,0.022316973323864293,0.04709276260024945,-0.0029702381218497807,-0.0013709577953018226,-0.0013709577953018226
495,4.95,-0.006724958191612998,-0.033557366636134664,0.0247116616862659,-0.0018057326232433762,-0.0012210399290712433,-0.0012210399290712433
496,4.96,-0.012156113556879455,-0.012367886486224864,0.03173990674693118,-0.005170022318627454,-0.002065507498165288,-0.002065507498165288
497,4.97,0.022483375559586745,0.020424055055122178,-0.0466218643308602,-0.006657242805945478,-0.002345164325624459,-0.002345164325624459
498,4.98,0.0014407356764862614,0.04846209602611358,-0.05761492600439342,-0.0033097086800755065,-0.0018032274495263306,-0.0018032274495263306
499,4.99,0.021012637877140174,0.012179493466070406,0.014506084891983472,-0.00412416264303347,-0.0018752338130924489,-0.0018752338130924489
500,5.0,-0.023211439736053614,-0.048126948466484964,0.04623297201403037,-0.002953928095388835,-0.0014133521203831612,-0.0014133521203831612
501,5.01,-0.01847370427016883,-0.013218978984019582,0.024458756425357317,-0.005904148543724599,-0.000545234649997633,-0.000545234649997633
502,5.02,-0.01395457019168609,0.020968903351386386,-0.03848289680161615,-0.006341886692273578,-0.0018931432566827282,-0.0018931432566827282
503,5.03,-0.013192526361004776,0.0754160137841593,-0.06999179802724045,-0.0052335101068725276,-0.002921394284689721,-0.002921394284689721
504,5.04,0.008692231285855974,-0.004000531785889848,0.04067501885151347,-0.0013684277902275724,-0.003805062407608028,-0.003805062407608028
505,5.05,0.007340994515811215,-0.05739051553173551,0.013089542108092371,-0.002707660816339128,-0.0019689985263215823,-0.0019689985263215823
506,5.06,0.008724491329670082,-0.03443083977054879,0.050929407599414306,-0.004191143441391796,-0.002399102791624425,-0.002399102791624425
507,5.07,-0.0022362496990819677,0.023090641064706385,-0.09269029799920418,-0.004708297656298155,-0.0035288677009008306,-0.0035288677009008306
508,5.08,-0.010583794462252192,0.07531729737160123,-0.022062935882440814,-0.0036087280485067883,-0.005525729481105779,-0.005525729481105779
509,5.09,0.012962335287458937,-0.036500056819405796,0.0030889136219441407,-0.0010777442139967015,-0.003489242076891137,-0.003489242076891137
510,5.1,-0.014060418991800116,-0.06310683684166923,0.08262148538808073,-0.0019352680146134933,0.0019456768367442573,0.0019456768367442573
511,5.11,0.01200178459383322,-0.03201506811317989,0.05196181437287158,-0.004503284986355524,0.0014978494126362675,0.0014978494126362675
512,5.12,-0.01640345030481762,0.06151426814488337,-0.054648766391468824,-0.004335599602851719,0.000774829885727479,0.000774829885727479
513,5.13,0.02339207078554817,0.05369160579078924,-0.05262895466713922,-0.004370516462505165,-0.0017581407081007894,-0.0017581407081007894
514,5.14,-0.00040732855028638264,-0.03603325921578952,-0.022575054911162212,-0.0021922655355383343,-0.003500924702170675,-0.003500924702170675
515,5.15,-0.013410744101667392,-0.0638096458667553,0.06652506338607483,-0.002379790345854107,-0.0033021002272508233,-0.0033021002272508233
516,5.16,-0.006808850777486483,-0.03823173457755742,0.04243861520819553,-0.005084993643476285,0.0003783528482453292,0.0003783528482453292
517,5.17,-0.017234687188961755,0.07326376492485831,-0.039086837733626936,-0.005393860176974684,-0.0019071107887953238,-0.0019071107887953238
518,5.18,0.03109490336599367,0.03828545693718875,-0.01841328027396745,-0.001564432304096561,-0.004333871134759469,-0.004333871134759469
519,5.19,-0.005685210763917488,-0.019940640372204412,-0.006833308021805769,0.0007753713825805822,-0.0018534727702769246,-0.0018534727702769246
520,5.2,0.005172623197776937,-0.07986131498440598,0.0782697633611749,-0.001962243400904307,-0.0026258488108380808,-0.0026258488108380808
521,5.21,0.005527001761850428,-0.021608451785233174,0.0031688725211638817,-0.0046249618569635725,-0.003050343436787768,-0.003050343436787768
522,5.22,0.005182655191819189,0.04857434389920198,-0.03390913555334452,-0.004037185726086692,-0.0023195959033482164,-0.0023195959033482164
523,5.23,0.018296754050288813,0.048748219219028166,-0.06495031709097122,-0.0027386203264452022,-0.0008348150536622875,-0.0008348150536622875
524,5.24,-0.012275719870444197,-0.028653168188812975,0.009057559773164994,-0.0013665382315327758,-0.002555213776172972,-0.002555213776172972
525,5.25,0.016439063787233418,-0.08021949102672282,0.0735044944077673,-0.003675664886596596,-0.0033504209919329553,-0.0033504209919329553
526,5.26,-0.00936530766092675,-0.0032159613234096582,0.01590418151659999,-0.0048551147925121356,-0.0020105649373780322,-0.0020105649373780322
527,5.27,0.007041693084927907,0.05756032940337617,-0.006315709481778696,-0.006525373927113581,-0.0007615106608713626,-0.0007615106608713626
528,5.28,0.004277249994450665,0.05011124659644744,-0.06721731995054181,-0.0013587555788763615,-0.0026188796407712986,-0.0026188796407712986
529,5.29,-0.0028333132558261255,-0.03351821473537695,0.03662909442266388,0.0009012338161427883,-0.0013992381387348892,-0.0013992381387348892
530,5.3,0.0002750572167348961,-0.05344489979794426,0.04871796818242407,-0.0028923362104628352,-0.0016275193774834234,-0.0016275193774834234
531,5.31,-0.03017131077477018,0.007662538430765024,0.021261035591186812,-0.005210975970242364,-0.003107996041079512,-0.003107996041079512
532,5.32,-0.0017241675372780703,0.06174981251067542,-0.042120525146444404,-0.005010297985301345,-0.0012854870601574115,-0.0012854870601574115
533,5.33,-0.005306633467133999,0.03174391171444593,-0.08638619964210908,-0.0024378137156435987,-0.0020002256322312704,-0.0020002256322312704
534,5.34,0.006651759730646796,-0.05240750678390021,0.01466488461553462,-0.0006908600753099334,-0.004701475219129154,-0.004701475219129154
535,5.35,0.010518133256555828,-0.058766515646976616,0.031620714742314565,-0.0020719665295285856,-0.0028963861736701056,-0.0028963861736701056
536,5.36,0.0007281509993796688,0.014383549227158895,0.029844449974763508,-0.004541799991419939,-0.002511904330620275,-0.002511904330620275
537,5.37,-0.012361771205552416,0.08512089576535073,-0.00327012150701185,-0.003486697799506562,-0.0015366802204583884,-0.0015366802204583884
538,5.38,-0.025948663707286025,0.03560118071239772,-0.07274965902485482,-0.003426715560979902,-0.0038069163370541056,-0.0038069163370541056
539,5.39,0.008236918690226639,-0.019533748667354852,0.014407232643636072,-0.0021745528590648945,-0.002754345029123009,-0.002754345029123009
540,5.4,0.016025668101010578,-0.05355784524995101,-0.010348574083227022,-0.00376443402419486,-0.003400697199719685,-0.003400697199719685
541,5.41,-0.009497722651744141,0.009664734130885007,0.027735238067594092,-0.005622916394774285,-0.0029948190737217888,-0.0029948190737217888
542,5.42,-0.003192059062758887,0.04107554837143107,-0.05298288128467631,-0.0026030551615483077,-0.003302687593020413,-0.003302687593020413
543,5.43,0.001157034661822107,0.03868519166275836,-0.027608722583096924,0.00029376991186878815,-0.0020300176043557857,-0.0020300176043557857
544,5.44,0.019975568752493997,-0.02207104109064666,0.020042900170070335,-5.748395087967946e-05,-0.00132926470222837,-0.00132926470222837
545,5.45,-0.009828604798327123,-0.04241899833254862,0.06007459721618909,-0.0008649502369798827,-0.0026326113860563032,-0.0026326113860563032
546,5.46,0.011558004564852854,0.023722085585026264,0.05469425289872975,-0.004462208910366117,-0.0015723786388424784,-0.0015723786388424784
547,5.47,-0.0028306904524937494,0.02250275162494149,-0.03785235430954708,-0.004408083270253807,-0.002211641593653188,-0.002211641593653188
548,5.48,0.0046956558189003555,0.03630055525471536,-0.058759222127732755,-0.0012676015062844438,-0.0016948502772882454,-0.0016948502772882454
549,5.49,0.01884571769956655,-0.053587312968297496,0.003216575775741023,-0.001669391111762015,-0.0005769553788557157,-0.0005769553788557157
550,5.5,0.0054300810987260775,-0.041412698416703926,0.02371642974411979,-0.001833686476839666,-0.00067261640899383,-0.00067261640899383
551,5.51,-0.00181626244635044,-0.008783218359452703,0.06825050964663369,-0.003939091950326318,-0.0006217776210198809,-0.0006217776210198809
552,5.52,-0.03481476151889594,0.019520756287064095,-0.05122852735445128,-0.006515899350100652,-0.0012331697194047225,-0.0012331697194047225
553,5.53,-0.007066167120616495,0.04504352380387616,0.004500140526567803,-0.0024570309765318465,-0.0022198226069705287,-0.0022198226069705287
554,5.54,0.026860780321647335,-0.042604790644665505,-0.016739689888116915,-0.0016402962536147625,-0.0012158130816851387,-0.0012158130816851387
555,5.55,0.004543568322644863,-0.02573202805649224,0.0664670224670756,-0.002423294243817602,-0.0024507699855781696,-0.0024507699855781696
556,5.56,0.021197827675502753,-0.045075845344763325,0.0165586360237458,-0.005618614507950428,-0.0016636552340233055,-0.0016636552340233055
557,5.57,-0.03095592093617288,0.03295469487689923,-0.037886610265879396,-0.005305462462251484,0.0006370894877810487,0.0006370894877810487
558,5.58,0.021927358032995954,0.018284033121882513,-0.04115324655495478,-0.003660968777009822,-0.0009707480999608845,-0.0009707480999608845
559,5.59,-0.0057631424246293965,-0.025534247843656436,-0.02450899257202518,-0.0011901831264901938,-0.002067095190158648,-0.002067095190158648
560,5.6,-0.005956567970685089,-0.03317207983643054,0.042050588070125614,-0.0025929363676682467,-0.0016395636568356698,-0.0016395636568356698
561,5.61,-0.012541139514029298,-0.0055241220813599355,0.014762219167946969,-0.006401253225661327,-0.0008879463662554138,-0.0008879463662554138
562,5.62,-0.011624962557153862,0.07393908186961612,-0.0218282081046019,-0.005352219782885358,-0.0026560652984688785,-0.0026560652984688785
563,5.63,0.015938809037085493,0.018274070762396313,-0.019047537938545307,-0.0036853787681660993,-0.004733049446577155,-0.004733049446577155
564,5.64,-0.008320690298007125,0.003203886919797512,-0.003773963401126278,-0.002385546634693923,-0.0034919210569862805,-0.0034919210569862805
565,5.65,0.01751282417530038,-0.043825426306726006,0.06860774955773688,-0.0027587885605784663,-0.0007854848074221655,-0.0007854848074221655
566,5.66,-0.025200138006060514,0.005469116961901317,-0.0031903790071261986,-0.004954209615452431,-0.0012641224439309553,-0.0012641224439309553
567,5.67,-0.026675089084301242,0.042769647704798616,-0.010870242614978015,-0.003977494045323554,-0.0018011811547616657,-0.0018011811547616657
568,5.68,0.0014452184232633478,0.0328288343883371,-0.07501114786698707,-0.0010896974275958788,-0.0010716005545870883,-0.0010716005545870883
569,5.69,0.005275895535623996,-0.016840272498937506,-0.006495006088419681,-3.101634260113054e-06,-0.0004918525179561167,-0.0004918525179561167
570,5.7,0.008998349703259221,-0.04407258410381798,0.037670172735717405,-0.0034615596884137755,-0.002290488768119752,-0.002290488768119752
571,5.71,-0.035567693098932276,-0.0018411450129742855,0.027255457778454374,-0.0034217393190710127,-0.0014254119726011376,-0.0014254119726011376
572,5.72,0.014514921923317657,0.017892645120382418,0.007967914934884902,-0.0037377438885572564,-0.0022445244334626238,-0.0022445244334626238
573,5.73,-0.006095855582620302,0.045861290904811176,-0.05413452850649302,-0.0011174172778254112,-0.0020688178232060065,-0.0020688178232060065
574,5.74,0.017061915516002342,-0.004100892917481107,0.013845210974037316,-0.0010875572330798831,-0.0006566348030969922,-0.0006566348030969922
575,5.75,0.022050558922377193,-0.03896624405540695,0.032674656166777116,-9.296160077414085e-05,-0.001892580487348045,-0.001892580487348045
576,5.76,-0.009620097305844602,-0.041695310774484115,0.03299054938045301,-0.0018686103796543441,-0.001271102517208999,-0.001271102517208999
577,5.77,0.004806721315630745,0.009738809032015107,-0.02584666203778327,-0.0025048100550407178,-0.002264115020603637,-0.002264115020603637
578,5.78,-0.011654762601034175,0.03623003827001045,-0.05345516291608321,-0.002214393856461206,-0.0015751869934604971,-0.0015751869934604971
579,5.79,0.02659196318844125,-0.016640780280722064,0.009008324859411021,-0.0015528433745522186,-0.00039635963603465104,-0.00039635963603465104
580,5.8,-0.0035531323769742423,-0.04144031408564592,0.036873499210880616,-6.910497494302209e-06,0.00039576583393895014,0.00039576583393895014
581,5.81,0.006045294563296241,-0.03704294845840269,0.03666569919832125,-0.002005357103891402,-0.001877097884472512,-0.001877097884472512
582,5.82,0.005990815480519452,0.034315195021224904,-0.024716326649936574,-0.005373052735268065,-0.000890116503186336,-0.000890116503186336
583,5.83,0.011982582770328175,0.03957724048384066,-0.061969600605968705,-0.005761606389947036,-0.0026974963737352955,-0.0026974963737352955
584,5.84,0.028524462126093105,-0.0022958620159383852,0.033165405600012396,-0.002422626080973639,-0.0013225395651108413,-0.0013225395651108413
585,5.85,-0.002472064137694462,-0.08005805964273709,0.02559686774596607,-0.003382264434041057,-0.0015428483578266829,-0.0015428483578266829
586,5.86,0.003161436368468851,-0.037222786149468064,0.06532113244954779,-0.005045117214166771,-0.0015337790449426495,-0.0015337790449426495
587,5.87,-0.006598208349692689,0.03394275645967978,-0.062142880136015405,-0.006504866465860587,-0.0030423341066117306,-0.0030423341066117306
588,5.88,-0.0057443662424679996,0.08948695739581262,-0.037596459895805096,-0.002396156029643148,-0.004204520438910192,-0.004204520438910192
589,5.89,0.009460994440889442,0.0051032890094508225,-0.017619539666719773,-0.0020825278584828267,-0.004073778138644935,-0.004073778138644935
590,5.9,-0.020974605082888374,-0.07522500590044427,0.035438285894523365,-0.0021776401637261045,-0.002692856374706137,-0.002692856374706137
591,5.91,0.004956654222157294,-0.030352080595587468,0.02295931945938028,-0.006654687760639673,-0.0015869357431480373,-0.0015869357431480373
592,5.92,-0.017527332681653157,0.05708954253946635,-0.047263651641420885,-0.0062194768311403595,-0.003214774440461671,-0.003214774440461671
593,5.93,0.011335572824879098,0.10658266380904156,-0.025335467594907173,-0.0014836065043252284,-0.00093029317326382,-0.00093029317326382
594,5.94,-0.017437773881279484,-0.020499517201314474,0.016975960347614966,0.0001465789293748855,-0.0008322459506925759,-0.0008322459506925759
595,5.95,-0.02475139556976364,-0.051605625149480736,0.03484334025929125,-0.001420803978961449,-0.002517720758869427,-0.002517720758869427
596,5.96,-0.00630323026179542,0.0002294521369730941,0.030147865098716895,-0.005340392247643913,-0.0022740262790635264,-0.0022740262790635264
597,5.97,-0.012908647418461438,0.07866699342245344,-0.0699898074900023,-0.008264582183429448,-0.0001717013852104931,-0.0001717013852104931
598,5.98,-0.004374154913051352,0.05904222671054158,0.0027970931722355666,-0.0031467589151455144,-0.0027223439182599823,-0.0027223439182599823
599,5.99,-0.004038019459771989,-0.05501237427979379,-0.032784845285688306,-0.0009393468006472367,-0.0017347364175014119,-0.0017347364175014119
600,6.0,0.005358700189575523,-0.05130919291370231,0.08416407364643895,-0.0012256430821686113,-0.0010412367398910187,-0.0010412367398910187
601,6.01,0.004032157042623368,-0.02756874299143411,0.001574272854133113,-0.005537559362672603,-0.001044139276561746,-0.001044139276561746
602,6.02,-0.02397931657756295,0.07991144007247433,0.007473921814817157,-0.005366481218659428,-0.002207996927960645,-0.002207996927960645
603,6.03,0.03292285835334892,0.01846894630483391,-0.039090883187948726,-0.002477310682726299,-2.893365753174832e-05,-2.893365753174832e-05
604,6.04,-0.0038378349262715543,-0.02323450693210325,0.0014619500189757108,-0.0012616930003429164,0.0014294230237874349,0.0014294230237874349
605,6.05,0.019379396598121934,-0.06273548050627235,0.04391853748456164,-0.0008752412163879001,-0.002089113797446109,-0.002089113797446109
606,6.06,-0.012147952939850526,-0.02635242014485596,-0.013805783032134634,-0.0034667997922936283,0.0002761941626517805,0.0002761941626517805
607,6.07,-0.0028810716433505506,0.053097314854656144,-0.027280797820216054,-0.0054774636652505536,-0.0012056904336519806,-0.0012056904336519806
608,6.08,0.009243914447745978,0.006623143182623085,-0.04411975313231307,-0.0024773511974659538,-0.0018586662929473048,-0.0018586662929473048
609,6.09,-0.012735120068601708,-0.012069345886862277,0.016448902628248538,-0.0017517173304640325,-0.0017672398846729272,-0.0017672398846729272
610,6.1,0.0011412647053996774,-0.0676912329394559,0.05708932143018279,-0.0029439233356382518,-0.001895479336118428,-0.001895479336118428
611,6.11,-0.008032992448172654,-0.0008784543700339122,-0.0008681355797856491,-0.00644985541780861,-0.001665355204137108,-0.001665355204137108
612,6.12,0.02737139597513335,0.03402823951832214,-0.015689078781594243,-0.003190164214635317,-0.0021428141433030103,-0.0021428141433030103
613,6.13,0.015409728399219834,0.043280672222521355,-0.08646857223285884,-0.0013983522088500248,-0.0003705708794925335,-0.0003705708794925335
614,6.14,0.006409925928799628,-0.016796517534271905,0.029999241735740922,-0.00293290325857206,-0.0007517150334651768,-0.0007517150334651768
615,6.15,0.01002923822033839,-0.06671295647136662,0.028089822742726582,-0.0019503906121819306,-0.0025879413592429464,-0.0025879413592429464
616,6.16,-0.0148335383256935,-0.008372960317645249,0.04529700633365928,-0.0052725170502555,-0.003498567420315675,-0.003498567420315675
617,6.17,0.004213743640509403,0.0399112844004763,-0.02186788573588401,-0.0036345895584935866,-0.0016248772212690734,-0.0016248772212690734
618,6.18,-0.02235829876059942,0.053890386561193306,-0.049983088733811055,-0.0022929747509176077,-0.0022264946014603753,-0.0022264946014603753
619,6.19,0.03154992953765559,-0.03741464329859808,0.033232297367396135,-0.0009701658842789906,-0.0011908575082873632,-0.0011908575082873632
620,6.2,0.019056003902311987,-0.05405371894397939,0.017016381358326026,-0.003036108423007093,-0.003680950389591243,-0.003680950389591243
621,6.21,0.014933999998343044,-0.01817173667794721,0.03814689459874074,-0.004131537729851678,-0.0011352868109612306,-0.0011352868109612306
622,6.22,0.0034407532788416142,0.03166968203855053,-0.029866479823478547,-0.002795115849004029,-0.004442362408241922,-0.004442362408241922
623,6.23,-0.020116040143974126,0.03803843799810279,-0.014877877177260839,-0.0017888895418351836,-0.0010158194368392916,-0.0010158194368392916
624,6.24,0.004877951850187749,-0.032359272935195034,0.0396698200365668,0.0007673756965771947,-0.001200096191563461,-0.001200096191563461
625,6.25,-0.010939244299543007,-0.045191903886651216,0.038659756010599636,-0.0015511001190626288,-0.0021331868138911923,-0.0021331868138911923
626,6.26,-0.004425031602283203,-0.007851801094689295,0.016970625498693232,-0.006175726620831232,-0.0013333791693426176,-0.0013333791693426176
627,6.27,-0.02741917721497248,0.05826611213260293,-0.0501620469522673,-0.004663925366330385,-0.0026790016015063012,-0.0026790016015063012
628,6.28,0.01659838317939444,0.0075844624445805895,-0.05228362182607842,-0.0013743923469090578,-0.00030037359533977714,-0.00030037359533977714
629,6.29,0.014998100614910453,-0.030509452919530188,0.009753658424060938,-0.002665578901591418,-0.0012298099453668485,-0.0012298099453668485
630,6.3,-0.00746965463348279,-0.04317298397552899,0.026602666664056435,-0.00363823203413471,-0.0024751656539350572,-0.0024751656539350572
631,6.31,-0.015022496084361887,0.014169659372704528,0.04985650703530917,-0.0041715830018785975,-0.0022449467645551738,-0.0022449467645551738
632,6.32,-0.04379265883292741,0.04516924224505614,-0.06578884166652471,-0.004498359783267565,-0.002138482075635103,-0.002138482075635103
633,6.33,-0.006383523141079294,0.05253317291360976,-0.017238872559563224,-0.001355234643751502,-0.002293794866423773,-0.002293794866423773
634,6.34,0.008289110517431593,-0.026175591767618658,-0.03076162790622804,-0.0018694657122892235,-0.0013262620234006446,-0.0013262620234006446
635,6.35,0.0011945018957732838,-0.029791198952084347,0.050193951488287786,-0.0012903857440104837,-0.0012399712089079355,-0.0012399712089079355
636,6.36,-0.0018624450379944252,0.00306410677560991,0.009226071899774885,-0.004175491015735084,-0.0016100588847309091,-0.0016100588847309091
637,6.37,-0.02846824660250213,0.03346387386455138,-0.03573345797201606,-0.004820086548497781,-0.0015655192978930813,-0.0015655192978930813
638,6.38,0.004233928637838652,0.0432726955496775,-0.03939580728931394,-0.0016300647570441596,-0.003079755578198232,-0.003079755578198232
639,6.39,-0.007898972788522477,-0.02485618367308698,-0.011230880683504757,-0.002938341677044056,-0.0031741236441053303,-0.0031741236441053303
640,6.4,0.014764968282573999,-0.001946613991414485,0.03260427555765326,-0.003295962436273458,-0.0019766887466159283,-0.0019766887466159283
641,6.41,-0.004569181718705698,0.0010685280324350312,0.03610005077209646,-0.002252164995590613,-0.001230403240692533,-0.001230403240692533
642,6.42,-0.01393586187539805,0.03836240884279637,-0.04974530597422999,-0.003319212104962793,-0.002411519925568453,-0.002411519925568453
643,6.43,0.013299810706570943,0.02159444310582424,-0.02374098738965416,-0.0039118680502636975,-0.0019911668611121017,-0.0019911668611121017
644,6.44,0.018929848212616528,-0.019656204756010598,-0.03253482927905655,-0.0031050877111811442,-4.379182876434822e-05,-4.379182876434822e-05
645,6.45,0.009108515186389013,-0.006077571475677324,0.08454034622207768,-0.004354029308637429,-0.001974806722988783,-0.001974806722988783
646,6.46,-0.0037691091420467768,-0.021728623120097053,-0.01905106579520157,-0.0050714654570447855,-0.002673564404596091,-0.002673564404596091
647,6.47,-0.00692828782998035,0.04089063663657617,0.018113855435470352,-0.004484592316639176,-0.00018669671620106208,-0.00018669671620106208
648,6.48,0.027643873780904056,0.008856682333066303,-0.04644213377476877,-0.0004996956844982329,-0.00039119296803239833,-0.00039119296803239833
649,6.49,0.028831899930477096,-0.008413003207444016,0.027092099844627696,-0.0010504149950046216,-0.0004103392585969259,-0.0004103392585969259
650,6.5,0.0319679942001609,-0.03599340834365873,0.051511478856647044,-0.0017388581556799939,-0.002014197571013928,-0.002014197571013928
651,6.51,-0.013723699906464059,-0.02250428952358434,0.027060894449629665,-0.004715955050833075,-0.0016561900901732919,-0.0016561900901732919
652,6.52,0.014204584327037027,0.028199287770615256,0.0030320931358186927,-0.004898744586369496,-0.0007094165166817582,-0.0007094165166817582
653,6.53,0.012325165927334108,0.011198213078560029,-0.049121242326429615,-0.0036142032177503827,-0.0021982864094487057,-0.0021982864094487057
654,6.54,0.010210692760068692,0.002374603298004329,0.028277415375924327,-0.0022022948844011587,-0.0028739279184871675,-0.0028739279184871675
655,6.55,0.002845257361823104,-0.0685475438633843,0.03544151246074541,-0.002278387397662705,-0.001871460364372589,-0.001871460364372589
656,6.56,-0.02585060693028647,-0.023356345222036362,0.025065630424212525,-0.004459583796767814,-0.0010740506858040698,-0.0010740506858040698
657,6.57,0.008058813087369904,-0.013174544687029908,-0.000990660076303794,-0.005207777945369573,-0.00010468214288089411,-0.00010468214288089411
658,6.58,-0.0032513546920841085,0.039624819859565535,-0.06254763565207844,-0.0022299473207880952,-0.003340953664974664,-0.003340953664974664
659,6.59,0.01952911488857968,-0.009423130506972376,0.03770424304766283,-0.001957450855053451,-0.0014713035933548468,-0.0014713035933548468
660,6.6,-0.0060520745735482325,-0.04415490028902125,0.018755573916203618,-0.0032310089133466176,-0.0015283191196302605,-0.0015283191196302605
661,6.61,-0.04216941014540689,-0.006211082332841618,0.02456147177789815,-0.003957099706703508,-0.003492579558749857,-0.003492579558749857
662,6.62,-0.02031450247284274,0.019697606849308706,-0.06346417940031693,-0.004898984187421662,-0.0006336689562043249,-0.0006336689562043249
663,6.63,-0.027043953332927462,0.05382915727319025,-0.061788758996080495,-0.005200571203329788,-0.0005546617823540017,-0.0005546617823540017
664,6.64,0.010402161841915362,-0.01667056352337126,0.014802474711443317,-0.0018244306204199606,-0.001005781746192273,-0.001005781746192273
665,6.65,-0.01702936973701534,-0.03967919304451383,0.001018745716813589,-0.002425075240736528,-0.0025712804030585314,-0.0025712804030585314
666,6.66,-0.003478870671761102,-0.032220224004386414,0.04386323706453413,-0.00426822295370894,-0.0007291209826325103,-0.0007291209826325103
667,6.67,-0.015641482602047688,0.045963888618985614,-0.06374511802142396,-0.005894194918136568,-0.0012743539475980298,-0.0012743539475980298
668,6.68,-0.004957053434421861,0.06224164793942552,-0.020961391101290736,-0.001054993932586395,-0.0050267609646370325,-0.0050267609646370325
669,6.69,0.018088691775111288,-0.025007951381955208,-0.010715336747088855,-0.000645548367739863,-0.002417558624826936,-0.002417558624826936
670,6.7,-0.039402653194803586,-0.0477027892049921,0.038251588608399736,-0.002124816195413393,-0.0010261217316293852,-0.0010261217316293852
671,6.71,-0.009116475938694947,-0.03645593826831889,0.020008786899218978,-0.0021462482895895363,-0.0008256448650624049,-0.0008256448650624049
672,6.72,-0.021932819120459513,0.0534261380730637,-0.06091588852078702,-0.0045827257184980355,-0.001441172583361725,-0.001441172583361725
673,6.73,0.03125286475760527,0.04692600437065431,-0.04811707593774388,-0.0016969353065057267,-0.0030268273138937475,-0.0030268273138937475
674,6.74,0.014250887108630091,-0.012933028780213527,0.018297411858861447,-0.0004029124726357181,-0.00302489677199087,-0.00302489677199087
675,6.75,0.002593687912275615,-0.07083090755995497,0.06254526909064148,-0.0017190883076901565,-0.001606114879941007,-0.001606114879941007
676,6.76,0.0023803802993130375,-0.004708860275179751,0.06034965671334532,-0.005218987400336153,-0.0024839664809973034,-0.0024839664809973034
677,6.77,-0.014506434805099283,0.08087507231137855,-0.05347864325520356,-0.005474002583029593,-0.002292452053397729,-0.002292452053397729
678,6.78,0.04339673926270116,0.06410703047576319,-0.0138452770116902,-0.003388179483577065,-0.0007839055109934692,-0.0007839055109934692
679,6.79,0.025873383248409328,-0.042113681725365615,-0.018075240904991834,-0.0008014454727662433,-0.0017009094132050778,-0.0017009094132050778
680,6.8,0.01515825378332864,-0.07154343218770481,0.0777868318577711,-0.004187809739143655,-0.002985438557569808,-0.002985438557569808
681,6.81,0.004655235823832729,-0.002300914535156736,0.013612113496879238,-0.0057026374248663044,-0.0026084314179033318,-0.0026084314179033318
682,6.82,-0.0036084626635102084,0.07072251865849508,-0.003341167527938012,-0.004576967166248018,-0.0028191190880377127,-0.0028191190880377127
683,6.83,0.025118983806849366,0.05607985753237265,-0.040141570735529535,-0.0031187215414247424,-0.0011708205919096794,-0.0011708205919096794
684,6.84,-0.012574353525480161,-0.04026135678520667,0.01940012924402641,-0.002439468770788148,0.00042317494390216727,0.00042317494390216727
685,6.85,0.02217140611857151,-0.05842528463066748,0.0582734770159398,-0.00456851861714316,-0.0018034404150746894,-0.0018034404150746894
686,6.86,0.008141597885430625,0.004202639838083673,0.004927830751228643,-0.005460308142808311,-0.0037866665143787962,-0.0037866665143787962
687,6.87,0.010724255357020193,0.07717770197625905,-0.04718629181666096,-0.0034710603484812033,-0.0014432657272997742,-0.0014432657272997742
688,6.88,-0.008731691507809223,0.01300056851474001,-0.029476261320550173,-0.001407362779191607,-0.00028587279429518236,-0.00028587279429518236
689,6.89,-0.006880045617939279,-0.05211683928166345,-0.005939623498135788,-0.0017818439295766485,-0.002423229061187555,-0.002423229061187555
690,6.9,0.008620066374881146,-0.052482354590963134,0.06935933736446037,-0.0028575709003223213,-0.002420236225876505,-0.002420236225876505
691,6.91,-0.024215793569965657,0.018096451874435707,-0.013409167401807618,-0.0064211127497919756,-0.0003939670974059618,-0.0003939670974059618
692,6.92,-0.039946465816361104,0.08613546048822457,0.001421228143944464,-0.00585062495276481,-0.0005819331701753572,-0.0005819331701753572
693,6.93,-0.0036676351925002577,0.01173496775623644,-0.08821318780311205,-0.001279534809484598,-0.0030413689108222514,-0.0030413689108222514
694,6.94,0.005913449712644901,-0.035807412610152675,0.020857413150764302,-0.0002442853259117628,-0.0008396372758596995,-0.0008396372758596995
695,6.95,0.014703299177600016,-0.07105237520137686,0.027219698817650278,-0.005321532602819707,0.0004890833170181379,0.0004890833170181379
696,6.96,-0.018418103567026965,-0.00946465523412554,0.02413900435706231,-0.004346633780403205,-0.0023621716677703184,-0.0023621716677703184
697,6.97,-0.008395422766858347,0.05544725198741941,-0.015431403521935713,-0.003070698135978192,-0.0019904839925874813,-0.0019904839925874813
698,6.98,-0.024606942061106085,0.021765268776352174,-0.06051521792674857,-0.0034077317361484783,-0.002798093074578781,-0.002798093074578781
699,6.99,0.013175516303390623,-0.020068048404016086,0.023707855696016352,-0.0018312202105296492,-0.0025242033673003703,-0.0025242033673003703
700,7.0,-0.0037908322140253626,-0.06187900406626391,0.017192813352626617,-0.003039276546189512,-0.0029628426650615013,-0.0029628426650615013
701,7.01,-0.019473245335184963,0.012142624504246443,0.014553246070198547,-0.004485086279106711,-0.0020416027606993963,-0.0020416027606993963
702,7.02,-0.0008548075715309265,0.018909360605053178,-0.039926411626849366,-0.003082767265406774,-0.0025897925310922843,-0.0025897925310922843
703,7.03,-0.005295029170839053,0.04119333316108681,-0.05849530041814412,-0.0016170960320680506,-0.0027181491411377807,-0.0027181491411377807
704,7.04,0.02795447478288257,-0.053041175482051145,0.03711675166603632,-0.0017589430720542968,-0.0016422956594605005,-0.0016422956594605005
705,7.05,-0.006250694937482902,-0.04815991459527548,0.018824787060402234,-0.0008376492968833204,-0.0015529665884071555,-0.0015529665884071555
706,7.06,-0.001802469407368161,-0.003980863344689771,0.05472534240372315,-0.002176255758078313,-0.001975445039970948,-0.001975445039970948
707,7.07,-0.019012143532329395,0.04887742685202183,-0.04592007622205342,-0.0033324387224226287,-0.0018599310182834004,-0.0018599310182834004
708,7.08,-0.001412448336634257,0.040679733724156175,-0.0364353646165246,-0.0028285074811315505,-0.0006970946201481489,-0.0006970946201481489
709,7.09,0.0346722811917337,-0.05959635759087393,0.0022577734668809066,-0.001386634038489443,-0.004265885700786417,-0.004265885700786417
710,7.1,-0.0031233980804348336,-0.04299195892680997,0.02267604747066358,-0.00406599295273996,-0.0025744790413724005,-0.0025744790413724005
711,7.11,0.018425023510439703,-0.0045045602327989515,0.05213090899791678,-0.004064344541421921,-0.0024148679526282343,-0.0024148679526282343
712,7.12,-0.01360426591449011,0.05448495130297498,-0.05172528218458609,-0.003569640561711643,-0.002085846910445624,-0.002085846910445624
713,7.13,0.019663772589859976,0.020586808168358735,-0.0024073979184348095,-0.002049803127922925,-0.00312886309333781,-0.00312886309333781
714,7.14,0.013020270085347662,-0.03642077170681714,0.0012397456825440252,-0.0007725861531806482,-0.0026599792663526828,-0.0026599792663526828
715,7.15,0.010990714354130132,-0.024286021966966616,0.08936543795641833,-0.00313627267934822,-0.000998828923603552,-0.000998828923603552
716,7.16,0.02260845018724124,-0.00038743727347959403,0.03330742762548461,-0.002272474341630152,-0.0006971587218771777,-0.0006971587218771777
717,7.17,-0.026320334405833534,0.06324679960141139,-0.026374500832984114,-0.002003171536986812,-0.0019201208403831942,-0.0019201208403831942
718,7.18,0.013553643471130365,0.020607367322853683,-0.04365181717560682,-0.0031882507066928857,-0.0033314931137904524,-0.0033314931137904524
719,7.19,-0.009066452343362386,-0.01635886745340446,-0.015170395804073106,-0.001628418224823863,-0.0018889685034987485,-0.0018889685034987485
720,7.2,0.008977540391893276,-0.022068062746994844,0.056365067545538855,-0.002724662646332247,-0.004091714015181076,-0.004091714015181076
721,7.21,-0.02854744455827895,0.013183246254861189,0.022684914970649617,-0.00461251650059629,-0.003167370598726403,-0.003167370598726403
722,7.22,-0.026669319377341065,0.03964107829727744,-0.04133548310209165,-0.003843291325769261,9.248733192348048e-05,9.248733192348048e-05
723,7.23,0.013368065923157934,0.0222599320335492,-0.03039008962061587,-0.002202169959704576,-0.0015441773066845528,-0.0015441773066845528
724,7.24,0.015084268395038944,-0.01765445183957331,-0.02536462919134824,-0.0021007713757592197,-0.0022820524558453906,-0.0022820524558453906
725,7.25,0.005411629082883987,-0.026188097297202267,0.0708631365457622,-0.0021152490762872673,-0.004115217096154471,-0.004115217096154471
726,7.26,-0.027682435914920974,-0.0009806979364654963,-0.01024328542178771,-0.0041948884733158595,-0.002193036073497943,-0.002193036073497943
727,7.27,-0.015827849123127933,0.02459006148454543,-0.02910130860446201,-0.0025207018450293553,-0.0009826635468786556,-0.0009826635468786556
728,7.28,0.013097328481992092,0.017246882701662483,-0.09208229497323583,-0.0031176038472297113,-0.0035623031451086314,-0.0035623031451086314
729,7.29,-0.0017679476911174104,-0.01891214484964789,0.018547228566176313,-0.003071574593515803,-0.00303930761468235,-0.00303930761468235
730,7.3,-0.0005338830483147729,-0.02704936648490421,0.057192346749508925,-0.0024082500128459064,-0.0025558001349081736,-0.0025558001349081736
731,7.31,-0.03013239831853751,-0.017575571252702253,0.03762626695118443,-0.0037704070367334656,-0.0009140842168075344,-0.0009140842168075344
732,7.32,0.016282742334104084,0.025984812613770836,-0.03682837469134312,-0.005979795106551956,-0.003324361524239026,-0.003324361524239026
733,7.33,0.0064511471606299095,0.028023400107857643,-0.094761645838045,-0.003837052890664865,-0.002172802732655886,-0.002172802732655886
734,7.34,0.011669006780310878,-0.005194192649670103,-0.011892405394054013,-0.0012266328565228744,-0.0021259059865455904,-0.0021259059865455904
735,7.35,0.0071011734256892075,-0.0364302463852949,0.06841826409197499,-0.0026238143606048515,-0.0008179013542137307,-0.0008179013542137307
736,7.36,-0.012493094161962747,-0.014636135258561379,0.036885334726659245,-0.004718197468574607,-0.00047250004644029924,-0.00047250004644029924
737,7.37,-0.01239546986963792,0.034547706157102384,0.009998221808050128,-0.005010701853762775,-0.0015111770585687595,-0.0015111770585687595
738,7.38,-0.004181409974284194,0.022411008291971794,-0.08838457504860346,-0.0038404652335369133,-0.0034113975054235013,-0.0034113975054235013
739,7.39,0.002516813917701137,0.0010698578030548557,0.029903626851585624,-0.0027052026504278803,-0.0035907973454786172,-0.0035907973454786172
740,7.4,0.01884111334550209,-0.04746379542265358,0.008147941309084056,-0.003229361585928912,-0.0017587780477733815,-0.0017587780477733815
741,7.41,-0.0012423695201831788,-0.02290278900610712,0.0534125830877223,-0.003533313170857814,-0.0007922527894720539,-0.0007922527894720539
742,7.42,0.006347994095902666,0.018533629029388474,-0.02514834428126178,-0.004927260005871757,-0.0034920913631732407,-0.0034920913631732407
743,7.43,0.005763580964108752,0.04306349186795252,-0.03694449513097842,-0.0019601806004543453,-0.0018841011580068355,-0.0018841011580068355
744,7.44,0.0365117258641674,-0.000452432194323343,0.03917095932477145,0.00023199836955814664,-0.0007747682845054214,-0.0007747682845054214
745,7.45,-0.0028845841667474136,-0.06124858770167345,0.04372442584719208,-0.002755383953412498,-0.0018955472854472848,-0.0018955472854472848
746,7.46,-0.012307820325150428,-0.01735974853585657,0.06442801097669473,-0.0030665152286003736,-0.0003235517885984598,-0.0003235517885984598
747,7.47,-0.005045516002800225,0.02228724969487878,-0.054416817962814584,-0.003362791396271506,-0.003134766057049191,-0.003134766057049191
748,7.48,0.0005281957196361133,0.059356824087378496,-0.05622085496030164,-0.0035482365987555523,-0.0010283690995835071,-0.0010283690995835071
749,7.49,0.01531239435422779,-0.016838350487702616,-0.013330932845229237,-0.0026392295260797157,-0.0015462927822746109,-0.0015462927822746109
750,7.5,-0.004713404012280958,-0.0375558692467537,0.029962084334480305,-0.002980997676999825,-0.0016030051564617756,-0.0016030051564617756
751,7.51,0.009021698222136616,-0.03475701378028831,0.07554501479230978,-0.004055234222643389,0.0006177464920121593,0.0006177464920121593
752,7.52,-0.027077236534065095,0.03824396092990173,-0.047841379807210614,-0.0041565561908315065,-0.002261112453687711,-0.002261112453687711
753,7.53,-0.0010110628597251158,0.058323673092430514,-0.029463768696889076,-0.001297568837963513,-0.0025298928160560623,-0.0025298928160560623
754,7.54,0.01484897935391423,-0.023754306164572983,-0.017452866996739768,-0.0003760287944440962,-0.0012931452550739074,-0.0012931452550739074
755,7.55,-0.0016955554952168728,-0.058143444637616525,0.051523571694501835,-0.0008261227768582969,-0.0017061194765713515,-0.0017061194765713515
756,7.56,0.004696474738982848,-0.035791995459204404,0.042046640551221294,-0.0050725670563969245,-0.0022721316292431087,-0.0022721316292431087
757,7.57,-0.03624936622465418,0.0574022531822393,-0.0723021049829359,-0.005477399631111314,-0.0027703888803729915,-0.0027703888803729915
758,7.58,0.0028706513995867726,0.05634550389017721,-0.04078140387173071,-0.0025402575941255263,-0.002730439656383989,-0.002730439656383989
759,7.59,-0.006752902628203697,-0.024919008024603964,-0.03319789389047021,-0.0019202376181621733,-0.0017304711310859992,-0.0017304711310859992
760,7.6,-0.0051393070173821696,-0.06132148121895921,0.09580038524169257,-0.0038381763958619157,0.0001224489039110372,0.0001224489039110372
761,7.61,-0.011512050921019352,-0.029351394486720632,0.022478364397947197,-0.0038768061334814477,-0.0023617262269828685,-0.0023617262269828685
762,7.62,-0.022673973673698024,0.07657389122355412,-0.013269427583494697,-0.004796360608057082,-0.0018432908813526734,-0.0018432908813526734
763,7.63,0.03505970238832758,0.05140992894592341,-0.06904766114974831,-0.0007488513793471674,-0.0017773527424481991,-0.0017773527424481991
764,7.64,-0.008940558913133466,-0.030990835231991667,-0.013963841710365058,0.0005071074890846217,-0.0022236425706987557,-0.0022236425706987557
765,7.65,0.009869818984733545,-0.09075365131279167,0.020316469247291573,-0.0018559885146397512,-0.003362886434103997,-0.003362886434103997
766,7.66,-0.015047726772057263,-0.01812477838586513,0.016144374603546216,-0.00495877944545252,-0.0016169237237785936,-0.0016169237237785936
767,7.67,0.008955809030448705,0.05772870089706247,-0.022961199252879524,-0.002388588887609445,-0.000841872215157433,-0.000841872215157433
768,7.68,0.006854545972196221,0.058842062959108064,-0.01998315064542061,-0.00026905292123846863,-0.0027058113351371487,-0.0027058113351371487
769,7.69,0.002225893707309744,-0.037327532008359005,0.0026689823528196974,-0.00023094595898800956,-0.0009251884242167463,-0.0009251884242167463
770,7.7,0.008386723377968178,-0.07321888404900602,0.08172111051374929,-0.002959452794335777,6.132533132833899e-05,6.132533132833899e-05
771,7.71,-0.012908382315940685,0.003973194952630196,-0.0018558073294380486,-0.0048395658075767005,-0.0019504384393897733,-0.0019504384393897733
772,7.72,0.008872698446666504,0.07980124275737543,-0.018161235389053842,-0.0039595652701510725,-0.003096300575996005,-0.003096300575996005
773,7.73,0.00830988447902994,0.04681888246580487,-0.09933630169159599,-0.002782067513986951,-0.0019395625081778621,-0.0019395625081778621
774,7.74,0.0008401329508736077,-0.05161499636519889,0.022241653053280415,-0.0013997271211280925,-0.000878777603721158,-0.000878777603721158
775,7.75,0.007619313513129656,-0.055313097128558725,0.05818680048681709,-0.0011049563603966537,-0.0002456434203785295,-0.0002456434203785295
776,7.76,-0.01161365593741687,0.030097406452046404,0.05609827352217493,-0.004567315197398432,-0.002198815730560722,-0.002198815730560722
777,7.77,0.005108619184946166,0.08485680249656238,-0.009609021575765594,-0.005371856397990056,-0.002469745075508748,-0.002469745075508748
778,7.78,-0.0255652615334703,0.029352800425453223,-0.05331576810591382,-0.003572813659637795,-0.002481342084699428,-0.002481342084699428
779,7.79,0.013615133344404494,-0.03668061163362648,0.006347087206892992,-0.002449474029824188,-0.0006018306021980061,-0.0006018306021980061
780,7.8,0.018987753606350567,-0.042068851093059106,0.013728555588956467,-0.0032540050117597554,-0.0013278554457594061,-0.0013278554457594061
781,7.81,0.014694560320470168,0.027456834189638853,0.0014829059336154836,-0.003595813027283617,-0.004079391854284811,-0.004079391854284811
782,7.82,-0.0051094050568113135,0.04704379059046725,0.003608314476919947,-0.0018229800944851535,-0.002393203885920507,-0.002393203885920507
783,7.83,-0.007217629416049882,0.02189159087466008,-0.05359881578620043,-0.0024063108390775232,-0.002251334264889947,-0.002251334264889947
784,7.84,0.00705188512135262,-0.022850442506612275,0.0644647467372112,-0.0023927619053420875,-0.003620169119164401,-0.003620169119164401
785,7.85,-0.017218768242081055,-0.03907930510128452,0.020992898459076967,-0.002615295702474539,-0.0038419563532671,-0.0038419563532671
786,7.86,-0.009397469499923925,0.012580149755087713,0.05984863208307819,-0.003760516908873776,-0.002792866614490504,-0.002792866614490504
787,7.87,0.0010583051787356,0.026460380040941707,-0.08331963753150343,-0.002588653999765136,-0.003150344469331654,-0.003150344469331654
788,7.88,0.007651057550480818,0.006451538491320977,-0.05975228944337598,-0.003343592747203737,-0.0020484853074478238,-0.0020484853074478238
789,7.89,0.031411929290119156,-0.05279981066743062,-0.010944224080020819,-0.003095357650666491,-0.0017353573419081351,-0.0017353573419081351
790,7.9,-0.011954780536805225,-0.040378393189258024,0.017217615582849108,-0.004606903189243642,0.00016599479059171214,0.00016599479059171214
791,7.91,-0.0032854217749747824,-0.005246243390895671,0.073956010532721,-0.005959644017699078,-0.0027464883533770174,-0.0027464883533770174
792,7.92,-0.026070549195830985,0.010200336710888405,-0.026315433958592198,-0.005367111535270792,-0.0016420903490690956,-0.0016420903490690956
793,7.93,0.0030058859903938848,0.040699643768494456,-0.009448057099579545,-0.003094556595883872,-0.0013547633133085561,-0.0013547633133085561
794,7.94,0.014087828219238648,-0.030309344462344432,-0.032555471447032636,-0.0027251381667979624,-0.0015414075210451056,-0.0015414075210451056
795,7.95,0.006068129059987412,-0.046623371153977994,0.021490491455043167,-0.0042460469305018005,-0.0011485979201950151,-0.0011485979201950151
796,7.96,0.018165377236021615,-0.04135205666140515,0.020710729844744407,-0.006481147373543706,-0.001398323232529192,-0.001398323232529192
797,7.97,-0.019089932788267473,0.022750458968650793,-0.06954616401365951,-0.006279199582075691,-0.003303002121526788,-0.003303002121526788
798,7.98,0.008179087759125774,0.008596046025917766,-0.007857530135976225,-0.0020826870093773463,-0.0038546450665145654,-0.0038546450665145654
799,7.99,-0.0044473754605171625,-0.02234600747940434,-0.004253037720640115,-0.0027280108144026663,-0.002868019528208616,-0.002868019528208616
800,8.0,0.008139455095009294,-0.02331184930627799,0.08792140512458198,-0.0014937012742960393,-0.001160791661788164,-0.001160791661788164
801,8.01,-0.023079095398197504,-0.004730958958734689,0.06048168128107786,-0.004264962673774965,-0.0011435493466736238,-0.0011435493466736238
802,8.02,-0.04144625912902672,0.054682802178203524,-0.023326244724897492,-0.00320589030884687,-0.0018201973232744942,-0.0018201973232744942
803,8.03,0.016312675750929723,0.030973692327643722,-0.05345095356440977,-0.0033717173621217785,-0.0007831196463530175,-0.0007831196463530175
804,8.04,0.002850981321451059,-0.013978980824742596,-0.072500513897485,-0.0021844618708545503,0.0002879046509272143,0.0002879046509272143
805,8.05,0.02117038578963995,-0.0493218296900671,0.035479396872643065,-0.0031152675069179856,-0.0005259661560588589,-0.0005259661560588589
806,8.06,-0.017634769069327504,-0.02621579219656191,-0.012235746185539048,-0.005321574574370578,0.00030949510596414703,0.00030949510596414703
807,8.07,-0.02413492562756418,0.0415437536363741,0.02563850348096918,-0.0038273128236584603,-0.0028197885536123146,-0.0028197885536123146
808,8.08,0.018223658845734493,0.03089070461463402,-0.0156394641287407,-0.00300333097274693,-0.0010738657251545634,-0.0010738657251545634
809,8.09,0.01924363649036843,0.010709705626478997,0.038537359692227255,-0.0024395882253323486,-0.0014028157044813582,-0.0014028157044813582
810,8.1,0.031450978600611385,-0.040390913621605254,0.052721946102196784,-0.002756128628392912,-0.00371270695029794,-0.00371270695029794
811,8.11,-0.03774349658288586,0.010332900383696145,0.024855630884439674,-0.0033912087649152385,-0.001936655087627664,-0.001936655087627664
812,8.12,0.0032364835566122407,0.04290543304145579,-0.03935050789444701,-0.0037532416769935186,-0.0010774681120271571,-0.0010774681120271571
813,8.13,-0.0030246837500283825,0.03260768458502809,-0.07561893283979339,-0.0014435449563985185,-0.0018536015178694906,-0.0018536015178694906
814,8.14,0.0069018755376323545,-0.016289955125131077,-0.009576589237196297,-0.002855287187091421,-0.0034817306541697216,-0.0034817306541697216
815,8.15,-0.007645199879345291,-0.03138667769673811,0.06010222081447231,-0.0014211161438192554,-0.002859984481159354,-0.002859984481159354
816,8.16,-0.026572996769040055,0.007060937525290025,0.02218066076322983,-0.003095608219003861,-0.004271391005538932,-0.004271391005538932
817,8.17,0.005102311305798669,0.037390498026394846,0.023063171867478777,-0.0061434849657411176,-0.003174619730789159,-0.003174619730789159
818,8.18,0.0043591659059970585,0.054054563004371066,-0.060452941440219905,-0.0023464801745375465,-0.002644106717763905,-0.002644106717763905
819,8.19,0.04394926998130833,0.01376456445492671,0.01989512438043734,-0.002258074766322434,-0.0023626988914710505,-0.0023626988914710505
820,8.2,0.02466951121909325,-0.041850820570160055,-0.009021977857312895,-0.0007062172840782081,-0.001117418477818364,-0.001117418477818364
821,8.21,-0.02148692058265925,-0.02555202990545833,0.020798839613264307,-0.003991703083528211,6.571066110224659e-05,6.571066110224659e-05
822,8.22,-0.00977728914948858,0.021412562073642748,-0.05456555819212011,-0.005617938054645785,-0.0017599459134193004,-0.0017599459134193004
823,8.23,-0.007511321646368654,0.03889259553843175,-0.056685105150042873,-0.003494521709795971,-0.004479823788123678,-0.004479823788123678
824,8.24,0.018706225397505633,0.009725006210486055,0.02235826549320379,-0.0018441047887739316,-0.004274867451899971,-0.004274867451899971
825,8.25,-0.028690351315283007,-0.052410791742654665,0.038905643776597984,-0.002574152560923018,-0.001280776926044596,-0.001280776926044596
826,8.26,-0.0149402845217857,-0.015006128739930461,0.0450185861718401,-0.004982307416653521,-0.0012664536723517757,-0.0012664536723517757
827,8.27,-9.107839697720943e-05,0.03855451798226643,-0.03605575001993421,-0.005810216757221265,-0.0032422251705645326,-0.0032422251705645326
828,8.28,0.02514565498190254,0.05253256985537213,-0.06153567026444447,-0.0049181599942376255,-0.003389895025276332,-0.003389895025276332
829,8.29,0.01842622517202296,-0.014660006179097117,0.03540513058616413,-7.403749379239228e-05,-0.002693155746743907,-0.002693155746743907
830,8.3,-0.011826741962186494,-0.08214752640592082,0.016128286266422084,-0.0009625879379994467,-0.003179671428453647,-0.003179671428453647
831,8.31,-0.004801496955363417,-0.03172816203204783,0.06313044739157651,-0.0023325886965082296,-0.0024343489789212546,-0.0024343489789212546
832,8.32,-0.01335528378058583,0.020797082302894405,-0.05527910868532658,-0.0070970965253252544,-0.002978433081573105,-0.002978433081573105
833,8.33,0.002760094966790838,0.06024593140356085,-0.021025027950168848,-0.002752712836292493,-0.0027923956870468288,-0.0027923956870468288
834,8.34,0.02039524178484875,-0.021867280529785642,-0.004223104975591377,-0.00023700861437354393,-0.0036597998402658686,-0.0036597998402658686
835,8.35,-0.0019701872684326077,-0.06642564737645172,0.05120134723565459,-0.0005364542876902222,-0.0011828509358394095,-0.0011828509358394095
836,8.36,0.0026132275358553615,-0.03936245289082231,0.04994947706158876,-0.0038680226135140976,-0.0022326600403491602,-0.0022326600403491602
837,8.37,-0.015020889963824745,0.02983224383856599,-0.057348927119923954,-0.005292738490960528,-0.0018052299499777386,-0.0018052299499777386
838,8.38,0.01441490483972575,0.04198863188694339,-0.006492903767352419,-0.0022686311030771142,-0.001777469706989911,-0.001777469706989911
839,8.39,0.007204325551908634,-0.05117175051154838,-0.02652191670099182,-0.0011948430083922818,-0.002918729481817268,-0.002918729481817268
840,8.4,-0.008926112840796746,-0.06962549482854284,0.05740753681740512,-0.0032557465963635648,-0.0027115520616517244,-0.0027115520616517244
841,8.41,-0.020071902259018982,-0.034997213129806026,0.007882989880943544,-0.005383794860374143,-0.0009954765481758787,-0.0009954765481758787
842,8.42,-0.026931210397988726,0.06987905599054003,-0.037087234674114435,-0.0058953172141241,-0.0006547981287647473,-0.0006547981287647473
843,8.43,0.015855426127213024,0.044167327684450815,-0.04373193709363198,-0.002451218853515222,-0.00017436993723140952,-0.00017436993723140952
844,8.44,0.0024341538542645737,-0.006988766562326545,-0.022444555974663247,-0.0005674451084545407,-0.001639057353835062,-0.001639057353835062
845,8.45,0.010828930157437692,-0.06290619390988966,0.06011869942710403,-0.002077692642826417,-0.0023478455281153643,-0.0023478455281153643
846,8.46,-0.018421477604811255,-0.009683659519738564,0.01197506496145002,-0.0041138405568101775,-0.0013059907716395814,-0.0013059907716395814
847,8.47,0.002228025980423114,0.06737590005484931,-0.008411202967530805,-0.005505760612499678,-0.0003921098561015341,-0.0003921098561015341
848,8.48,0.00783219963708388,0.040486094792452604,-0.03621460307249653,-0.004265878228126823,-0.002945820792728627,-0.002945820792728627
849,8.49,-0.0030365779795339175,-0.02643149206583981,0.005457187208460992,-0.0008759565741261986,-0.002294795729236945,-0.002294795729236945
850,8.5,0.022442702426131854,-0.06879839527663341,0.08098613688253312,-0.0005955544238809332,0.000737202524568521,0.000737202524568521
851,8.51,-0.018106617259996592,0.011386583702218607,-0.02504696836495663,-0.0045963816417503925,-0.00020800482050626465,-0.00020800482050626465
852,8.52,0.005750754943181235,0.068600873370297,-0.000995714043032083,-0.006604014688499029,0.00019135768331314076,0.00019135768331314076
853,8.53,0.01739439901352125,0.038924413989535014,-0.09196149294634837,-0.0018718766966383687,-0.0023201153092677557,-0.0023201153092677557
854,8.54,0.017741386388267732,-0.02931706306356391,0.04498334889815172,-0.001448151218869199,-0.0019099854521362255,-0.0019099854521362255
855,8.55,-0.00047392183823955544,-0.06467717764088754,0.04909010491233416,-0.003322853641775688,-0.00034757237475442415,-0.00034757237475442415
856,8.56,-0.03221740878111486,0.031731954305456986,0.03959376310823885,-0.004586123121244781,-0.0015549229427995544,-0.0015549229427995544
857,8.57,0.03481117619932004,0.05335133542546277,-0.0327029914155583,-0.002697418870920595,-0.0015308095115080824,-0.0015308095115080824
858,8.58,0.0005666694301773613,0.05527009241207776,-0.05937221510493737,-0.003003950115957485,-0.003190627362367333,-0.003190627362367333
859,8.59,0.012162601179855608,-0.025989606868323373,0.016201135660556053,-0.002458091329382691,-0.0029097290130998326,-0.0029097290130998326
