,ts,ax,ay,az,wx,wy,wz
0,0.0,-0.32361798969910327,0.14016290987161245,-6.556433642760502,0.10596552486481324,0.04759277945755622,-0.03485179114877505
1,0.01,-0.06019361636011944,0.018582104883591244,-1.289820270506266,0.09790447640379696,0.04759447959774679,-0.01804942187384901
2,0.02,0.0953611566492677,-0.050117406901406716,1.8469984711752128,0.08986258091364964,0.04691098694207233,-0.0008605607261263845
3,0.03,0.17243643139600467,-0.08081239049355682,3.422587203180851,0.08351173376665079,0.04638149779423819,0.01596179340085432
4,0.04,0.19413852716073693,-0.08592694754574899,3.8949810783355474,0.07811168852357186,0.04593859802692541,0.03257807679394185
5,0.05,0.17827685357865333,-0.07408551782134243,3.628010451091845,0.0692059762083889,0.04487132487185863,0.04551886009013868
6,0.06,0.14004646204584906,-0.0533211638251241,2.905142642383468,0.058344539670553724,0.0434557293766225,0.05640917355505873
7,0.07,0.09078891599878515,-0.028281564433256225,1.9431818431863586,0.047546599199885936,0.042873820851095465,0.06496897833690374
8,0.08,0.03849013467046351,-0.003592945030529919,0.9032154234894816,0.03678583820853465,0.04278006929070804,0.07216417735267992
9,0.09,-0.011521562660797638,0.018672196628014125,-0.09903214775309266,0.023164701701986763,0.04038056260532469,0.07670913217765847
10,0.1,-0.05521118748757332,0.036654818068880185,-0.9857497088790922,0.007168992842413305,0.03606690781471046,0.07905395749138924
11,0.11,-0.08984629063029245,0.049920151843817276,-1.7087836469692905,-0.00632991347791601,0.035518404326244375,0.0804887294188662
12,0.12,-0.11463699347603279,0.057726439753130215,-2.243470526443828,-0.018129315548843842,0.03753273491739174,0.08130405324309478
13,0.13,-0.12989755075187287,0.0615764874652552,-2.583464646239944,-0.02838748125743524,0.037303407062101133,0.08269463132418918
14,0.14,-0.13572629137910566,0.060233710490706895,-2.735002828396513,-0.03791333802324959,0.03600801874715913,0.08435853791411453
15,0.15,-0.1328989525130997,0.05383525770700913,-2.7142332065881805,-0.04743919478906393,0.03471263043221713,0.08602244450403984
16,0.16,-0.12275077762420959,0.0441190381020593,-2.544038021565605,-0.05696505155487828,0.033417242117275134,0.08768635109396518
17,0.17,-0.10696974813433899,0.033781914424105795,-2.251541009435113,-0.06539561321471693,0.03175224640663725,0.08641837962186125
18,0.18,-0.08688617757722607,0.02294340758047662,-1.864951636436895,-0.07271053920544912,0.02971077937612018,0.08216408261463425
19,0.19,-0.06374640854456616,0.010610188098884029,-1.412651990833961,-0.07550075818663657,0.02951016021058867,0.07670951129918732
20,0.2,-0.038904981275143906,-0.0019166897373713507,-0.9218147524334197,-0.07603404897121656,0.030227757725913268,0.07065624200745801
21,0.21,-0.014067035531565228,-0.012880091185435826,-0.4177410846088385,-0.07716316700374347,0.027958768947801124,0.06362007214316039
22,0.22,0.009920625727217997,-0.022203392877508762,0.07687298186926861,-0.07888835066279226,0.02270199900276016,0.055600608467417635
23,0.23,0.032378201757001984,-0.030597956262793873,0.5428914682624979,-0.07813972743855573,0.01890489896298439,0.0428067725141864
24,0.24,0.052678263004356345,-0.03740469619140744,0.96407449745502,-0.07585939477104152,0.0160115841754324,0.027056783777743385
25,0.25,0.07033026500310359,-0.042250277764535826,1.3278385388862337,-0.07357906210352731,0.013118269387880414,0.011306795041300374
26,0.26,0.08444063359668309,-0.044794995640452376,1.6256435462082586,-0.0709863619688776,0.011651120048046243,-0.006831358911810178
27,0.27,0.09487946895723573,-0.045251967170634,1.8516309097364982,-0.06819495687476736,0.011091191136995924,-0.026488686026308716
28,0.28,0.10158653357744553,-0.044430241458948985,2.0032266523448925,-0.06229811691408009,0.008517422924295049,-0.04029780115184591
29,0.29,0.1045532116117049,-0.0418175083214638,2.0805893352930536,-0.05469804835360717,0.004839130275786453,-0.05089936488919772
30,0.3,0.10352437624612991,-0.0376717970761249,2.086186120480878,-0.04697285185671906,0.0028106354543445977,-0.06253770486433283
31,0.31,0.0991629685691872,-0.03203888359609835,2.0249420716943556,-0.03917106165121117,0.0017920201024130445,-0.07481067959279106
32,0.32,0.09210293483919821,-0.025842861572326587,1.9027718942326923,-0.030702600678783817,-0.0022682709348358704,-0.08744282718544683
33,0.33,0.0825744272782899,-0.018778651667399966,1.7279039998331827,-0.02180969628846503,-0.008265078897761468,-0.10030364620882737
34,0.34,0.07023069716061395,-0.01170600572411461,1.508975123071631,-0.013132768292269538,-0.015408827662538028,-0.1091919521894698
35,0.35,0.05640975585206927,-0.0040347752732080785,1.2552225071814604,-0.004559119473455995,-0.023101039619330528,-0.11618061593903195
36,0.36,0.04160824481332741,0.0034534407242372,0.9758491003928262,0.005670548717296885,-0.029577276254999237,-0.12217792722588655
37,0.37,0.0263112112950523,0.010560613518606791,0.6800491818478054,0.017571542064821175,-0.03482629889870395,-0.12717472345946007
38,0.38,0.01113684354212583,0.016955622281884797,0.3771868110765394,0.02782262809433433,-0.040747213674995515,-0.12792118523161972
39,0.39,-0.00364163314009195,0.022549894004488803,0.07549595870224651,0.036401214438211565,-0.04734922087888317,-0.12435911223157685
40,0.4,-0.01720131461996557,0.02767207844804238,-0.2170938579345455,0.04361032879471802,-0.050445996481200434,-0.1210683088445238
41,0.41,-0.02977160231245474,0.03201299476999096,-0.49379451576730954,0.04974211866303555,-0.05078530652308988,-0.11799090551214185
42,0.42,-0.04157248080444695,0.035615455595729026,-0.7487610815853394,0.055873908531353086,-0.051124616564979325,-0.1149135021797599
43,0.43,-0.0538633986742848,0.034209522212421566,-0.9748152443314502,0.06049559820378416,-0.04648162977401777,-0.10397620897292492
44,0.44,-0.062281874989612414,0.034769254251051054,-1.1699456838286333,0.06373580784329007,-0.04513178053046312,-0.09240756966061753
45,0.45,-0.06855187616528846,0.035595222168312575,-1.3308888111415094,0.06637389696612436,-0.04563089671458028,-0.08090933250324855
46,0.46,-0.07368138525390756,0.03486072638849854,-1.455238955137357,0.06908537631037602,-0.045015713105211685,-0.06854594798785607
47,0.47,-0.07733655437964349,0.03290970460271352,-1.5411754240698985,0.0718323853225208,-0.04386107477243103,-0.055763728405400254
48,0.48,-0.07886393814040167,0.030006789387821645,-1.5886790856527173,0.06963179731207726,-0.04080598988408155,-0.04329759170891871
49,0.49,-0.07874189156325812,0.026044398877734992,-1.5976127393742476,0.06508899193997524,-0.03685122401988965,-0.03098109024341333
50,0.5,-0.0771123748140326,0.020849783909886392,-1.5696621058566733,0.059370027880942186,-0.035039090364670684,-0.015888932062956142
51,0.51,-0.07393583990233947,0.014924413102304988,-1.5067682155951334,0.05293141546994425,-0.0345379547534977,0.0009015486336127858
52,0.52,-0.06942586602563286,0.009793504437449996,-1.4122307528351221,0.0424023568902855,-0.0365146189246649,0.019029265875047774
53,0.53,-0.06339650479555574,0.004178549458813701,-1.2891402596684227,0.030001864041070376,-0.03962490990194868,0.0377687868643817
54,0.54,-0.05642589140291837,-0.0011732822622876442,-1.1414035866917547,0.016619299986748597,-0.04292832015332885,0.049610598882002144
55,0.55,-0.048044784031193305,-0.007089324331645684,-0.9736199735026434,0.0027692555432801066,-0.0463236580296479,0.05816899961788442
56,0.56,-0.037819037074007356,-0.01277704928445493,-0.790313957682143,-0.007181803575105602,-0.04746894057751058,0.07138670290007712
57,0.57,-0.026797044110724765,-0.01861193541364447,-0.5964118175397216,-0.015265824171956554,-0.04753677870751735,0.08683552443795653
58,0.58,-0.016230938230777387,-0.023375744805023253,-0.39614324832686554,-0.023599470072896245,-0.047381673245911145,0.09431371149586054
59,0.59,-0.00557062260924758,-0.027805358105862044,-0.1945364847848649,-0.03205706939481265,-0.047115863378891606,0.09783401690088246
60,0.6,0.005529620035840024,-0.03093838310914103,0.004257445388004488,-0.042401706804689084,-0.04515296001567908,0.1015912758699251
61,0.61,0.01637063846461624,-0.033350822573319505,0.19615549911830435,-0.053974258401217584,-0.042085741274125066,0.10550272284645698
62,0.62,0.02570902419107051,-0.034570976360665286,0.37726920171396305,-0.06208621055277176,-0.042570167318386434,0.09955634905401016
63,0.63,0.03422033218613799,-0.03510908653407541,0.5448544707981318,-0.06822355020493975,-0.045081156187662286,0.0879851185231152
64,0.64,0.04249942138295271,-0.03418098020672818,0.6958708302328026,-0.07296287863406381,-0.0432211684477403,0.07675020410592044
65,0.65,0.049825036242613356,-0.03258723820007766,0.828715280242412,-0.07696421947333046,-0.039053812612359406,0.06569282554400974
66,0.66,0.05542402284657024,-0.030287403220324468,0.94192309377154,-0.0781527068199083,-0.037803692725826565,0.05057578752250859
67,0.67,0.05964006466081181,-0.02733874630746562,1.0338129089033985,-0.07791399114321351,-0.038033738079544334,0.033398934345598714
68,0.68,0.0631073793731422,-0.023416262993356383,1.1034159398892902,-0.07790024391236426,-0.03642638733478869,0.01812708545328787
69,0.69,0.06509249298168324,-0.01879547341524044,1.1499883032709821,-0.07799871115809982,-0.03390254165362426,0.0038054545254772656
70,0.7,0.06514817378656167,-0.013690141746765258,1.1736516669410002,-0.0758820497636762,-0.03353038818265773,-0.012498873641921864
71,0.71,0.06365656077755602,-0.00808091243930723,1.1744919247675825,-0.07273918156873402,-0.0341550531983003,-0.029721729678875763
72,0.72,0.06181775944712265,-0.002334408564934748,1.1533552862218697,-0.06943358259503497,-0.02881286493898645,-0.043456476641455216
73,0.73,0.0585290222961577,0.0037017616928512256,1.1114025375807866,-0.06605207122843,-0.020687195191531185,-0.05556405320286368
74,0.74,0.05379580414778862,0.009385239102262464,1.0501362409545498,-0.058737039761108174,-0.013725701247879484,-0.06773210771142221
75,0.75,0.047726539885411715,0.015053353812205045,0.9715762891740842,-0.04920748197262627,-0.0074196248167786435,-0.0799342106047314
76,0.76,0.0411859950540888,0.020083963123605615,0.8776450292082179,-0.0369861658066235,-0.0022493659049160485,-0.09115758033175383
77,0.77,0.03389012633211634,0.024791937192757393,0.7709288423944357,-0.022971838978619995,0.0021643121269208088,-0.10172900484071323
78,0.78,0.025703969749792183,0.028101656845410248,0.6539059009023498,-0.009714033788053371,0.004185542798986254,-0.10944476601198716
79,0.79,0.017118207247202623,0.031146443714159637,0.5291546601338162,0.003151611537616575,0.004966595018841014,-0.11568023039691755
80,0.8,0.008974926132842263,0.033040842342733266,0.3990046469653812,0.01665886936543069,0.007864269160321952,-0.11969321679997386
81,0.81,0.0010689962948795132,0.03461189771792807,0.26609303394389794,0.030538440895500406,0.011990172710180158,-0.12241654783807406
82,0.82,-0.006623784778482467,0.03513778744066506,0.13304200984713263,0.04053917851384775,0.014746693676411984,-0.12516900103899786
83,0.83,-0.013833437650160142,0.03534584844525605,0.001940388810558774,0.04869184333828869,0.016850771471617336,-0.12793532951224282
84,0.84,-0.020421532436761217,0.03447720099369699,-0.1251316631093808,0.055447003193699315,0.016003184524430048,-0.12589667579152164
85,0.85,-0.026146138426190832,0.03294609014414922,-0.2461066181970431,0.06142861788759758,0.01352179588745793,-0.12119837447765125
86,0.86,-0.03023007037867605,0.030386156405704034,-0.35925580588705075,0.06687432625880699,0.015737364789603255,-0.1175394160854011
87,0.87,-0.033491337489342375,0.027059099384173894,-0.4626984069547006,0.07203550873793357,0.02044666436315998,-0.11443227049966948
88,0.88,-0.03655300196548104,0.02240446361705324,-0.5548151246201314,0.07593915482919626,0.019811511912313992,-0.10733369490127544
89,0.89,-0.038967875909851575,0.01710265063364662,-0.6345510407230914,0.07917012028934528,0.01631750830182971,-0.09810002588858692
90,0.9,-0.040262639597709836,0.010806218718701733,-0.7010293117305109,0.08280141319451435,0.015654893718401206,-0.08909436362568543
91,0.91,-0.040746056714833334,0.0043099297538031975,-0.75359194129427,0.08665985113902085,0.016598803943427547,-0.08021807196376024
92,0.92,-0.04098314014505732,-0.0022021599006625155,-0.7916573752869269,0.08875928509025685,0.016254148536160248,-0.06884832647814207
93,0.93,-0.04048756792050309,-0.008452360353595484,-0.8152892719263342,0.08998369489269911,0.015268490578656431,-0.0562382015971498
94,0.94,-0.03885108307090193,-0.014097378091323448,-0.8246574283855697,0.0861482955104086,0.015205396128775119,-0.041557241828926915
95,0.95,-0.0365116593714338,-0.019410023120760823,-0.8200479495766276,0.07911448891864035,0.015725472637767964,-0.025567265654919083
96,0.96,-0.033965778706242816,-0.024738372580406877,-0.8018568256977903,0.07360504096124186,0.015377055862116419,-0.010895795701592298
97,0.97,-0.031112854219023545,-0.029687048383295434,-0.7709306256766961,0.06945009864590372,0.014256918424660932,0.002604083738362573
98,0.98,-0.027273658031087365,-0.03246972344575627,-0.7284448446024337,0.06020885767669649,0.01650213095768936,0.018398076089128145
99,0.99,-0.023282426107629803,-0.03473635117949797,-0.6753321938471409,0.04845448512996869,0.020410157229308896,0.035325585755903124
100,1.0,-0.019802404404594225,-0.036609516707645604,-0.612566326098722,0.04096895576281066,0.021448874275034082,0.04824326713306532
101,1.01,-0.016411429269655248,-0.03823690295835204,-0.5417470735485671,0.03575386504753165,0.020961512639339968,0.059028270228742276
102,1.02,-0.012805122121308276,-0.03846314263594777,-0.4644720524928344,0.02828528657581745,0.020848564762477064,0.06756458648658745
103,1.03,-0.009153304025009556,-0.03823310719890914,-0.3821541884970879,0.01964856246176043,0.02092970260876171,0.07493524576533182
104,1.04,-0.005668398048327739,-0.03767079640513095,-0.29616562141081826,0.010013326947463042,0.020661587439169658,0.08258055205968058
105,1.05,-0.00235829880647287,-0.036220161856259675,-0.20805058449195335,-0.0012489859129531011,0.01982436342409039,0.0906733964964696
106,1.06,0.0014168872054762215,-0.032720904899555744,-0.11954533020203005,-0.013597218029317279,0.02134621063158731,0.09271404412127887
107,1.07,0.005063104210486225,-0.028579198879996742,-0.03210984649329999,-0.02660988430035244,0.02431148697527044,0.09105157454778462
108,1.08,0.0074727379575350705,-0.023883683683997542,0.05298130400945143,-0.035031378775131544,0.023258322050363697,0.08843960391403384
109,1.09,0.00962528577449197,-0.01913096809759105,0.13433600078591326,-0.04086809663063677,0.019942821168992327,0.08529307516539653
110,1.1,0.01244704188258871,-0.013696171399937826,0.21037698543084385,-0.04753173323477528,0.019547348667799044,0.08016847025876729
111,1.11,0.015226004283805232,-0.008226286421652854,0.28052345126426975,-0.05464298676943169,0.02073250805180697,0.0739731188251856
112,1.12,0.016981305019873487,-0.0022771231052678836,0.34364039727139073,-0.058573389806243714,0.01970060078604048,0.06537524881499343
113,1.13,0.018444727108273613,0.0035403574648432794,0.3994125646259956,-0.06083578587467391,0.017506085399050818,0.05551752150243236
114,1.14,0.019981431068389465,0.008899231963295926,0.44740124731880865,-0.06309818194310411,0.015311570012061152,0.04565979418987129
115,1.15,0.02138365087788716,0.01412486519809812,0.48687418546573835,-0.06536057801153433,0.013117054625071487,0.03580206687731022
116,1.16,0.022508298424269914,0.019333038844379372,0.5173309101698268,-0.06762297407996451,0.010922539238081824,0.025944339564749147
117,1.17,0.022403280370318475,0.025035063615561227,0.5380929132221272,-0.06967346798042251,0.004123440598152321,0.01435228676952705
118,1.18,0.02166364601705782,0.03070467800286612,0.5493743226006215,-0.07150056789443159,-0.007529955752148434,0.0009318530422966695
119,1.19,0.021134306318898715,0.03660953009700742,0.5517172728940517,-0.07087176087184525,-0.0120925994326381,-0.0139288304105748
120,1.2,0.020929297709778603,0.041285207789148216,0.5453914250278511,-0.06882946274489732,-0.012574178121348985,-0.02961844599638575
121,1.21,0.021197615096287956,0.04275781728243025,0.5313847361141202,-0.06543871745668188,-0.013028102999473186,-0.04300085993385032
122,1.22,0.02141932969615489,0.04237380228088852,0.5096212951656865,-0.06061037147587539,-0.013452545715897535,-0.053923529965226605
123,1.23,0.02140046518906821,0.04080313995444866,0.479978210719171,-0.055363391539967666,-0.01471283763560527,-0.062077199197753424
124,1.24,0.02084658329046936,0.038788803748159,0.44326385992647427,-0.04969306254407421,-0.01681839298936546,-0.06743068017271486
125,1.25,0.01873217788708286,0.038809705296287335,0.4005587351925747,-0.04335578793311113,-0.017873514826478663,-0.07333537555197217
126,1.26,0.016008371802416814,0.03905831666619644,0.35252827475015086,-0.036639761829864864,-0.01833210637238845,-0.0795530998701382
127,1.27,0.013612607674427757,0.03791896422443944,0.3003245612003399,-0.030635553054653906,-0.016226672300444684,-0.08513354960159562
128,1.28,0.011218357451455926,0.035546108288172694,0.24505257253360607,-0.025344586667194045,-0.011552079426227236,-0.09007544892134604
129,1.29,0.008334083577905858,0.03253414151961775,0.18751932007585986,-0.0200536202797342,-0.006877486552009789,-0.09501734824109646
130,1.3,0.005546068708969359,0.028174123344512487,0.1289279380652626,-0.014581846154677384,-0.004017090977223702,-0.09974714724224204
131,1.31,0.0027220855561810543,0.02277420170860413,0.07050929929678784,-0.00892612742185347,-0.0030023675793656693,-0.1042611661532678
132,1.32,-0.0003779477858454599,0.016571954716435917,0.01303256645687348,-0.0017513096830580402,-0.0020584762220401827,-0.10690592805677286
133,1.33,-0.0035693436407338236,0.00984010524987804,-0.04232469017598888,0.006974536386005803,-0.0011869056951048422,-0.10764214379981016
134,1.34,-0.0068870228267175395,0.0028785248208587355,-0.09476512027486621,0.015642368650558222,-0.0008296276826728697,-0.1080621708701063
135,1.35,-0.010044382640132318,-0.004152454193050973,-0.14340734110328968,0.024249674048368645,-0.0010089204873749802,-0.10815231249638606
136,1.36,-0.012828510141513573,-0.011358188399563289,-0.18739944853644538,0.03296170005846204,-0.0018951083360163672,-0.10723737194169143
137,1.37,-0.015123120687247076,-0.018343658459120157,-0.22634227973141433,0.04177945684751636,-0.0034950101518504643,-0.10530765387951783
138,1.38,-0.017279819318544307,-0.02446430929554773,-0.2596085560859636,0.046462026844131935,-0.006756200303447486,-0.10378298070526927
139,1.39,-0.01873229367399877,-0.02953527828986214,-0.28719102761856036,0.049254449533756316,-0.010776746641739584,-0.10244344898715076
140,1.4,-0.019441470743078042,-0.03380551150446141,-0.3089678225310401,0.05062341558917794,-0.015593287082931288,-0.09608469609456374
141,1.41,-0.019375368738847685,-0.037271582051391125,-0.325290159613982,0.051300746697520334,-0.020796588403243603,-0.0872871834336986
142,1.42,-0.01893578581722854,-0.04040644035616645,-0.33610127575823934,0.050409902807122535,-0.024989766024249682,-0.07948539521215296
143,1.43,-0.018059731150069574,-0.04299226607315463,-0.34165889857744974,0.04792367733136126,-0.028155295104686586,-0.07269660645550312
144,1.44,-0.01613515123538042,-0.044240595257990366,-0.34191033977744223,0.046561470976832615,-0.028653268860923183,-0.06350323752763794
145,1.45,-0.013825073353408135,-0.04458884696583188,-0.3375281205708792,0.04581548256754078,-0.027688816018151683,-0.05299161215353133
146,1.46,-0.011772793048530163,-0.04442745550903188,-0.32845712450225817,0.04501658328923234,-0.02687961944887292,-0.03967157630070129
147,1.47,-0.009771647013715978,-0.04359319353303212,-0.3152759310227491,0.04418737552005278,-0.02615935703311108,-0.024742822145966445
148,1.48,-0.007020811006511559,-0.041815002194684134,-0.29831604511811993,0.04194612523671051,-0.02169056057454368,-0.014958231766693557
149,1.49,-0.004530544536800987,-0.039352139539786876,-0.27776108798065086,0.0389823104922283,-0.015303580029068216,-0.0078059912558921295
150,1.5,-0.003162971125497409,-0.03626529763048837,-0.25369774015199426,0.03255745774332288,-0.01358364264841479,0.0026692120251543628
151,1.51,-0.002316810636150749,-0.03260753239348618,-0.22656107228036232,0.023396618819031875,-0.015553050938788988,0.015771251587424127
152,1.52,-0.0009061916887538775,-0.027024966934947534,-0.19715707860696757,0.013255834299190451,-0.014418900491173647,0.02446785115927241
153,1.53,0.0003450846768546269,-0.021414597182616422,-0.1655587660052723,0.002643224122232161,-0.011790443984526309,0.031043312957954795
154,1.54,0.001122632530024619,-0.016588708486004234,-0.13211091646543296,-0.007969386054726128,-0.009161987477878972,0.037618774756637184
155,1.55,0.0018350783579075564,-0.011229271249978858,-0.09749212554802279,-0.018860816459161853,-0.006618129750877292,0.046186421156777964
156,1.56,0.0024604056203215226,-0.005525269524831445,-0.06230419131493365,-0.030079821215235912,-0.004173663630584148,0.05709460283684008
157,1.57,0.002583971305762955,0.00016750278311332065,-0.027250197418597247,-0.039562160907774285,-0.002300910105693374,0.06396138704052994
158,1.58,0.002510934989293282,0.005250738835197154,0.007244588596735033,-0.04808322397744835,-0.0007446102047607568,0.06859118208648883
159,1.59,0.002444208610523472,0.01025543244252328,0.04056127007500846,-0.05548409395021165,0.0006874699931622715,0.07230530741914337
160,1.6,0.002431897901720225,0.014690397122174173,0.07226022338176051,-0.062285222892892365,0.0020530441102631844,0.07552919165087786
161,1.61,0.0029731818048926873,0.01901979961353545,0.1016534531631128,-0.06885051873238382,0.004880215185674835,0.07577940002947123
162,1.62,0.003460923846009981,0.022834398339591375,0.12853665873568842,-0.0752971713438016,0.008442688383357048,0.07453360764442962
163,1.63,0.0031088649893225976,0.02697177290499647,0.15208500381666684,-0.07805631645937773,0.00978876194692708,0.06788319775320857
164,1.64,0.002495696800362923,0.03100236827709133,0.17230897602207015,-0.07711613514483072,0.008911332031403802,0.05581084786380107
165,1.65,0.0022721349352932477,0.033594081947166336,0.18946070898872153,-0.07497923477672999,0.0058834530543971355,0.04171851324950225
166,1.66,0.0024804091718822474,0.03538095040813443,0.2033249099794835,-0.07213435975924855,0.0015833762162518758,0.026431163002158555
167,1.67,0.0027385986218853562,0.036807648862918416,0.21417197391022672,-0.06964268629692386,-0.0014274615396939355,0.010093088035142243
168,1.68,0.0032844305964393537,0.037933529375837785,0.221193134701636,-0.06734600552925889,-0.0037265464762414172,-0.006825062646273489
169,1.69,0.004456765504376959,0.038737415664178834,0.22445266474212305,-0.06578821012409349,-0.0026667373471679487,-0.021359021609740583
170,1.7,0.00566704456473198,0.03921447025694571,0.22355777656654258,-0.06464712110259613,0.0002873745658637864,-0.03454837698626323
171,1.71,0.006821719450054144,0.037424438684572486,0.21882704624905897,-0.06405613053878616,0.0025506112598965513,-0.04277074290300762
172,1.72,0.007563837217032758,0.035663657166733795,0.21025772713757215,-0.06376121665601729,0.0044420017162309,-0.04831975147168801
173,1.73,0.007726517144227514,0.035061112839996265,0.1980756462469848,-0.06346630277324843,0.00633339217256525,-0.05386876004036839
174,1.74,0.007446459132902791,0.034765455545673285,0.18291034973146333,-0.06317138889047956,0.0082247826288996,-0.05941776860904877
175,1.75,0.007968047121605775,0.03741612809124549,0.1662973588032785,-0.053082360030528235,0.014485471912470562,-0.07306543412502127
176,1.76,0.008039721178307327,0.038721969718807786,0.14760520415456183,-0.03704381172052509,0.023400329379312246,-0.09163269851638628
177,1.77,0.0069679321223019095,0.03294292620151419,0.12583751685762912,-0.021967855160465247,0.029117802179956617,-0.10123665879481593
178,1.78,0.005236360682586137,0.023763510983722674,0.10243741805871237,-0.007866500953789345,0.03159799539604902,-0.10176547659142272
179,1.79,0.0029268793972955158,0.015668237989917004,0.07897675690133518,0.0065983606590391645,0.03264575185106478,-0.10291806045819199
180,1.8,0.000529438971309732,0.00859553166079051,0.05582518496453627,0.021421675950427304,0.03228098625667727,-0.10468573837428737
181,1.81,-0.0009894370015354433,0.0024947668900618964,0.033070379630818936,0.031147940522496705,0.032236400434930285,-0.10492205787006084
182,1.82,-0.0021743222876511054,-0.002459324864263295,0.011325316388884192,0.0379921532476376,0.03237285552407524,-0.10429249342497607
183,1.83,-0.004043059633382965,-0.00697897287657176,-0.009068482880811447,0.04445660682606403,0.029252174379454786,-0.10412425725713582
184,1.84,-0.005530248719330658,-0.010903541933509507,-0.028087798325795502,0.05072794408474774,0.02447516403827028,-0.1041906172007138
185,1.85,-0.005540283197353755,-0.014767329734551646,-0.045905605840185736,0.05475712816790875,0.023101560743210892,-0.10251367877409276
186,1.86,-0.004973161126288142,-0.01851559543526073,-0.062251253116871484,0.057265200613697685,0.024036881798678147,-0.09965405958004234
187,1.87,-0.005266340682396094,-0.022169023660669453,-0.07665368547376324,0.05975462204352665,0.02266627908771829,-0.09665886530977363
188,1.88,-0.005361995246193029,-0.025734163754798957,-0.08940929205624507,0.06223542692212265,0.02023036656653773,-0.09360103693996552
189,1.89,-0.004268473538148718,-0.029996635630139795,-0.10051731558348714,0.06807579337428375,0.01988515522839491,-0.08628971696084071
190,1.9,-0.0029871900269714344,-0.033956921681537966,-0.1099656409903845,0.07551097308485896,0.020532418025069745,-0.0769592273178919
191,1.91,-0.0031263162422137604,-0.035388071764527206,-0.11720536838509948,0.07894916405564928,0.018780562814747024,-0.07326169415033161
192,1.92,-0.003226685574244711,-0.036637870594675825,-0.12272074136654908,0.08012437706335072,0.01567039725277259,-0.07275337596453006
193,1.93,-0.0024560213790184512,-0.0389865458217394,-0.12677021211804992,0.08129959007105217,0.012560231690798158,-0.07224505777872851
194,1.94,-0.0012465630311095403,-0.041681430438084414,-0.12910666362260548,0.08247480307875363,0.009450066128823726,-0.07173673959292698
195,1.95,8.954624006230513e-05,-0.044133897233065426,-0.1295789239973294,0.08365001608645507,0.006339900566849294,-0.07122842140712543
196,1.96,0.002678318725719362,-0.05320903751657444,-0.1275430299608246,0.07913382967319323,0.003665466136297061,-0.05904119176236535
197,1.97,0.004925952262597189,-0.060663846541269245,-0.12362806882772824,0.07053672224654836,0.0013034652917371212,-0.03847979758247292
198,1.98,0.004547844766946699,-0.054485271611990266,-0.11890596912642704,0.06322073794136016,-0.0011994189008864614,-0.02240258078767053
199,1.99,0.0028664824062314205,-0.04178523977931235,-0.11286283268279149,0.057199788008092826,-0.003844716242658633,-0.010858233430802505
200,2.0,0.0014163718660255295,-0.03198727791686698,-0.10483047254343694,0.051453325045782004,-0.0061398681979885706,0.0018378465584486478
201,2.01,0.0002513759944541801,-0.02429609554486364,-0.09508037905219023,0.04598488511846576,-0.00808036403726027,0.015700496315443728
202,2.02,-0.0004488361866848,-0.017709765430201873,-0.08400451740846039,0.03914242007648717,-0.010056336276929994,0.027947313772531825
203,2.03,-0.000795143809549953,-0.012152140468483778,-0.07176912038019981,0.03133002737765549,-0.012057351393578056,0.039053511294953394
204,2.04,-0.0013368700290686405,-0.006936272812740601,-0.05851562112172392,0.024185859178015943,-0.01440580887679295,0.04726611634386338
205,2.05,-0.0016457134826428927,-0.002362248947644886,-0.044660139394088055,0.01743145333667656,-0.016956922737213706,0.05379094516218173
206,2.06,-0.0011802489292089095,0.0023227368877849833,-0.030425902518971835,0.00922700120175902,-0.015520151052568529,0.06261704649463316
207,2.07,-0.0006147427750322948,0.006440259436285116,-0.016287386963200083,0.0003597492383474177,-0.01226056180200876,0.07249503357338148
208,2.08,-0.0006170155536333512,0.010542263074631016,-0.0021996851948433236,-0.0053966151175842796,-0.012509557163383736,0.07576122630868068
209,2.09,-0.0007383449959321199,0.014238971882592731,0.011171312019631889,-0.009633881060040523,-0.014471853032536341,0.07579876935788718
210,2.1,-0.0005237729838480896,0.018296735444293038,0.023549769885858177,-0.014787291771282724,-0.013861122605099422,0.07827742252448668
211,2.11,-0.0003890169856660894,0.021956692199711147,0.03481013525386193,-0.020368272540353748,-0.01204954593598637,0.0818953558896113
212,2.12,-0.0008718333575818715,0.025449110129091825,0.04513514259494461,-0.026004092024743325,-0.012673249432527851,0.08141537235920629
213,2.13,-0.0014563089212314357,0.028574912317862113,0.05421626261497604,-0.031672660583813635,-0.014751275327948475,0.07848815815121217
214,2.14,-0.0011457790993092748,0.031695560697659164,0.06167371942030652,-0.0375089158901127,-0.013168414426417464,0.07361205991738884
215,2.15,-0.000517747513324777,0.03466639493757952,0.06772128886856865,-0.043522732024288524,-0.007709098759244652,0.06667231940544326
216,2.16,-0.0012821273174873403,0.03705440853378374,0.07247150791760235,-0.04749362230228743,-0.007526915264382538,0.061654739796905424
217,2.17,-0.0026898967333952653,0.0389616897531774,0.07600061381060631,-0.04910837328535017,-0.013430933301582465,0.058854019318137586
218,2.18,-0.0028307225547875778,0.04025347322018447,0.07814655473229871,-0.05228983814871109,-0.014556710328348663,0.059125355902653824
219,2.19,-0.002609408846390714,0.04083676613130212,0.07937423843812949,-0.056325346054360625,-0.013077784900725156,0.06107132433501713
220,2.2,-0.0031840406250548104,0.04071425860221828,0.079723600399714,-0.05759876620464385,-0.014714300403036118,0.060871435693926425
221,2.21,-0.003612503357200052,0.039965007308995874,0.0791836235484058,-0.05745878241661793,-0.017945036245154814,0.059573478089322215
222,2.22,-0.0035312175398020053,0.03902881146361685,0.07751416655920183,-0.05660049878018514,-0.019065606471225408,0.0575589588448709
223,2.23,-0.00306821800382256,0.03763417827888732,0.07473306467770273,-0.055018145818651484,-0.018059061959833853,0.05482212244539299
224,2.24,-0.0024452153215874053,0.034941747422459694,0.07145403445304671,-0.054207581447420834,-0.020615199831889662,0.050849340356193234
225,2.25,-0.001572395406153611,0.031505774502980956,0.06711930177391877,-0.05381497504100203,-0.025100689208963297,0.04620723851857467
226,2.26,-0.00037438089231716255,0.027687644689662172,0.06181226564633096,-0.051685494217096624,-0.024423395380797616,0.042275967862176224
227,2.27,0.00090053326762075,0.023482142007794887,0.05540452565020525,-0.04819850972857092,-0.01971098131009054,0.038900267558888896
228,2.28,0.002163966788134121,0.01860869673625194,0.048151044876497455,-0.04270689894385797,-0.01538207839153944,0.03287255558264543
229,2.29,0.0032539582138405468,0.013402000855835206,0.040029069538851665,-0.035636385145022535,-0.011355240209563112,0.02475604070489234
230,2.3,0.004550212352245151,0.0077090913121381915,0.031073307149212186,-0.030317833743118094,-0.009114511576713762,0.020441800687549798
231,2.31,0.005396961520532913,0.002157844012766117,0.021582024450386546,-0.025826010549126616,-0.00771662474758845,0.017921804591678574
232,2.32,0.005883909232321814,-0.0034508122455591175,0.011741793171048131,-0.022007314164659727,-0.004655817638048486,0.012559274566162263
233,2.33,0.005847964216193577,-0.00871677838997164,0.0020768431928899892,-0.01855170834986251,-0.0006980165841469254,0.005663456534261036
234,2.34,0.005263256727045767,-0.013433068741850783,-0.007050471682939146,-0.015096102535065287,0.0032597844697546344,-0.0012323614976401907
235,2.35,0.00468648647859151,-0.01783439772734669,-0.01567677046152132,-0.011067699647082721,0.0067733486108003714,-0.007747190694738713
236,2.36,0.004488707205010755,-0.02204234709921929,-0.023808977878515103,-0.005645746172878193,0.009206134515866287,-0.013335117086397216
237,2.37,0.0032586523184062344,-0.026673999701254884,-0.03091409330000544,0.002616586727959197,0.010368861897495793,-0.019196916408487644
238,2.38,0.0016498686422217429,-0.031198238224125926,-0.03688347072061016,0.0138163665378693,0.010218127616564123,-0.025341948028852257
239,2.39,0.0011681396273203102,-0.03508041377700688,-0.0416690286794615,0.0217335913223789,0.011926226307890109,-0.029100380134924383
240,2.4,0.0009582801683179281,-0.03797396589997405,-0.04514866859470299,0.02758719030916115,0.014802907291221728,-0.0313584418623045
241,2.41,5.396926472440197e-05,-0.04035909581516739,-0.047181248066750114,0.03405481644535939,0.014862938491540082,-0.03532700335952793
242,2.42,-0.0010218059983918466,-0.04201043882946211,-0.04814190845676933,0.04114065936032946,0.012087101347211122,-0.04101773570670197
243,2.43,-0.001108018396711133,-0.04261844892296776,-0.04838354666069426,0.04740157994806677,0.011238057020219886,-0.042765854884859816
244,2.44,-0.0006753679886801333,-0.042314350166414626,-0.048018625754839936,0.052792841254095266,0.012420298794004572,-0.040357546211047424
245,2.45,-0.0010360622972049641,-0.040822593839096345,-0.0467029798269283,0.0565966113096585,0.012388072838304422,-0.03672460550023174
246,2.46,-0.001408004732356972,-0.038380275225581476,-0.045045141952250546,0.0596505768994543,0.011782229026864086,-0.0325132461241177
247,2.47,-0.001042601432991833,-0.03609565067343147,-0.043077290872483395,0.06326607486412125,0.010625322323277855,-0.025307264525988686
248,2.48,-0.0005096817019378769,-0.03327598815141848,-0.040939204830379224,0.06723295278503583,0.009123586962258769,-0.01622739235193127
249,2.49,-0.00021841195632605888,-0.029425274393934074,-0.03872517254772902,0.0711998307059504,0.007621851601239677,-0.007147520177873851
250,2.5,-0.0006441915931617661,-0.025578956241317164,-0.03610212160621375,0.07278536570951175,0.0047616022978633895,0.003387215684419123
251,2.51,-0.001020319716336266,-0.021389045065674274,-0.03319529330998373,0.07302090092069076,0.001131202031865927,0.014746723847563913
252,2.52,-0.0007545590627274757,-0.016594548464269686,-0.02990969348371971,0.0688408542731357,-0.0004660807862305905,0.028130657574107987
253,2.53,-0.00027032915012349494,-0.01164754270772247,-0.026382074096648035,0.06235351820122385,-0.0010009916370317302,0.042572421467154266
254,2.54,0.00017016756472632314,-0.006821563359655505,-0.02268740871862967,0.055866182129312006,-0.0015359024878328698,0.057014185360200524
255,2.55,0.0005138428575367615,-0.0022161947013694255,-0.01876511454088669,0.04937884605740015,-0.002070813338634009,0.07145594925324678
256,2.56,0.0007387599679796058,0.00315945791746054,-0.01448954569392763,0.042629473614999136,-0.0013382566074287476,0.08898966279500221
257,2.57,0.0008166772333546382,0.007894408500305754,-0.01004482519458665,0.035759099433908564,-2.0415547681134575e-05,0.10795116013156428
258,2.58,0.0005850883946765346,0.011714349563183965,-0.005433802985427453,0.026998125986936447,4.8864395123095726e-05,0.126000135696956
259,2.59,0.00018379435901234083,0.014827235471620789,-0.000776405140846683,0.01634806514874562,-0.0011294183295023068,0.14313731921670414
260,2.6,6.706536157546385e-05,0.01833661008825553,0.003563907403732563,0.0053757915212805365,-0.0006090280902130247,0.15840468004832886
261,2.61,-9.815083154866757e-05,0.021009792817531032,0.007775016928502479,-0.0057468606769488,0.0007041426376618437,0.17279938382603624
262,2.62,-0.000971184595848502,0.023536451514579726,0.011693562056391962,-0.015359941436499273,0.001176575786044634,0.18191104937050231
263,2.63,-0.0018096828083903485,0.025106619808163304,0.015488986850748692,-0.024224108537961902,0.0012319105182700741,0.1884017462163705
264,2.64,-0.002396214442337014,0.026527694218115908,0.01854856728977507,-0.029976871374640817,0.001230356042346942,0.18985366115644764
265,2.65,-0.002716416775816647,0.027138751412260687,0.02152212778611793,-0.034108144857631105,0.0011991541026092364,0.18867964564181824
266,2.66,-0.0035000921893693186,0.027305618018689158,0.024530133120472978,-0.03741696340536516,-0.001743625035965225,0.18547988343736832
267,2.67,-0.003962771327642042,0.0269319475894607,0.02739648575691538,-0.04030076997609056,-0.00619099139074427,0.18123329596790724
268,2.68,-0.0035059959449210776,0.02686358633876068,0.030176823573870856,-0.04418713311497398,-0.007729902397145022,0.17469120346441208
269,2.69,-0.002785458117675391,0.026487554243074224,0.03234949566724404,-0.04856684623323447,-0.007837586047689072,0.1670195114977351
270,2.7,-0.00237966325628704,0.026236069507682973,0.03426006536088136,-0.05453709242030445,-0.007142102397124166,0.15852847763359704
271,2.71,-0.002055775522160596,0.02566931790971272,0.0351285412130666,-0.061313630536770934,-0.006039467631289438,0.14962209323554418
272,2.72,-0.0012600774615085719,0.02546821978593762,0.03502015758067328,-0.06377146629680598,-0.004818052811881542,0.1410261914123634
273,2.73,-0.0005998707148712951,0.024927222660564113,0.03378249803646872,-0.06369618407941324,-0.003526968016579625,0.13261240192922738
274,2.74,-0.0004315718209666993,0.023587213272150562,0.03139369027870982,-0.06362090186202053,-0.0022358832212777077,0.12419861244609134
275,2.75,-0.0005752594722171138,0.02186522892042087,0.028230602403254187,-0.0635456196446278,-0.0009447984259757913,0.11578482296295535
276,2.76,-0.0008860421851835376,0.01999956973587343,0.02458592245748744,-0.06347033742723507,0.00034628636932612563,0.10737103347981934
277,2.77,-0.000838178740305075,0.017928046074443836,0.020512739258077416,-0.05927421238510885,0.004349961213585096,0.09872654606728036
278,2.78,-0.000828494020851412,0.01588205012865577,0.016380205972326214,-0.05246002121475864,0.010077006841196178,0.08993549095960968
279,2.79,-0.0009369529727912848,0.012910094366567613,0.011984765659202928,-0.04278347238103628,0.012128079572707728,0.08310231157575264
280,2.8,-0.0012074855968877674,0.010320729241036802,0.00797066030499693,-0.03178332382055423,0.012479323948345231,0.07717448507851432
281,2.81,-0.0011970421238736133,0.008027368197506988,0.004208473773057815,-0.02306076578342216,0.015232830423384575,0.0705087621954337
282,2.82,-0.001206864985931246,0.006152036649415632,0.0009799196236564287,-0.01568389199759804,0.01940568170230213,0.06340706298766037
283,2.83,-0.0012764701175278761,0.0039044469186339534,-0.0017502864527882676,-0.00766031652208141,0.020089236802120488,0.05806802127888892
284,2.84,-0.0013556406095926554,0.0018101653922594062,-0.0040027495454728595,0.0007456815312355709,0.018709420705004937,0.05377131490848334
285,2.85,-0.001308136661314371,1.0512899782951987e-05,-0.005950217443193278,0.005802788104542973,0.018274653177756887,0.04740320133578209
286,2.86,-0.0011344812182002817,-0.0017933774201024499,-0.007606172377243593,0.009029554051442418,0.01835640307177573,0.03990295768994245
287,2.87,-0.0012412607505509748,-0.004329351550523299,-0.008929913784773168,0.01364142322161786,0.015622572705147034,0.03409516461665373
288,2.88,-0.0010554953108534212,-0.007129076807825409,-0.010134184987176767,0.01897737635182169,0.011416854561024349,0.029172126045507143
289,2.89,-0.0001346205369204493,-0.010979142450556301,-0.011110589794946179,0.028470307577450338,0.009196972339124736,0.027652769551468902
290,2.9,0.0010972029476076783,-0.014711815178281335,-0.01214372431722608,0.04005359779125021,0.007975678484486678,0.027844973055928486
291,2.91,0.002112289267680239,-0.018630373060895995,-0.013070362964188648,0.049185163223952236,0.00736348527011486,0.028478237538394
292,2.92,0.0031806456131515705,-0.022014096707651795,-0.014110467577140184,0.05703448331728628,0.007069850020816791,0.029342175703234226
293,2.93,0.00429427227841436,-0.02552473801633019,-0.015165815188270057,0.06538588075628639,0.004426611147334628,0.03242206292028358
294,2.94,0.005381511915390745,-0.0287774083714481,-0.016166625501362684,0.07424237706961254,-0.000580371392202351,0.037731234890959565
295,2.95,0.006544583803930273,-0.03095003338143336,-0.017034539823576896,0.0790533327865375,-0.0016018256890888815,0.04558974768606431
296,2.96,0.007563103045562921,-0.03215351027400222,-0.017778001616838505,0.08146685952445168,-0.00026141494522014707,0.054959026082013036
297,2.97,0.008366081023383154,-0.03270692070039464,-0.018473083667866468,0.0818780121518526,-0.00044077565819023096,0.06533938111213332
298,2.98,0.00882498199182083,-0.03271064352970676,-0.018861031134529953,0.08110659517970913,-0.0015176886885203485,0.07631686156657028
299,2.99,0.0087800908067879,-0.03223357162653996,-0.018986888643603907,0.07941918897228117,-0.0015768643728743801,0.08706267744281619
300,3.0,0.008384881429710608,-0.031434920453411855,-0.018587691800692016,0.07722763365085943,-0.0010758900451020388,0.09768098800858488
301,3.01,0.007583119478292155,-0.030255299197450576,-0.01767851327747606,0.0747888846923358,-0.002724743939381174,0.10946589929135672
302,3.02,0.006599933128660621,-0.028878346613644267,-0.016210906487882277,0.07222805294859276,-0.005435344487694097,0.12182696563394516
303,3.03,0.0055924138443527085,-0.02774185854808306,-0.014237195132829315,0.07297454373504078,-0.006578318471538419,0.13569542123590567
304,3.04,0.004479345127649104,-0.026242259142332545,-0.011900277373885042,0.07540665059363931,-0.006922333022767101,0.15033213561498573
305,3.05,0.003024466015075389,-0.023682513279873404,-0.00921812148388075,0.07180541739613147,-0.006421468416352846,0.1638606726742826
306,3.06,0.001524686430501413,-0.02064233467029771,-0.006449168981539686,0.06512647010778592,-0.005489615921911131,0.1768239087691839
307,3.07,-2.3875338704348447e-05,-0.016949053773782675,-0.0035579149434710553,0.058128266924969724,-0.0056752418551032436,0.18797677664809453
308,3.08,-0.0014596411707030882,-0.013099550487869255,-0.0008261563745006074,0.05095133820709581,-0.0064864535123287095,0.19811616589228506
309,3.09,-0.0027624566914192837,-0.008869078741143323,0.0017518859690946946,0.042450972103922506,-0.006754371691467998,0.20675153418728465
310,3.1,-0.003920733238312756,-0.004595458762430667,0.004043281841292603,0.032981980023909015,-0.006624652489521008,0.21428610710104395
311,3.11,-0.005113708671072716,0.0005632819420313389,0.006116107346133095,0.0238894256467776,-0.00682370385263529,0.2190279764799798
312,3.12,-0.006113226432363976,0.005300484400389249,0.007806731979448441,0.014991919376513743,-0.007193104986290656,0.2223228294380332
313,3.13,-0.0066932724512632925,0.00964643415740549,0.009088655752735972,0.009684235042167009,-0.0076840570502060045,0.2252715963168689
314,3.14,-0.007102340259803033,0.01334104816427527,0.010050242171438802,0.006202058287542197,-0.008236820576771288,0.2280443704105118
315,3.15,-0.007469314483665392,0.016352275765664524,0.010759004989494643,0.002719881532917386,-0.008789584103336568,0.2308171445041547
316,3.16,-0.00792861077738932,0.01987230383269041,0.011332091642675866,-0.0027008254956733084,-0.008720224195448635,0.2307939186702687
317,3.17,-0.0083426089521294,0.02353895622940832,0.01176845128083332,-0.010098434029667706,-0.008016426553657594,0.2279193489393733
318,3.18,-0.008650229851664831,0.026591975181480362,0.011822517766428174,-0.015823985162419826,-0.007880503870399331,0.22079809634259676
319,3.19,-0.008767869560765383,0.029209176033453133,0.011680679796082975,-0.019872790569552053,-0.008314048424748442,0.2094182534975792
320,3.2,-0.0084203245209929,0.031680304582408114,0.011279794936739886,-0.02558662990293555,-0.009252044326790694,0.20330653237018434
321,3.21,-0.007776439426487859,0.03390700568882719,0.01078150108995874,-0.03311440297879169,-0.010739603397840893,0.20293404789880395
322,3.22,-0.0074513099254626975,0.03562685933483908,0.010441145934700179,-0.037565578430664576,-0.015395651477038372,0.19805347466916645
323,3.23,-0.006938086647418392,0.03660738861536115,0.010319477761511382,-0.040280904104701136,-0.021839395450555767,0.1906293888240068
324,3.24,-0.005976947027416714,0.03704671280954653,0.01027787525998005,-0.042581544041581335,-0.025835707391391318,0.1856963442391748
325,3.25,-0.004756446939222319,0.03688709004758205,0.010207841262287439,-0.04453889907559532,-0.02780598758738751,0.18282543196434534
326,3.26,-0.0034760413846994403,0.03581773169994151,0.010305219034546495,-0.043502358809104635,-0.028434067623332525,0.18006744992731824
327,3.27,-0.002174882644913593,0.034140145830632504,0.010218444985171968,-0.0400221996758381,-0.027966643206086474,0.17740164160781444
328,3.28,-0.0006652502362232292,0.03201976037427501,0.009933155970236288,-0.03701811183300111,-0.026822136430652246,0.17352007799372327
329,3.29,0.0008097791840474116,0.029537941899507217,0.009243956860088227,-0.03444406478658183,-0.025066013196907943,0.16854030832175004
330,3.3,0.0021337383422000136,0.02654883231335917,0.008239349287846245,-0.03207577121552085,-0.022481911180267475,0.1658886497355213
331,3.31,0.003200521526980681,0.023244536399476986,0.006749870666254663,-0.02986874784972642,-0.019248836853237104,0.16506177176127285
332,3.32,0.0045132418533459576,0.019829097606266277,0.004626821988045255,-0.02866458348719033,-0.016123040913859837,0.16226441416684148
333,3.33,0.0053626006456139585,0.016202821232870743,0.0021083330342178096,-0.027938669268136915,-0.013048404613196478,0.15852736100401985
334,3.34,0.005506045455534396,0.012305941783902269,-0.0005834932370487483,-0.027212755049083496,-0.009973768312533115,0.1547903078411982
335,3.35,0.005259590801762458,0.00811233011811096,-0.003214648525284278,-0.02648684083003008,-0.0068991320118697574,0.15105325467837658
336,3.36,0.00485284888241974,0.00346598463943857,-0.006052540380450829,-0.021167489972410008,-0.0055083886601481535,0.14531177047916125
337,3.37,0.004432166260468827,-0.0014754795900281722,-0.008707513412731042,-0.010563217390847665,-0.006055027518499324,0.1372641129369983
338,3.38,0.004226155626551079,-0.007423135961951849,-0.010664646104175106,-0.0051841492156327424,-0.006132408907925926,0.13334598515157808
339,3.39,0.0040892487850775466,-0.012932085802318964,-0.011751088046962831,-0.002192353916045085,-0.005995397607587458,0.13131454228998438
340,3.4,0.003966021313967883,-0.017431741164969185,-0.012004715687400724,0.0007994413835425715,-0.005858386307248989,0.12928309942839067
341,3.41,0.003282239121563103,-0.021200395267065065,-0.012367174567400514,0.006718358126053864,-0.00769697514901955,0.12404913167999768
342,3.42,0.002688897504614959,-0.02453699686006141,-0.012357382262422,0.014945570064746573,-0.011093500142920086,0.11628968866315575
343,3.43,0.003056388158380272,-0.028535876592650222,-0.010950586785372817,0.021334048609099075,-0.013620634561200341,0.1097181694469143
344,3.44,0.0038490736862775202,-0.03222342939899907,-0.009060515626294417,0.02640680284605872,-0.015525667745836363,0.10399668114031507
345,3.45,0.004762060783753839,-0.034668813556439665,-0.007192282526751897,0.02859175504479792,-0.01592090013994927,0.09973959121474124
346,3.46,0.005537009707197133,-0.036253092404168775,-0.005642236628483907,0.029190071664434287,-0.015486607649774137,0.09628708087688292
347,3.47,0.00595197064334591,-0.03797360874456658,-0.0044196973073410886,0.03440344836021511,-0.016194278055187198,0.09770964083229676
348,3.48,0.006107638298465464,-0.038978084351533784,-0.0035720657812301176,0.04204873409902152,-0.01750370658438631,0.10170112239132682
349,3.49,0.006094644486205568,-0.0397957230275662,-0.0027751927485603735,0.05048945052314894,-0.017707097264346425,0.10574411785059484
350,3.5,0.005871318185463122,-0.03960651411833709,-0.002257587500505271,0.05940762902131048,-0.017246582043763174,0.10981803483967442
351,3.51,0.0054100213386327044,-0.038478077969924696,-0.0017360708268984925,0.06416107940553703,-0.016194792324945226,0.11479135041273507
352,3.52,0.004753348548163863,-0.03619617442826502,-0.0015372138217396255,0.06689646676068342,-0.014856494298194071,0.12020047907637088
353,3.53,0.004130150387019923,-0.03336641255863376,-0.0015242560649462605,0.06791293035239014,-0.013303375870654551,0.13002700858476351
354,3.54,0.003358385683598587,-0.029857408411264934,-0.0016662632539553332,0.0677329110531273,-0.011600728453149715,0.14292833678156902
355,3.55,0.0024986816300841368,-0.025088338198291895,-0.002091094077434252,0.06324207886912242,-0.009883368764099131,0.1550929578489034
356,3.56,0.0014141657613098019,-0.020004668182069883,-0.002451112923597386,0.05637862874080219,-0.008157911623267549,0.1668521044496296
357,3.57,0.0003502085082689394,-0.014930653274790446,-0.002887578789349537,0.051738750981673874,-0.005167380025916757,0.17772065928234804
358,3.58,-0.0008714808736002,-0.010179270487020046,-0.0029697818785673446,0.04846518197894602,-0.0013995036785640045,0.18804197609940013
359,3.59,-0.002487903477272559,-0.005571430783833875,-0.0026438890473025503,0.04389747151739156,-0.0012005321569866644,0.1978261888068048
360,3.6,-0.0041179212502686635,-0.0014363238719226536,-0.0018353794937109001,0.03864388192282372,-0.002893036510024689,0.20732574291019806
361,3.61,-0.005597827772120394,0.00218647609130516,-0.0008456671595259099,0.03585920615296047,-0.00466490440871646,0.21626660146606128
362,3.62,-0.0068022214522665565,0.005430032931765922,0.00042757208758767906,0.03464440900842467,-0.006487236253417737,0.22485220898425906
363,3.63,-0.008326691904668115,0.009128522765547847,0.0016023472119402653,0.03169032054833841,-0.009370436988013443,0.22580521444097604
364,3.64,-0.009297188998088839,0.012427156328808675,0.0030164340333063604,0.02793158408019509,-0.012744427293873756,0.2232271506684312
365,3.65,-0.009612846000897785,0.015298423672403225,0.004757758216930222,0.02322415025451262,-0.015708270725206495,0.22215009332347452
366,3.66,-0.00931395191859198,0.017729765775009287,0.006476630643003958,0.017970224885598386,-0.01843585145734329,0.22193768191907506
367,3.67,-0.00861209424423624,0.020440798046131956,0.008373659822998987,0.010349620745190129,-0.019065660978386943,0.21867583150910072
368,3.68,-0.007588268710961334,0.022761431699914587,0.009799020015783122,0.0014287000687239464,-0.01854289896014701,0.2137385378524936
369,3.69,-0.005803199188274807,0.025149224237723738,0.010945189800144594,-0.006652896296190938,-0.015629602957742756,0.21134804540214347
370,3.7,-0.0040694452177167835,0.02697086751111069,0.01133950892177435,-0.014227019296868775,-0.01127093916773723,0.21049740323182808
371,3.71,-0.0025773298396682427,0.02829823504697705,0.011260240274426469,-0.02051684231736505,-0.007267335540191656,0.2094711856116893
372,3.72,-0.0015994338072146158,0.02894307366326611,0.010366747960086922,-0.026155612725846447,-0.003443723230686364,0.2083559631975171
373,3.73,-0.0006528037711513251,0.02923142101795847,0.008689877680557416,-0.027650292685531076,0.001960761357371391,0.21172794679112608
374,3.74,-0.0001994769649515571,0.029076057459637192,0.006562731598375457,-0.026946714687528274,0.008203829250825969,0.21748019607542524
375,3.75,-6.0268107970375736e-05,0.02857918003838274,0.004213719640293733,-0.026601480817894117,0.014774846669602491,0.21914216707776804
376,3.76,-0.0002593153523910755,0.027838693323383422,0.001923005388826103,-0.026515524550964464,0.021583149870402718,0.21784464338385912
377,3.77,-0.0003059249078035636,0.026723334001581455,-0.00039146122361680765,-0.026195750521242917,0.02728566067850542,0.21974660630855924
378,3.78,-0.00045909478331532857,0.02545480756937552,-0.0023713714192899614,-0.025690314952569647,0.032110123921111296,0.22418910166489986
379,3.79,-0.0013261293354144723,0.024451058928446352,-0.00428021456201158,-0.025951452372832955,0.035306014535447065,0.22340975214196526
380,3.8,-0.002261856448563468,0.023319930124436384,-0.0054964165842285384,-0.02663487069519036,0.0376047758111328,0.2197538528344176
381,3.81,-0.0026372666754309,0.022213232978667556,-0.006243697752029202,-0.027690844959560902,0.037951753428079854,0.21484579387106525
382,3.82,-0.002600022545219872,0.02076732143483644,-0.006383265200827217,-0.029055103819223008,0.03668365860226946,0.2089015910989622
383,3.83,-0.0027184109539884686,0.018538213805136365,-0.005935698800652703,-0.029372857885062307,0.03438636733387091,0.20343019371329493
384,3.84,-0.0025012148881252824,0.01572466914036609,-0.004914917207793449,-0.029157009853855012,0.031564299319795125,0.19819987496117647
385,3.85,-0.0016345927271808397,0.012228291919455573,-0.003377993911182274,-0.025081915714510187,0.03222861115390529,0.18985278087895727
386,3.86,-0.0003968942719867648,0.008501576632635236,-0.0017715815555204044,-0.019034629018846068,0.034674569504571026,0.17991291947029492
387,3.87,0.0009093802892292382,0.004415091700839214,0.00012171221410876495,-0.016296759414097244,0.03446470953931483,0.169671497932782
388,3.88,0.002334296030829647,0.00046352714013810255,0.0015152969189041463,-0.01506877822435317,0.03304315905654248,0.15929249260559547
389,3.89,0.004124446812344433,-0.0035808965307808915,0.00258076338806838,-0.01131024252418993,0.034008832396865606,0.15260921781774014
390,3.9,0.005806771834515681,-0.007316919084082094,0.002905823206591898,-0.006206392885343136,0.03624362105193285,0.14789069731109472
391,3.91,0.0073456729213649645,-0.010623464652079247,0.0027168387088531806,-0.004867156503106175,0.039871058637221166,0.14343138879366465
392,3.92,0.00847012160658386,-0.013608296314407162,0.0018820377443964746,-0.005365409924690675,0.044178241533688815,0.13909860041382774
393,3.93,0.009325185972842723,-0.0169503794893319,0.0006125809958042569,-0.0023861262698476647,0.0471891878312572,0.13754296444458214
394,3.94,0.00970984066648482,-0.019962370197404284,-0.0009360224913739644,0.002424026775408792,0.04951768564315875,0.13744945619081966
395,3.95,0.009554919028391349,-0.022293326276225524,-0.002606843709930339,0.00723417982066525,0.0518461834550603,0.13735594793705708
396,3.96,0.009336235844127606,-0.024335522199110685,-0.004199852060705561,0.01075093974897781,0.052779828685832066,0.13903052634205149
397,3.97,0.009202247718576168,-0.02623756230401924,-0.005565222400024581,0.011821881701595066,0.05107579518484039,0.14404857246457387
398,3.98,0.008014407582136996,-0.027707564364039358,-0.00703414234814663,0.013462346310732523,0.04979088964044635,0.144902435658323
399,3.99,0.006423108575911,-0.02872361684503786,-0.007969129434615103,0.015444670334913552,0.04875756818393802,0.1432567228933862
400,4.0,0.0046761471127431,-0.029646330758217824,-0.008437093664482767,0.017046342465239915,0.04618604705643177,0.1474522290717986
401,4.01,0.0030571624016378744,-0.030094464931485234,-0.00815702784423792,0.01842570134788021,0.042716166640636384,0.1550591995689387
402,4.02,0.001589009838551499,-0.02999276897346209,-0.00738104235682398,0.020563646740656537,0.04030489439868438,0.15948598322032306
403,4.03,0.00037759113899067556,-0.02931884215544181,-0.006024912647561144,0.02314349068443947,0.0385102919918198,0.1620602161865947
404,4.04,-0.0011380239718782863,-0.028236278404343524,-0.004208293231508815,0.0253787665258357,0.032430596525764036,0.16642348629332435
405,4.05,-0.00229274074323493,-0.026668003147415367,-0.002141569961511448,0.027429645006943316,0.024057711866533524,0.1717441686615887
406,4.06,-0.0031510781825866687,-0.024751267068387754,0.00016422801339897007,0.028749800333829675,0.02045553220069044,0.17145909923477765
407,4.07,-0.003529521395589075,-0.022409592829760634,0.0022769880654331174,0.029699694704313138,0.01927069182861892,0.16833356826105705
408,4.08,-0.004148804271920131,-0.01996406995265587,0.004442722892575355,0.032649177594707535,0.014843159063688197,0.16656371549359172
409,4.09,-0.004376081954792503,-0.01712387709833083,0.006038833699830571,0.03666122896352321,0.008692480417712846,0.16551426140540754
410,4.1,-0.00369835082069367,-0.01374270014980295,0.007195555720791251,0.036790113672101055,0.008286241078261656,0.16297864899103467
411,4.11,-0.002861184379337954,-0.010063878947516867,0.00758496582108169,0.03512668029926542,0.010531410585639358,0.15975708393209825
412,4.12,-0.002710465582390014,-0.006299370018321248,0.0074881514165329585,0.033883997236420105,0.009213450567817985,0.15704147564402093
413,4.13,-0.00272903519675106,-0.00249146934244371,0.006823468206818216,0.03285279573434377,0.006104556175572731,0.15458017620621015
414,4.14,-0.0027483236191520894,0.0015064135910475259,0.0057962565721292325,0.030035064149252506,0.003018326795971977,0.1521547819006924
415,4.15,-0.00285255899491822,0.005455990296292494,0.004581158058837511,0.02543008772616209,-4.5228503165653695e-05,0.1497653070923935
416,4.16,-0.0031307931629220654,0.009236311998623622,0.003049189892483412,0.023349864152819682,-0.002129313857026441,0.14432567642195446
417,4.17,-0.003474973512219819,0.012608772438261442,0.0015691226992743058,0.022618990614105515,-0.003689923099271571,0.13725589493552126
418,4.18,-0.0038097728619648826,0.01540065392444508,9.83940374356966e-05,0.021775763616274976,-0.003633420442939409,0.13287004492105325
419,4.19,-0.004176851966948193,0.01780368222995512,-0.0009899857807563026,0.02087644411186909,-0.0027695740651286303,0.12982414869993514
420,4.2,-0.004985033406718613,0.019830283427316797,-0.0018312742379637534,0.021690719947798247,-0.0054856171364705926,0.12607250891123867
421,4.21,-0.005676927764916885,0.021619998983879757,-0.002173216819967461,0.023342912266404628,-0.009952160051621013,0.12197577354840168
422,4.22,-0.006205499364118554,0.023288738698509337,-0.0022304410779354663,0.023448217866200643,-0.013173582787643108,0.11785348946379827
423,4.23,-0.006405293172985812,0.024698421874005123,-0.001861867043958347,0.02281987543792457,-0.015804477495321434,0.11371908828676935
424,4.24,-0.006212382764052082,0.025439881773754534,-0.0011588822131741562,0.021057935772931025,-0.01739009941164843,0.11092686933570066
425,4.25,-0.005776958672974194,0.02575514240503763,-0.0002948567014354809,0.01814687639596893,-0.01791613549799907,0.10949521126370644
426,4.26,-0.004997977050740049,0.02651856613318974,0.00118739763354989,0.011808900188469754,-0.01690541374677847,0.11516511396531542
427,4.27,-0.004139687989794208,0.027132202355641632,0.0026155407638292117,0.002723215891621021,-0.014662516792460204,0.12652906089080446
428,4.28,-0.0033971069441357266,0.02743168109686979,0.003482244918194973,-0.004976704147228761,-0.0136792630862939,0.13774569430955194
429,4.29,-0.0027491097418469415,0.027086369233407646,0.003807711349143533,-0.011597931289535521,-0.013676528408610816,0.1488476574065837
430,4.3,-0.002126317066643339,0.02591156490200748,0.0036807783107336324,-0.01660855739037121,-0.012843281131006077,0.15953456974085375
431,4.31,-0.001516607087156457,0.024007984438217316,0.0031942589480382856,-0.0203351025746063,-0.011347892607309952,0.16989057532034108
432,4.32,-0.0008528424645576523,0.021591225024348785,0.0020712209628611818,-0.021744955166573498,-0.01065972271869892,0.1743414670778519
433,4.33,-0.00018796691077661376,0.018654154392468664,0.0008940040535884274,-0.022054549624749748,-0.010354922152355436,0.17598786525029422
434,4.34,0.00046838666714610995,0.015283845539742158,-4.849314476947867e-05,-0.022364144082926005,-0.010050121586011951,0.17763426342273655
435,4.35,0.0011686255073632616,0.01170192503057,-0.0007893690258395904,-0.022673738541102245,-0.00974532101966847,0.17928066159517886
436,4.36,0.0019351949705523857,0.008068822715080266,-0.0013591337435951314,-0.022983332999278492,-0.009440520453324988,0.1809270597676212
437,4.37,0.001948396978988221,0.007226857732620705,0.0004648322446750503,-0.024293733553637252,-0.0041992364321931505,0.1615659365837103
438,4.38,0.0021753969613444828,0.005979364310251505,0.0019575833568387397,-0.026207698156383092,0.004019131711560328,0.1295356413346181
439,4.39,0.003861598966065306,0.0013713165992464338,0.00019883486392820952,-0.027764392327235158,0.009725753143929296,0.10426645496694063
440,4.4,0.006108949568221694,-0.004651450858348629,-0.002923737690964122,-0.028957472281284924,0.012876028649699507,0.08587842945435921
441,4.41,0.008423608067529237,-0.009127877701723668,-0.005362357726714973,-0.032996571503880245,0.01830478641587237,0.06718237964347037
442,4.42,0.010396326530340514,-0.012489882998747552,-0.007009622547888778,-0.040093030981982185,0.026181223009389232,0.04815543212651765
443,4.43,0.01124221515423493,-0.016264400992264002,-0.008075040874576793,-0.03652128725168078,0.030761486371382124,0.034422543294342266
444,4.44,0.011049098457365172,-0.019539493737630875,-0.008037888903840138,-0.027817682736294348,0.03375614981394525,0.023236322502474496
445,4.45,0.010208577384680657,-0.022755335046648503,-0.007539790601659785,-0.01821023426268452,0.033571829843609576,0.020899967558897642
446,4.46,0.008893575527349533,-0.024789044287423692,-0.006182667519480163,-0.008179009362128589,0.03189701118732017,0.0227129621728626
447,4.47,0.0073815659533089,-0.02630607667561241,-0.004189143327557731,0.0004773303025928039,0.030939646804263782,0.021349642118950483
448,4.48,0.00582066905150187,-0.0264914840663399,-0.0018690034168071324,0.008333448043151045,0.03039986101181397,0.018137617482991274
449,4.49,0.004253324473346193,-0.025630121074317606,0.0009206403946145796,0.013569547158209787,0.02905339572843927,0.018388322108543263
450,4.5,0.0028671819517622865,-0.023597119142086065,0.003373726684746494,0.017387411776851415,0.027270269166993016,0.020513426420659262
451,4.51,0.0020512633464852166,-0.020814630974668923,0.005619564876723371,0.02031009012220925,0.02784175161050987,0.02429675243597014
452,4.52,0.001457951108155428,-0.017565458522860608,0.007054786041139098,0.022645858261904198,0.029956984328803855,0.02916725691893858
453,4.53,0.0007867016300877726,-0.014709887453239548,0.007826111339561213,0.027886543851943148,0.030339150543738924,0.035998588020617325
454,4.54,0.00014473315361023952,-0.011799402099559259,0.007580813096559224,0.03461438554825135,0.029834083135998862,0.04383375325156022
455,4.55,5.982342000703054e-05,-0.00961664712296407,0.0067445978246277105,0.041235072300559325,0.031948673079349704,0.053963260628832194
456,4.56,0.00015915797880607465,-0.007839851476147193,0.005412098577534035,0.04774881820465928,0.036677686293169885,0.06638252605224078
457,4.57,-0.0007822151690609238,-0.004985557676838167,0.0032811966378020925,0.047000574885211484,0.03908419955159568,0.07529565632691544
458,4.58,-0.001824490855209658,-0.0021827130734216986,0.0008333224723613463,0.04287404353869202,0.040410282427841664,0.08257772739320472
459,4.59,-0.0023904633215974837,8.629781579155317e-05,-0.0018730711071129518,0.037206667478304284,0.04150405816866129,0.08905983307036858
460,4.6,-0.002669288289255246,0.0016820791881980296,-0.004379619672939436,0.02983351852987102,0.042340661197822684,0.0946563470588546
461,4.61,-0.0030753057443827113,0.0027457926582887104,-0.007226904110760935,0.02613405558570357,0.042682266649889535,0.09628732615863253
462,4.62,-0.003527817118415087,0.0032540139619126017,-0.009806186889725467,0.02687596297538784,0.042425435667355516,0.09312409884226304
463,4.63,-0.0038292455169100484,0.0028412984397766586,-0.010021468952336174,0.027617870365072104,0.04216860468482148,0.08996087152589352
464,4.64,-0.004710459275908775,0.0019433132713221743,-0.009142082777946972,0.02695310558677917,0.038978466719834085,0.08993893455280076
465,4.65,-0.005344148995624743,0.0007460069776792401,-0.007289089060394953,0.025567237801789117,0.03428462623426968,0.09152731870712667
466,4.66,-0.0053060368875230465,-0.000196493844549301,-0.004347294903110659,0.02135024247135547,0.031051310048855307,0.08878805736700689
467,4.67,-0.004942027142394907,-0.0010829357217081,-0.0012218972850476552,0.015237162221106468,0.028796147640014938,0.08315045138200121
468,4.68,-0.004592606216062761,-0.001738526588681599,0.0023825143212514817,0.00801067907717067,0.028605330483791307,0.0840884393213595
469,4.69,-0.004264976681374962,-0.0022720013254316097,0.005328229727249008,2.223602805558056e-05,0.029827252886500087,0.0895264505240984
470,4.7,-0.003665404524842361,-0.002066304000143266,0.007463745687279338,-0.006532233042702389,0.03142238442747265,0.09304058714471418
471,4.71,-0.003225134091731302,-0.0018488271490409288,0.008279593459894999,-0.012396899465103736,0.03319704548282328,0.0956292580303276
472,4.72,-0.00358815772073816,-0.0017327892763167423,0.007719965405733123,-0.014352451869544262,0.0350639711683031,0.0975621238430242
473,4.73,-0.004043143528603467,-0.0015328579912305875,0.0063832089448373295,-0.014380006125362338,0.03697640231493218,0.09917154271592024
474,4.74,-0.004235727325445528,-0.0011090455138623202,0.004701518795788015,-0.01440756038118041,0.038888833461561266,0.10078096158881628
475,4.75,-0.0024773667690476623,0.0002666656481006731,0.003612130891619082,-0.015603286035175896,0.043038354039924315,0.10339485241283196
476,4.76,-0.00025158302324769857,0.0021995686421755426,0.0027974779667665,-0.01798128576016382,0.04945197116589737,0.10702534160991237
477,4.77,-0.0015494127364595826,0.0035245700690507732,0.0004247957067183871,-0.018180237684073414,0.05172535565003608,0.1052695753295152
478,4.78,-0.004085268397228111,0.00479109033821124,-0.0020805310615915834,-0.016662907053183032,0.05073777034155375,0.09927143478494817
479,4.79,-0.005546389406727993,0.006451000325613528,-0.0039311065519766365,-0.016275656275553985,0.04984781169628322,0.09385418694872663
480,4.8,-0.006200925197774992,0.008398712078368606,-0.004983737993149071,-0.017021200801374342,0.04905571429971878,0.08901922763833157
481,4.81,-0.007178513357384774,0.010852382898131993,-0.005030295773478339,-0.0202964638205344,0.04634075874421155,0.08286063271210506
482,4.82,-0.00751877089585809,0.01322084203250463,-0.004119090283948919,-0.024800876835715385,0.04269151698071875,0.0760589042845756
483,4.83,-0.007040691734625005,0.015541566870734488,-0.0026181841941142767,-0.02672402673027709,0.038659675486302114,0.06929496583643924
484,4.84,-0.005842399218865516,0.017398161433694104,-0.0007825020803021556,-0.027100400211443557,0.0343985678489506,0.0625536723671588
485,4.85,-0.004066765432598788,0.01861626189329321,0.0012811085589980254,-0.025639246943962562,0.03371801788298783,0.05221625350724031
486,4.86,-0.0019710370478443345,0.019204749423244228,0.0031711595315892277,-0.023186479934524797,0.034969701117674404,0.03993820039109605
487,4.87,-1.4551920844371909e-05,0.0190047647406163,0.005083120849207531,-0.020033032884873087,0.03322521330251686,0.029272555392102363
488,4.88,0.0019698548445527177,0.018364202885504513,0.006378060507713189,-0.016535098751011192,0.030007667644237877,0.019399645648796062
489,4.89,0.004193655059806912,0.017139753989956052,0.007168884855965286,-0.013077116788268818,0.02821372238956905,0.013130475391969595
490,4.9,0.006235525599954817,0.015722360774969267,0.007177596182144082,-0.00964008535428424,0.027166299297768984,0.008751070963419125
491,4.91,0.007152068274298023,0.013685087216311632,0.006571620906879156,-0.0067393700864779756,0.02638477849657314,0.004873534921740487
492,4.92,0.007884715036986886,0.01171678902048499,0.005358513525583135,-0.004093015589215079,0.025729368217104236,0.0012340219672749807
493,4.93,0.008826633434985824,0.01006367896237326,0.003659785972141446,-0.001446661091952182,0.025073957937635324,-0.002405490987190526
494,4.94,0.009730429205809518,0.008445198607146376,0.0017484101003381637,0.0011996934053107155,0.024418547658166416,-0.006045003941656032
495,4.95,0.012622143181636025,0.006526840760612527,0.001000155146119913,0.0089010070390323,0.025495781131633928,-0.02151612215251646
496,4.96,0.013077248982064252,0.0040938664089819,-0.0010156225793995109,0.016927193899080456,0.026483283632851445,-0.031575502429570704
497,4.97,0.011706309612043116,0.001411734277734068,-0.0036482955737814674,0.02443725486339784,0.02709295411488372,-0.03425964330099995
498,4.98,0.009902231101230573,-0.0014898392275747574,-0.006055875472879673,0.03131729541181304,0.0257386562526323,-0.037264636046509016
499,4.99,0.008160087552008095,-0.004170451395985232,-0.007661981960040257,0.03786798312212982,0.023357663807477586,-0.04043735903165812
500,5.0,0.006938645305367749,-0.007200892464631171,-0.00857485266701662,0.04656064568599632,0.021629373049019227,-0.04132230204422625
501,5.01,0.005869309756001705,-0.00981406681089754,-0.008665117436039085,0.05635625818581426,0.02023717273641467,-0.04102921686003588
502,5.02,0.00444192897501262,-0.012589672196782229,-0.008072697458782956,0.0660218375341105,0.016315222042152612,-0.0403498144923404
503,5.03,0.0031046908639620324,-0.014656820303397555,-0.0069824437370046176,0.07562700898014743,0.011218056319973515,-0.039490945501024784
504,5.04,0.0019724189092445066,-0.01667386315974695,-0.005535941854160251,0.08238505928619133,0.009048339685116487,-0.03717382694687717
505,5.05,0.0010384435366172227,-0.0179381008765749,-0.00400308659695498,0.0876685532276852,0.008394782170772951,-0.03410146438720699
506,5.06,0.0001921005026966373,-0.018725229365337225,-0.002244239677811708,0.09072952416640116,0.006203186006971289,-0.028930987933311218
507,5.07,-0.0005352397394203616,-0.018901924234155088,-0.0007209567142824244,0.0925091193174522,0.003124847396209457,-0.022550862652175502
508,5.08,-0.0015005218532960702,-0.018688477152640815,0.0006487804582874287,0.09267111659276207,-0.0006433222705974628,-0.016633445378854514
509,5.09,-0.0023014881582237873,-0.01814427657131259,0.0015446484549097518,0.0919505604675517,-0.0047878603497442844,-0.01096847930608777
510,5.1,-0.0026279364139325957,-0.017845638371377988,0.0019299161482920074,0.09121261285200154,-0.004077923541616561,-0.002169294912574881
511,5.11,-0.002787962424495976,-0.017350026495597096,0.0019108987491204355,0.09046561383437852,-0.0008414750200722706,0.008261093572760116
512,5.12,-0.003328639652258208,-0.013550483832271757,0.0015449156181276012,0.08969964932214711,-0.0013336091310166053,0.014253837809110175
513,5.13,-0.003800579442928429,-0.010475807099738464,0.001067632272123912,0.0889243139910497,-0.0036680296255915813,0.018053949514249542
514,5.14,-0.004005097104143527,-0.009891168172957564,0.000624986107501709,0.0881489786599523,-0.006002450120166556,0.0218540612193889
515,5.15,-0.004081923499301714,-0.010691014789686712,0.0002704178504227151,0.08737364332885493,-0.008336870614741532,0.025654172924528262
516,5.16,-0.004119953934494356,-0.012045672760902156,3.314570027588789e-05,0.08659830799775751,-0.010671291109316508,0.029454284629667624
517,5.17,-0.004509982065327894,-0.020280585021452892,0.0009797738975230138,0.08175543833879241,-0.010878477048386298,0.037227065792129636
518,5.18,-0.0049333130321844495,-0.028048961689743784,0.002048857605186253,0.07365517174915423,-0.00938211318224601,0.04818127340456714
519,5.19,-0.004965474106922124,-0.022662581734885508,0.001503440758783961,0.06411724567755174,-0.00857679018375055,0.05299186708404869
520,5.2,-0.004802397366395246,-0.01117352249463737,0.0002816748981789624,0.053129532849784784,-0.008468337278937496,0.05160702281266225
521,5.21,-0.0046518914642220115,-0.0023868188193681954,-0.0008075163645068642,0.036452191037113384,-0.008493059807584165,0.04812492849094978
522,5.22,-0.004522913946888953,0.00406605846222799,-0.0015507569579900884,0.014018835511892236,-0.008652511617033282,0.04252111409217242
523,5.23,-0.0040747848093034295,0.010057149512745861,-0.0016287618855746248,-0.006459084311900528,-0.007513013660971944,0.03633094604076862
524,5.24,-0.003713412398750906,0.013736584000558758,-0.0011427999499832617,-0.025926062862867468,-0.0057019712873044685,0.02983763884371085
525,5.25,-0.0030372376634308913,0.015535122112421175,-0.0004677297042303798,-0.04076088588257977,-0.003936161303502065,0.03461853060331237
526,5.26,-0.002610810156991901,0.015568257424238263,0.00044695831781905006,-0.05271544871629948,-0.002198476681805187,0.046409684899377024
527,5.27,-0.0029005081299184306,0.014497815834594942,0.0016191560929624924,-0.057733635159149865,-0.00276005221959807,0.061675817071102514
528,5.28,-0.003495386818001703,0.012990929099678514,0.0028229587445373436,-0.05579321323551918,-0.005628257340468824,0.08042806486809033
529,5.29,-0.003982187888211329,0.011033128090563017,0.004179962522576096,-0.0552338389279795,-0.007778509940894269,0.10065999663535592
530,5.3,-0.004280510772398003,0.009296686211654654,0.005367062254854697,-0.056059384591152346,-0.009208796935497629,0.12237576129650915
531,5.31,-0.0045486269830559995,0.008532378499352358,0.0063930727135660444,-0.056865068090537964,-0.008388674255120456,0.1403200455821356
532,5.32,-0.0046127069739407035,0.008627736559311264,0.007019716673037517,-0.057650455719365425,-0.005269002343576354,0.15441049609948215
533,5.33,-0.004168619381250241,0.009694361252889475,0.006788581180576677,-0.061858231914087236,-0.0036203748499244594,0.16896129110653485
534,5.34,-0.0033521125086700193,0.011456512915605191,0.0059805385002457715,-0.07011608366058797,-0.0037125903136908532,0.18405686059703885
535,5.35,-0.002645062094145182,0.013421889874337458,0.004090731425035925,-0.07962600479528778,-0.004713343498975378,0.19869834807541276
536,5.36,-0.001864660263642496,0.015326929216356085,0.0018370807927232506,-0.09038949870348367,-0.006623725305583741,0.21288520831610655
537,5.37,-0.0007607010662545534,0.017224555998612355,-0.000636526396184137,-0.1007568641613026,-0.006826527115157846,0.2165984175165364
538,5.38,0.0006311734846065542,0.018244484490761194,-0.0023648649760924295,-0.11093236868197144,-0.006202279269050967,0.2152388163645272
539,5.39,0.0018110047647325119,0.02051984875580695,-0.0038785353706827863,-0.11037006002656047,-0.0059350960924189795,0.2135550216586761
540,5.4,0.0028489511544207576,0.023046104967921928,-0.005035126178544524,-0.0973987372653155,-0.006080550055915228,0.21149657688984902
541,5.41,0.0048125313478015646,0.0174874369336413,-0.0036246425357114556,-0.08730721009009962,-0.004495548432402458,0.21019547867185212
542,5.42,0.006968769609340246,0.009052598675903094,-0.0011892627215219745,-0.0801012438574414,-0.0011766268463311036,0.20965324321399656
543,5.43,0.008248889849805586,0.006638266925905179,0.00022707957842017616,-0.0704190293497986,0.0017278363631238632,0.20271214504469734
544,5.44,0.008864619540013613,0.007539005449292533,0.000862180945674855,-0.058245664370932586,0.004215346963003868,0.18933367546157875
545,5.45,0.009247359763599281,0.008421809608431939,0.001615327514629508,-0.052056532613360136,0.007353365546740096,0.17520565590851986
546,5.46,0.009325304905400952,0.009081404432728807,0.0021436647702619033,-0.05226007191845187,0.01118629079782222,0.16027692785603134
547,5.47,0.009478988040714623,0.009414980832331069,0.0022822775183632283,-0.056039854883774456,0.016089950281341917,0.1490733637251978
548,5.48,0.009071459256445355,0.00936631899309043,0.0015161842186556672,-0.061484079505734375,0.021491946799184848,0.13960355114992934
549,5.49,0.008726672506390138,0.009142368109898012,-0.0001983642337866293,-0.0609876976895918,0.02662331251886716,0.12882911007485584
550,5.5,0.0076854654726822656,0.008201196821995273,-0.002279091824908599,-0.05776962071035239,0.03163068845029915,0.11745695206388446
551,5.51,0.005567083498987498,0.0043563973287217336,-0.004814627559193742,-0.05346821979836994,0.034846586015849494,0.11148954652452993
552,5.52,0.003149404545465741,0.00041806218873115947,-0.006891214780952492,-0.04867462808273866,0.037248554201671176,0.10797770333557252
553,5.53,0.0008817242840966112,-0.002475895125915782,-0.008114306697358374,-0.04388103636710738,0.03965052238749287,0.10446586014661514
554,5.54,0.00016777019518623352,-0.005011922141278026,-0.008980433019909506,-0.03476654765496772,0.043367289281258166,0.10245833773436283
555,5.55,9.263632977463414e-05,-0.007488931284461707,-0.00930777736128419,-0.02127199541475248,0.048416858570470164,0.10197573493345433
556,5.56,-0.0012061649638244508,-0.009968234858616046,-0.00864195530475951,-0.007777443174537249,0.053466427859682135,0.10149313213254582
557,5.57,-0.0032124828229375952,-0.014186699183880283,-0.00884416829173967,0.00026241970915284654,0.052545942188234086,0.09890523196183122
558,5.58,-0.005180234921736231,-0.017987161065720576,-0.00812032124144273,0.0058113210294479896,0.048899145912027236,0.09535591777009084
559,5.59,-0.006702207326839502,-0.020507291918337632,-0.005915423408925195,0.011360222349743132,0.0452523496358204,0.09180660357835044
560,5.6,-0.007986050385809459,-0.022491021747401318,-0.002740873486326933,0.014199190350249347,0.042584390585032605,0.08876477437767423
561,5.61,-0.00876985798889817,-0.024083091967796302,0.0006771885599082973,0.014250154320597388,0.04092346816847085,0.08624505034836871
562,5.62,-0.008845341099690226,-0.02540313380037184,0.004320357404043422,0.014778325260208844,0.04132458277438431,0.08653933086043306
563,5.63,-0.008162287482680502,-0.02626776306020403,0.00715762133729109,0.015553207569852116,0.04279175050114056,0.08828842439995316
564,5.64,-0.006035777921576614,-0.02671122767703634,0.009517669080932052,0.01362479129433406,0.04602389448266009,0.09799133311774058
565,5.65,-0.003694640919723634,-0.026715842668120847,0.010709123366260561,0.010159205235096823,0.05025965241296658,0.1122169994859153
566,5.66,-0.0019615786668805654,-0.026393940843809652,0.011062327915067173,0.010705466223233723,0.051852560552724115,0.12248502606034767
567,5.67,-0.0006169949672265931,-0.025632663253731522,0.010321260006784343,0.013419558302280742,0.05201738534909813,0.13061451283249287
568,5.68,0.000760668677962298,-0.025124573581196005,0.008712849452606534,0.017343993644151626,0.05399874434879129,0.14046482536368246
569,5.69,0.0018369024057485759,-0.02392216581876727,0.006512795992646092,0.021849859613389425,0.05685273895022696,0.15114179660517535
570,5.7,0.0025617207188665015,-0.021755854201774394,0.0039462898361940805,0.019896921104284187,0.05943272052634298,0.16343669590777482
571,5.71,0.0029595048160787176,-0.018812850065094637,0.0014583718527266688,0.014595917230911859,0.061870661338954414,0.17657028430855498
572,5.72,0.0020317284822808793,-0.014255097247966185,-0.001523573052128907,0.009029203235612371,0.06351385563880974,0.1840043685910978
573,5.73,0.0012502882811068093,-0.009645900876820284,-0.0037636975088738128,0.0033357176459517697,0.0647778725034801,0.188719191676904
574,5.74,0.0012367798688373709,-0.005692229156751993,-0.0047649625553669245,-0.002357767943708832,0.06604188936815046,0.19343401476271024
575,5.75,0.0035991740805648535,-0.0018021870685405346,-0.005728064943313071,-0.011886272886086513,0.06483980704371517,0.2004253242800873
576,5.76,0.0059765903690225655,0.0018725539628539085,-0.006018797363728222,-0.024251678017704455,0.06181346345413079,0.20910063176319846
577,5.77,0.004743756175499403,0.006108364246477803,-0.005313160415794694,-0.03243216873249858,0.0584880166040069,0.2151875554820965
578,5.78,0.002424821240535888,0.009970554241323582,-0.00383656586192778,-0.03794716558645435,0.05497206217706862,0.21962586220532374
579,5.79,0.00032295581558327603,0.013107393210695652,-0.0016182356316591928,-0.04079178073761763,0.05151246018478155,0.21683503871652574
580,5.8,-0.001098513256167998,0.015570342076094318,0.0006963068495120322,-0.04230020339383524,0.04808105554726743,0.2104269385199852
581,5.81,-0.002365356009007247,0.017822479322231785,0.0031544581139176177,-0.04567970909600638,0.04416192055135658,0.2068213563427061
582,5.82,-0.002949504690483314,0.019735709030229837,0.0050504442123567765,-0.050032587583713116,0.03998905899928372,0.2046736970389316
583,5.83,-0.0032245658652879216,0.022413237464399882,0.006534751252744291,-0.05822017559307356,0.034347047300149515,0.19734629178574076
584,5.84,-0.0029057858197634873,0.024563305601798133,0.007133765288185406,-0.06828286575685788,0.027986648304566583,0.18748608639885675
585,5.85,-0.0022142198487607196,0.02621803031717961,0.007002423647966127,-0.07216023071998075,0.027457365633634327,0.17617884279328222
586,5.86,-0.0012618225038520357,0.02708077308488839,0.006116242552180032,-0.07313487327773882,0.02966457804658897,0.16419251601543364
587,5.87,-7.711672538526738e-05,0.02740304108798253,0.00470897145107891,-0.07409857120898627,0.029350006766125362,0.14970543257854665
588,5.88,0.000933031911257341,0.027221409356042156,0.002955794855133939,-0.07505655020628357,0.027717719036847596,0.133911620022625
589,5.89,0.0012537695092457498,0.026729561630378852,0.001009168439648312,-0.07219518447528538,0.023988446368840958,0.12082301575463245
590,5.9,0.0012527055870088528,0.02596069752153308,-0.0009004607355949218,-0.06727815235383862,0.019130524216045483,0.10919042191572224
591,5.91,0.0008319085488221317,0.022603888727481758,-0.0029578725346012685,-0.0644223196742581,0.017510602776996932,0.10215157417779193
592,5.92,0.0003444143408270822,0.019711127362114802,-0.004640823137777444,-0.06265119634686844,0.017594684155561237,0.09753019233671427
593,5.93,-1.8253857070713204e-05,0.018755869988755426,-0.005689224878203448,-0.06088007301947877,0.01767876553412554,0.0929088104956366
594,5.94,-0.0003660015107960319,0.018774417812541307,-0.006225521830481225,-0.05910894969208912,0.017762846912689846,0.08828742865455895
595,5.95,-0.0007506957188557215,0.019052520646748783,-0.006355991068318344,-0.05733782636469946,0.01784692829125415,0.08366604681348129
596,5.96,-0.0011747683167804726,0.022648010231839093,-0.00649161106658056,-0.05137613024624752,0.014852231584683306,0.07308055605788462
597,5.97,-0.0016212608411014747,0.030147759666633276,-0.00679308424876789,-0.03677803173960384,0.005512443709696493,0.050203560765570365
598,5.98,-0.0023062782414291134,0.024107439099676345,-0.006322261618937504,-0.023719734746043757,-0.0008158099354349765,0.03840950316348176
599,5.99,-0.003013617535910337,0.011809971363159305,-0.005362391723361733,-0.012209886365921529,-0.004115617405577537,0.03776062197109861
600,6.0,-0.0037706312726362803,0.0028969742736442705,-0.003981375610062821,-0.003798097359625,-0.008017229960934845,0.035106579473079644
601,6.01,-0.004347774315774673,-0.0034997728961643736,-0.0024665781186392326,0.0015143928012019664,-0.01252088837169503,0.030446573444457593
602,6.02,-0.004271266912076795,-0.008396559888669655,-0.0010114842178703092,0.010568660259562455,-0.015967323043044702,0.02834563376566087
603,6.03,-0.0037749205874371417,-0.01226207085462791,0.00027815005389974644,0.024183296631912654,-0.018125244290701902,0.029363609431792163
604,6.04,-0.0033672195242905392,-0.015300617461495757,0.0015494289982460824,0.031472034987553785,-0.02224829515289616,0.03297699466340198
605,6.05,-0.002716090772006179,-0.017249595746029675,0.0024578434970140796,0.035037587933837135,-0.0275279473211841,0.03811794025086533
606,6.06,-0.0013043604581189816,-0.018755703466115225,0.0028801115621367966,0.03954441267882743,-0.028893855439267944,0.0463595993109964
607,6.07,0.00021148539005733623,-0.019641737550398497,0.002912495977001328,0.044577035136811126,-0.02807353246696346,0.056333327742393226
608,6.08,0.0010939968414942726,-0.020351721382231305,0.00280361107357764,0.0469783287577072,-0.029203687880788986,0.06380611268505311
609,6.09,0.0017921241625190668,-0.020854903553993345,0.0024983862453706205,0.04787948813343682,-0.031445821159277416,0.06985309674726023
610,6.1,0.002625380985537302,-0.021616910275119455,0.002052329466508994,0.0470801516623882,-0.033405075272344875,0.07988182001702789
611,6.11,0.003426347806172855,-0.022384481495709586,0.0015233884792113061,0.04526486399853597,-0.03519532490000106,0.09228940984211123
612,6.12,0.0035540344262743745,-0.02260537338382712,0.0008783621556709494,0.039541243882005146,-0.0392504239700861,0.10210173131572774
613,6.13,0.0036523508097854335,-0.022918004283871647,0.0003029633905941352,0.031636313879918915,-0.044569575814053984,0.1104655873429506
614,6.14,0.004041967219794242,-0.023334022615112724,-0.0002614104156705851,0.02570187112385858,-0.04668506752131951,0.11690698810341962
615,6.15,0.004552134223545368,-0.02405644469040453,-0.0006116723241059254,0.020851486534926758,-0.04703807436962412,0.12229075535874072
616,6.16,0.0051832160832313715,-0.02472172490011487,-0.000572041632870875,0.013117241862952751,-0.04675166229730072,0.1281816136691691
617,6.17,0.0056854697341568745,-0.025444329034481968,-0.00032551289022517854,0.003451595822957015,-0.0460370135760144,0.13441208497375934
618,6.18,0.005803097318187199,-0.025993421335350785,0.0002351450870855256,-0.007647029099955875,-0.045299495328113504,0.1433788305295033
619,6.19,0.005629122069700611,-0.026234359054816567,0.0008810243238765217,-0.020185527752054958,-0.044538997515779534,0.15509501605052028
620,6.2,0.0052157666508857855,-0.025055330830201,0.0016796614228380992,-0.0347427029823569,-0.04533578986370864,0.16813096105900474
621,6.21,0.004680781959621018,-0.02358508694153911,0.002213533674789464,-0.050617857135617714,-0.04714932537412358,0.18202856722046384
622,6.22,0.00441913207311832,-0.021657003658988233,0.002840755089752678,-0.06755043090191291,-0.04543257809832738,0.19398139589081653
623,6.23,0.004033379929053511,-0.019872385012398523,0.002989816531127321,-0.08506881677706088,-0.04176004867290529,0.20485681480890905
624,6.24,0.003723420247484682,-0.01718584663310846,0.002261785669161487,-0.10131929297376767,-0.037773342737080384,0.2143795589385542
625,6.25,0.0030709203531276157,-0.014646238737285865,0.00123908456952045,-0.11697365403497685,-0.033638924881192515,0.22326633512149927
626,6.26,0.0018766108544083695,-0.010691617031920028,-0.00032324310081636477,-0.13280473675787022,-0.030993239078879367,0.2280057646891723
627,6.27,0.00045379423016055813,-0.0062214733217688025,-0.0017863914310798862,-0.14880098534410202,-0.029738937403248237,0.2288690419066075
628,6.28,-0.00023818792565224794,-0.002308934981697767,-0.0032924765028254496,-0.1615481695958545,-0.02598701827788267,0.23232841413272065
629,6.29,-0.000997812446372056,0.0008428081784707369,-0.003822186604483721,-0.1726863674427332,-0.02099824075037589,0.2370734123559542
630,6.3,-0.002728716875743839,0.004771020785113498,-0.003343710499761552,-0.1821262123152348,-0.01999229042708725,0.2391687971668821
631,6.31,-0.004423059503893308,0.008464642290299541,-0.0020790679245794026,-0.1906402553809376,-0.02115744862921294,0.2398198315268499
632,6.32,-0.005794344432974962,0.013138571722516828,0.0001966211203856933,-0.19995713498109305,-0.02222315950679124,0.2280838264842133
633,6.33,-0.006583849525568853,0.017269012584513577,0.0024457163110481244,-0.2096835557792825,-0.0232381405350308,0.21002897228694106
634,6.34,-0.006722356684837482,0.020190571092054698,0.004095684102910798,-0.2194099765774719,-0.024253121563270363,0.1919741180896688
635,6.35,-0.006815183787079669,0.02436637147029895,0.004565507374878009,-0.2169027707090046,-0.02702517488498038,0.17644915030041916
636,6.36,-0.006577362441311175,0.028389701156111138,0.004548174581203407,-0.2060373270623922,-0.03099769217558395,0.1626526472359909
637,6.37,-0.00554984747202667,0.029111014247536957,0.004386683552277506,-0.18840376719391735,-0.030778701650566374,0.14665147582615187
638,6.38,-0.00430524280696083,0.029687716823677986,0.004215366412734366,-0.16755585124367306,-0.02856905402137475,0.12960324953840388
639,6.39,-0.0030942673329506796,0.030837514001303364,0.004461084783127753,-0.14734119459200054,-0.0259586570926086,0.11148394820260714
640,6.4,-0.0020406127153451336,0.03272182037576452,0.004541250212900487,-0.1275886934464125,-0.023055791508781908,0.0925829714425382
641,6.41,-0.0013890648522881402,0.034688581887494324,0.004771122356563299,-0.11211650738997248,-0.020983032803530224,0.07146239832163656
642,6.42,-0.000946315436711194,0.036882237637908794,0.004446341014917501,-0.09960650216510868,-0.0194847473864971,0.04880575936049706
643,6.43,0.00016594491257811367,0.0386672205092356,0.0035354269784579123,-0.08858362979129186,-0.015821774283554628,0.02821252137135702
644,6.44,0.001072586617948716,0.04017615229797932,0.0019056327731171172,-0.0784850610039941,-0.010813374246918216,0.008901757182391105
645,6.45,0.0017338312463966968,0.040665488021316004,-0.000573887921373948,-0.06518234698882601,-0.005670561845724353,-0.0054422091464779426
646,6.46,0.001730855281931184,0.040524813343996505,-0.003270729882299093,-0.05040824160752514,-0.0004660252782876292,-0.017505347682303822
647,6.47,0.001044085902081663,0.03739958795723897,-0.006292778587691673,-0.024509968341952786,0.0015315490859079967,-0.031241406284789087
648,6.48,2.4616466005983242e-05,0.033797173539064015,-0.0087519000823066,0.0069620774240245755,0.0019222726794013122,-0.045815682717131614
649,6.49,-0.0003973197772740881,0.027275825718209468,-0.010700409104152634,0.040400598578589714,0.003859239072348565,-0.04861470779401921
650,6.5,-0.0009297296159216184,0.021524293236790608,-0.011655415573127456,0.07477305052242514,0.006530556765331463,-0.045821356858434116
651,6.51,-0.0021123403286774185,0.016464670076031755,-0.01160761680998563,0.094929931615595,0.006862410322754944,-0.04762058819325354
652,6.52,-0.0032361813971817535,0.0122343404000917,-0.010751869157122873,0.10778645976547616,0.005992840872466435,-0.051778322879591436
653,6.53,-0.003913458516386812,0.00865478549310282,-0.009288680515025061,0.12064298791535735,0.0051232714221779285,-0.05593605756592933
654,6.54,-0.0041455184381266955,0.004646719969085274,-0.0074655481760920305,0.13349951606523852,0.00425370197188942,-0.06009379225226723
655,6.55,-0.0047174698920695885,-0.009097616357074404,-0.007880714357810261,0.14960317335893794,-0.003653065938489011,-0.06481476955538741
656,6.56,-0.004928768205415195,-0.023917355331767132,-0.008245349703984935,0.16827997242442813,-0.017136362687737768,-0.06998208053995493
657,6.57,-0.004100286130281919,-0.025013728966822163,-0.004718185139303759,0.17680949630198184,-0.02304037965999297,-0.06797184578637486
658,6.58,-0.0025746067191662067,-0.02325582396596595,-0.00030416939589070907,0.18071802992148672,-0.025492851526410183,-0.06269301248605284
659,6.59,-0.0011131417377484862,-0.02540759801220436,0.003712581206008595,0.18662441847868624,-0.03053750911405675,-0.05439917735054561
660,6.6,0.0005605952971266715,-0.02937042518526354,0.006880845083157304,0.19365948564700897,-0.03704660965219439,-0.04440203131910432
661,6.61,0.003211187410056016,-0.03577100575379115,0.009776802571616137,0.198945328018976,-0.03851231174323523,-0.023732589771386696
662,6.62,0.005776075122230353,-0.042330849452485775,0.011645852483296077,0.20302362575464875,-0.03649639800298072,0.0043042714667421095
663,6.63,0.007081878497250818,-0.04669436991439162,0.013055669028627105,0.19892568618605244,-0.0360921680592683,0.027968178296472298
664,6.64,0.00773450834619084,-0.049889692910552036,0.013038420476346575,0.19058752636019285,-0.03652376198270717,0.04936425835252272
665,6.65,0.009059668549750724,-0.052086732471509634,0.012041651455842968,0.17465449321779372,-0.03546801340469593,0.07621447852793438
666,6.66,0.009792845146280236,-0.053755005162835406,0.009895136173874748,0.1548280966402483,-0.03364980774947785,0.10586065708551444
667,6.67,0.009042190248616718,-0.05319195725499001,0.007238182973284274,0.13122732755519426,-0.031944238942117266,0.1340313050804028
668,6.68,0.007653673860886981,-0.05251420005057601,0.004110723989773942,0.10580263298371728,-0.030293100696951836,0.16148891857911066
669,6.69,0.00618839792251072,-0.05018096482510019,0.000632334820169664,0.08019389918485248,-0.02954921589366025,0.18654859046657385
670,6.7,0.004679227522162475,-0.048140462986610816,-0.00257294836126049,0.05448493024298958,-0.029299457694639174,0.2103022471978356
671,6.71,0.003353338961369945,-0.04299776514635778,-0.006165237501595676,0.03943206215553572,-0.029539447291210174,0.22453005823899524
672,6.72,0.002060060767127515,-0.038707902602778066,-0.008713412634574211,0.030233940524501818,-0.03004851740887964,0.23352411520251284
673,6.73,0.0007311216778984918,-0.03719910413362842,-0.009497038992972428,0.02103581889346792,-0.030557587526549107,0.24251817216603044
674,6.74,-0.0005212724987442028,-0.03618736076613105,-0.008990513125445621,0.011837697262434013,-0.031066657644218575,0.2515122291295481
675,6.75,-0.001623815366763649,-0.03418888582958386,-0.007595512327001711,0.002639575631400111,-0.031575727761888044,0.26050628609306564
676,6.76,-0.005217998597544204,-0.029351577573427684,-0.0046337630588937926,-0.04986523010424943,-0.033397241576124566,0.2969554386342234
677,6.77,-0.007553829818819857,-0.02175884197073126,-0.0019390846299078487,-0.12003781321980447,-0.03506864569626315,0.3429986185668445
678,6.78,-0.004202567130938719,-0.009679120196151532,-0.00194891422982097,-0.1357234083368791,-0.03139103860815473,0.3458319014982095
679,6.79,-0.002840798996678792,0.003915866992214398,-0.0007146323302081258,-0.15201398937093696,-0.02984261583461837,0.3416154022147183
680,6.8,-0.0021683329166517196,0.015584045574096109,0.0011229719396984375,-0.1685861406383388,-0.029285149887442026,0.3341178202356845
681,6.81,-0.0015435352014927196,0.02421896793944111,0.003113812552447877,-0.18515829190574054,-0.02872768394026568,0.32662023825665065
682,6.82,-0.0010210678523696936,0.034061573763464595,0.005023860983875184,-0.19595670297277445,-0.02639844689449684,0.3140585242894823
683,6.83,-0.0006447290716130159,0.0433906078833067,0.006618339693364534,-0.20238346643422306,-0.022727694884075885,0.2976624499749457
684,6.84,-0.00042023375112965663,0.05063294084856869,0.007821416703319855,-0.20555492368459224,-0.01874944380705697,0.2791653229711385
685,6.85,-0.0003504414389334917,0.056364367384553506,0.008499670269295307,-0.20666342834669515,-0.014576324427582006,0.25933671689827703
686,6.86,-8.205976475397976e-05,0.0620225546831044,0.008627552701896201,-0.20730789335477398,-0.011061850308266234,0.23772443782741176
687,6.87,1.4864197013733302e-05,0.06675858754689239,0.008231947115373228,-0.20766637433169174,-0.007953294142237517,0.2150128949548027
688,6.88,-0.0006002274560978681,0.06891546302973586,0.007225069472708977,-0.20423161535513532,-0.00797979183106552,0.18703677205355235
689,6.89,-0.0013431772175764175,0.07022600253196604,0.005894732961126824,-0.19889368552941886,-0.00957923064154487,0.15641926728179734
690,6.9,-0.001485456034871357,0.07243711324378282,0.004317001433687946,-0.1916931625908946,-0.009420672203026184,0.12846826687111704
691,6.91,-0.0013770192239870335,0.07442522108599822,0.0026157638859670733,-0.182613583281836,-0.0074885777692346705,0.1032073397632324
692,6.92,-0.0019683822882684866,0.07005030250860937,0.0009718625259813986,-0.17139277880500042,-0.008845823775871989,0.08386576547687805
693,6.93,-0.002657397621184025,0.06483434327095894,-0.0005930206580158225,-0.1589273279466424,-0.012115089937318982,0.06796497882049611
694,6.94,-0.0030627451840205275,0.06205225482807123,-0.0020533947210110213,-0.14646187708828445,-0.015384356098765975,0.05206419216411416
695,6.95,-0.003975367015028404,0.06399698265196377,-0.003656022230072098,-0.1181091286174698,-0.016548992515733562,0.027928012921664757
696,6.96,-0.004412094271433623,0.06401413328509725,-0.005045579952916823,-0.08246407809109807,-0.016747599581062374,1.1771660573936528e-05
697,6.97,-0.0037879686677647077,0.054098861080895885,-0.005988876730317571,-0.05183225024174279,-0.01728245691419686,-0.01868248869378797
698,6.98,-0.0027014548694022735,0.041138122880916506,-0.006660522419557163,-0.02463692612193844,-0.018047809753679853,-0.031055192272881626
699,6.99,-0.001432351603744131,0.028431146449111003,-0.007103100884651969,0.0009735598447040207,-0.0182720290901379,-0.04407998212563904
700,7.0,-0.0002861019399318962,0.017467226997419524,-0.00742404261638795,0.025774145141356515,-0.01821971268963155,-0.057438007967748374
701,7.01,0.000706961977157556,0.00600604435633292,-0.007622178073041842,0.0476308032311341,-0.019463748279764527,-0.06562189792395595
702,7.02,0.0014336390432166382,-0.0039600847349737164,-0.007715824601678544,0.06808161428595014,-0.021326845577011318,-0.07133492393465017
703,7.03,0.0022627351740482464,-0.013703525312804783,-0.00799078967544411,0.08705476952072098,-0.02053228723984224,-0.07330134575591207
704,7.04,0.0027606879729414873,-0.02234763286705193,-0.008026846264829723,0.10531548746742203,-0.01845636625575529,-0.07346137904475611
705,7.05,0.0023728574884311878,-0.03208606967573857,-0.007880061889454924,0.1252496983500104,-0.020398601145260462,-0.07277317312064409
706,7.06,0.0017996327315783793,-0.04113468324147977,-0.007371394069409809,0.14615332996677985,-0.024668472760023992,-0.07159359931385317
707,7.07,0.0017744634567357803,-0.0503801442594395,-0.006565010821149882,0.16195564274488986,-0.027462448674558833,-0.062360250257785285
708,7.08,0.0018281897839597643,-0.05817822504767538,-0.005433893625498181,0.17543485457027608,-0.0295843131575676,-0.04945927454548285
709,7.09,0.0013693945669526189,-0.06553466335626544,-0.003953324009783285,0.1833000235355119,-0.029109872035105323,-0.03927834997775605
710,7.1,0.0009494904351485041,-0.07156876361883055,-0.0023766641629806625,0.1880981732607738,-0.02721703788587187,-0.030583422115423663
711,7.11,0.001987723222259417,-0.0766326030128227,-0.0008658786073219701,0.19036680973876835,-0.01845701124560361,-0.021529222396126518
712,7.12,0.0028702538486276236,-0.08032822434057904,0.0005339053821505129,0.1914153104167914,-0.006384526205420253,-0.012301724333727795
713,7.13,0.004175274718169375,-0.08292258066075811,0.0018746244016224845,0.18665627303960106,0.007149005189835809,0.0051532959241845965
714,7.14,0.004741967196662308,-0.08434337879737736,0.003046828820474564,0.17830594210213058,0.021586025519018524,0.02769609127662
715,7.15,0.003815568188077145,-0.08441502453302906,0.003981185931491827,0.16995561116466013,0.036023045848201235,0.0502388866290554
716,7.16,0.0055215517669208155,-0.08641725673041863,0.004662117138176928,0.1577594479651488,0.06194869280649928,0.07704174764984964
717,7.17,0.007338660918352256,-0.08647307781488645,0.005265289663479307,0.14223255123188105,0.0968355185262359,0.10643422337044443
718,7.18,0.0018570776202309833,-0.07196449998154059,0.006437207673978642,0.13145683562871227,0.1107815879449025,0.12305745056292047
719,7.19,0.00032067499199903756,-0.065039732711314,0.007173748887446191,0.11563465838259444,0.1278110615034597,0.147013059740796
720,7.2,0.0005044277188797192,-0.06151445622772357,0.007492804654250965,0.09475389343431337,0.14793134826271614,0.17831866976346727
721,7.21,-0.0006482815494083865,-0.055256209190798655,0.00750609705078485,0.07121157226198795,0.16589512479786578,0.2105853953133192
722,7.22,-0.002567030436602373,-0.0470644388460597,0.007227856596112753,0.04498738987936767,0.1816859391136232,0.24382056873125385
723,7.23,-0.006722068955532928,-0.03534589326600275,0.006748173593656718,0.014640400598068462,0.18975210732733885,0.26472921043986736
724,7.24,-0.011003975704437044,-0.023941493363375754,0.005862181701695401,-0.01771161605726126,0.19406158082555505,0.2796431417214746
725,7.25,-0.013497167010113081,-0.011992378289855311,0.004954177995609589,-0.046057824680762194,0.20095281088647787,0.2960203047133676
726,7.26,-0.014719773712938809,-0.0012961555750295659,0.003847791620101135,-0.07241402030356868,0.20912661092668874,0.3131243747620543
727,7.27,-0.016107376492858903,0.010455951170839556,0.002531761866887514,-0.09489832555013672,0.2119973891511284,0.3205963832488
728,7.28,-0.01596603043694221,0.02087850149962442,0.0012719605234783092,-0.11548934789087292,0.2122750876193155,0.3233584914720833
729,7.29,-0.013398925329552563,0.030975896743776755,0.00011057269759796569,-0.13466374076654772,0.21130917093096105,0.3202896097751513
730,7.3,-0.009246928855663248,0.04076430266412162,-0.0007795524469493753,-0.15242150417716116,0.209099639086065,0.31138973815800397
731,7.31,-0.007848592492229994,0.04757602388075841,-0.001980686883589961,-0.16587861152888847,0.2063743251540287,0.30410241910620034
732,7.32,-0.0068646258806719755,0.05341975191643483,-0.0029565668279162628,-0.17503162092012187,0.20313281634406613,0.2984289431780158
733,7.33,-0.001655502939098762,0.06022181379530665,-0.0026535511306757117,-0.1841846303113553,0.1998913075341036,0.2927554672498313
734,7.34,0.005609940998275055,0.06779458873726643,-0.0016017115627698615,-0.19333763970258872,0.19664979872414096,0.2870819913216468
735,7.35,0.02269919721170304,0.09002288451138213,-0.0012985020515502723,-0.20685023035313893,0.18506565907981165,0.26332070627370857
736,7.36,0.035039367052198414,0.10591109277169958,-0.00046674846474056234,-0.22195732504800086,0.17043022670474833,0.23294385815247054
737,7.37,0.03391039108060352,0.10636969254495071,0.0009202393714645538,-0.23028026529090104,0.15952401067928287,0.20962745446562228
738,7.38,0.026075803565844137,0.09898163627376677,0.002441801181180774,-0.231739895789501,0.1523905222784659,0.19345387416653212
739,7.39,0.020114069263506,0.09333627727224757,0.0038426926085019754,-0.22417254650836324,0.14412839011318587,0.17349004108714766
740,7.4,0.015869743781322547,0.08864727751261955,0.0049297511409282105,-0.20977589775219824,0.13501239026943368,0.1506587183318932
741,7.41,0.011255242557317217,0.07899528450101814,0.0063882525922788775,-0.19865414277276008,0.13026921983472206,0.13107797693536946
742,7.42,0.008266883577884996,0.07097788022733542,0.007086121150929666,-0.18903975712513307,0.1275387769551062,0.11299341434181287
743,7.43,0.007354954651641192,0.06692847378606596,0.006607327840102851,-0.1794253714775061,0.12480833407549034,0.0949088517482563
744,7.44,0.01098422726526026,0.07623538675267096,0.006482836017315802,-0.15428278926589578,0.10253552559773477,0.0610397798168215
745,7.45,0.008764597667733676,0.07071338239185737,0.004857505489651135,-0.13379045114708052,0.08748217003897421,0.03275555385240158
746,7.46,0.004755082391698782,0.059562631748521985,0.0021603108267147404,-0.11710171901847805,0.07783969181974469,0.00872928178271367
747,7.47,0.0009017630851254899,0.04813534873074843,-0.0008727716616409413,-0.09758144123916428,0.0652578364351102,-0.004179719875807515
748,7.48,-0.002339123565485931,0.03765046523108281,-0.003941076060884083,-0.07665386831608384,0.05121509299820856,-0.011563371569497336
749,7.49,-0.0058936279584946285,0.026239243047387333,-0.0069333533312768755,-0.05445360940947284,0.03789390922404764,-0.012174807927795713
750,7.5,-0.008875384363958457,0.015587044650522769,-0.009501061212227213,-0.0316439217518012,0.024918246033730915,-0.009543352648117532
751,7.51,-0.012108099831318116,0.0025751887472590246,-0.012089555301160635,-0.015613956269258903,0.0165737364884835,-0.008637494317270079
752,7.52,-0.014650385113617895,-0.009387181404532562,-0.013873015341321973,-0.00311249755355068,0.010639511104262731,-0.008629723010270521
753,7.53,-0.01608330279782725,-0.01876531791143425,-0.014477734529930626,0.009388961162157546,0.00470528572004196,-0.008621951703270963
754,7.54,-0.016971741747807752,-0.027277333749419375,-0.014196702848920217,0.021890419877865767,-0.0012289396641788075,-0.008614180396271405
755,7.55,-0.017639767609594084,-0.035935007559823304,-0.013267440272199615,0.03439187859357399,-0.0071631650483995795,-0.008606409089271844
756,7.56,-0.02363341030859597,-0.04993020784667264,-0.015139709518841074,0.06863549656590774,-0.03153881266086825,-0.01323710173333678
757,7.57,-0.029550425124350892,-0.06459261173320219,-0.016683664425676863,0.12017836173991285,-0.0705874611520165,-0.02155840916769922
758,7.58,-0.0286657935812211,-0.07527264625156295,-0.01323573117049512,0.15224244779948864,-0.0990385644013103,-0.028447444770907455
759,7.59,-0.02413542611058074,-0.08331812288581332,-0.007449302733713854,0.16483554469829018,-0.1168963605792123,-0.033904781337135134
760,7.6,-0.018765699937567108,-0.089428822735004,-0.0016727738089616856,0.17376205235706044,-0.13218609746093332,-0.02968724909922396
761,7.61,-0.013473107635880149,-0.09386835470772686,0.003065603514760056,0.18095198208811766,-0.14625954454337262,-0.02088748456887216
762,7.62,-0.010251024226587791,-0.09868617959131669,0.006661218208331467,0.188112752295274,-0.1589708109491979,-0.007814493103184056
763,7.63,-0.008168897633967142,-0.10292257169838517,0.00910794351441633,0.19524384521458604,-0.17029570945089864,0.009607601805166722
764,7.64,-0.005189735101205375,-0.10438647151141633,0.011122621184445805,0.1988417572138058,-0.18132739480128127,0.023755935756630046
765,7.65,-0.0019257113607591666,-0.10357088975594805,0.011925851400702233,0.20038502644168613,-0.1921885685658033,0.036000486845769286
766,7.66,0.0007515691772274034,-0.10246291271115954,0.011764024314192559,0.2007538798858316,-0.19961998732712904,0.056912498518857275
767,7.67,0.003091062434596989,-0.0996174752595694,0.010611133042317113,0.20032532946338455,-0.20472267384652626,0.08370953547762168
768,7.68,0.00513514298731004,-0.09284666852559052,0.008793048423816813,0.19191513400956034,-0.20911087346232998,0.1069787175828805
769,7.69,0.006988290415849111,-0.08423740410939354,0.006439375677315168,0.1797661063016842,-0.2131643868486972,0.12859535093884672
770,7.7,0.008006412968305055,-0.07417952583117363,0.003717641418266156,0.16397199005185134,-0.2192955135022556,0.1462223769354266
771,7.71,0.00893387725525042,-0.06358456869670973,0.0011752700808524592,0.14633667615800786,-0.226476078765792,0.16183418283897513
772,7.72,0.010760425404146146,-0.050488081619105854,-0.0010342925501623784,0.12349980473709328,-0.22966125539640184,0.1770499526783373
773,7.73,0.012379491899315812,-0.03781640098035956,-0.002561240021461634,0.0982676491212239,-0.2310065809448418,0.1920833504262172
774,7.74,0.012341192117456028,-0.02586103290589826,-0.0033095207394229385,0.0748151912267457,-0.23462332727159305,0.20463475120631675
775,7.75,0.010884243935829015,-0.013077822143105156,-0.003321676548615475,0.050364086325660654,-0.23878950481582056,0.21405905509589288
776,7.76,0.010163282639778882,-0.0008536069498800911,-0.002716272599115073,0.02300940436460415,-0.2411536336777408,0.2228152312904093
777,7.77,0.011081840893749641,0.011625672818665583,-0.0015515649085255856,0.004002414356231403,-0.2450830174820307,0.2257827489405672
778,7.78,0.01266290114027063,0.023106303989216252,-0.00013639704741991165,-0.01034152578331052,-0.2498867581618588,0.22551670171806595
779,7.79,0.013774367887537461,0.03487305318450679,0.0018483623491666202,-0.027212391503879118,-0.2551739414013965,0.22688551999289455
780,7.8,0.014774580060510873,0.0455329760805242,0.0036614690877573445,-0.045430795889092115,-0.2607189310228217,0.22912616626522606
781,7.81,0.01523419074645772,0.05668951747049136,0.005246359488690566,-0.0630583654128955,-0.26405833422551994,0.2257834087100847
782,7.82,0.01562777061893818,0.06643907524233818,0.006322646444065343,-0.08038373040661875,-0.2662696079782526,0.21958481098684052
783,7.83,0.01637943819618775,0.07541156431049827,0.0068736246817999065,-0.09452555464011526,-0.2651623031627473,0.2072295145565572
784,7.84,0.016844850647145512,0.08275291889263652,0.00700089685146163,-0.10714919055360406,-0.2624724122895193,0.19193817025667853
785,7.85,0.01666065504000874,0.090644821372676,0.006736624211498612,-0.12445960968292072,-0.2606374079600815,0.1808804369056204
786,7.86,0.0158773490328692,0.09665903596941587,0.006289011504774318,-0.14394530008517653,-0.2591991811333985,0.17178764450738238
787,7.87,0.015339465462148693,0.10185916199178237,0.0051343783127080975,-0.1551258175531567,-0.2531250649575001,0.15280555221430525
788,7.88,0.014080147723553487,0.10473106125107273,0.004120179556850756,-0.16218233565030082,-0.24474896122388,0.12891284976692158
789,7.89,0.011395971586493215,0.1053907961671108,0.0029658836242510834,-0.1631066036672605,-0.24125717569403995,0.10798509533079773
790,7.9,0.008092768590331314,0.10405149724814367,0.0021991738225611867,-0.16037969789684814,-0.2406735387820217,0.08882268645594085
791,7.91,0.009071005378763652,0.0982164508452146,0.0018462352288126913,-0.155928275725151,-0.23645621526050195,0.07528346082956333
792,7.92,0.009128336730256544,0.0916295723276399,0.0018341080739912676,-0.1504791656906743,-0.2301366878836037,0.06499742645901484
793,7.93,0.005236037880882364,0.08645045551593175,0.002077979051357427,-0.1450300556561976,-0.2238171605067054,0.054711392088466336
794,7.94,-0.0071803091783927304,0.085669356262337,0.002200794023108463,-0.1297873855687495,-0.21702599092419034,0.03100466021073531
795,7.95,-0.02019116440134169,0.0845006652769492,0.002101481345505053,-0.10678079964153094,-0.2098609235587356,-0.0033414270590289147
796,7.96,-0.02163155514926559,0.07415001248175876,0.00219652599155882,-0.08756771591011624,-0.20251627063266806,-0.028317185545474324
797,7.97,-0.017373828493001325,0.059292277450497324,0.0020761633166353046,-0.0721375274180961,-0.1949925342825662,-0.04394881548885785
798,7.98,-0.014671308590910925,0.046425165783172656,0.001417086974693481,-0.05940855001873524,-0.18454001246288,-0.057040522330342874
799,7.99,-0.01323867766735369,0.03459493927191617,0.0002445145758210041,-0.04940902315248765,-0.1711280865880809,-0.06756575279262772
800,8.0,-0.01348698343408322,0.023483932475548825,-0.0016715752101361028,-0.039409496286240055,-0.15771616071328182,-0.07809098325491258
801,8.01,-0.012983127512571085,0.010662862528622849,-0.003930247096461947,-0.026985021011153687,-0.1450964886525271,-0.08355465943942371
802,8.02,-0.013111568884939572,-0.002194287400319149,-0.00628091228664427,-0.013186420967969268,-0.13292575628241915,-0.08615014796566951
803,8.03,-0.013203207838611147,-0.015786458922846427,-0.008773223929924922,0.0062933053549062215,-0.12181091497345313,-0.08718920078911334
804,8.04,-0.014107475325091299,-0.028606129833934575,-0.010923436603304335,0.028753479235094862,-0.11125001803731667,-0.08741171218042701
805,8.05,-0.014914090136777906,-0.04234430359816621,-0.012811637040321747,0.052782502527225036,-0.09999978297035708,-0.08518657413413994
806,8.06,-0.016173762639018607,-0.0546407218897941,-0.014016552923192718,0.0776064694041615,-0.08840025693850999,-0.08172120027970893
807,8.07,-0.016623482127416343,-0.06657815566660913,-0.014620969218762575,0.09662770509179064,-0.07740022226327277,-0.07329465408112434
808,8.08,-0.017096880155527207,-0.07663224210881858,-0.014504628319919959,0.11231351261548723,-0.0667447771079766,-0.062016410393380614
809,8.09,-0.017189258244464132,-0.08519046039878078,-0.01380408938740595,0.12207046786717735,-0.05775340060009977,-0.04478141906473952
810,8.1,-0.017144980308176645,-0.09185392499689406,-0.012555337553538173,0.1282472901911844,-0.04976687067723237,-0.023949450211162005
811,8.11,-0.016691678702551806,-0.09682576065472,-0.010857098582954283,0.13152197177527164,-0.042651546567857336,-0.006502280990122193
812,8.12,-0.01581467133066393,-0.10030744956275162,-0.008863569083907164,0.13306648645375632,-0.03605560852606315,0.008926974962357632
813,8.13,-0.013308886811304434,-0.10240017064645263,-0.006898774829316719,0.13185568494717034,-0.029366510270489105,0.029307640680256423
814,8.14,-0.010459482862318348,-0.10341288739494456,-0.004841845763893847,0.12912242259558102,-0.022625935970691718,0.05242422742829435
815,8.15,-0.008025344801785093,-0.1034371825965131,-0.0026513096750663727,0.12638916024399172,-0.015885361670894334,0.07554081417633228
816,8.16,-0.005532065466361576,-0.10247067559757181,-0.0004768537847884961,0.1236558978924024,-0.00914478737109695,0.0986574009243702
817,8.17,-0.0017663684289648653,-0.10129774396578452,0.0014388142208586997,0.12409780046970803,-0.0017771725615713637,0.1229416557879774
818,8.18,0.002552382225057725,-0.09906938400761123,0.0031388655274449447,0.12772886950495954,0.0062202478190602605,0.14839872783481126
819,8.19,0.006245173813450213,-0.09353307787693763,0.005220620062608301,0.12538756391706712,0.012475677396781484,0.17481976860598944
820,8.2,0.009318248929603465,-0.08609785791794056,0.0070308761045874794,0.11994896761724808,0.017827705517868084,0.20174072633899548
821,8.21,0.012319391857725298,-0.07771732642037771,0.008637649124605186,0.1106488181224205,0.02292447899281581,0.22616487964668355
822,8.22,0.01508060586823345,-0.06818010374898362,0.009869225182817892,0.09744830585273508,0.02776343244829662,0.24806713501724145
823,8.23,0.017011049181349592,-0.055095747302756584,0.010483014962391278,0.08070749251968974,0.03499150696334838,0.2664389356006163
824,8.24,0.01834601410115843,-0.04121740442402785,0.010502793747266308,0.061900802794169166,0.04361370833580616,0.2827506054016048
825,8.25,0.019878065310771305,-0.027259112102831457,0.01016771081386318,0.0405687494126798,0.05079930424824758,0.2990515671295789
826,8.26,0.021216792325074948,-0.013337455708512531,0.009598845223478184,0.016629206727873096,0.05650157582392416,0.31534147255452183
827,8.27,0.021553731311263983,0.001678771683364999,0.00852945854060382,-0.004305710900195151,0.06368494866324481,0.3265189293025557
828,8.28,0.021097802663331007,0.015843306141638105,0.007374451401562359,-0.023309119107034943,0.07182044064904801,0.3344098718937397
829,8.29,0.020118196124962837,0.02909997745324619,0.006131136011562951,-0.037711786672128315,0.07567745735447243,0.3381584867714282
830,8.3,0.018682205210328342,0.040788224917369706,0.005165900698129977,-0.049591099738450266,0.07718787148276744,0.33963517152195644
831,8.31,0.017634523255680105,0.05176814970665446,0.004494853213047592,-0.05990304645486085,0.0823963046129012,0.3397075090260413
832,8.32,0.016198058226901006,0.06162569114712603,0.004158006006904592,-0.06926328792055379,0.08985017583190459,0.338927126520955
833,8.33,0.013590448186394957,0.07115786206497106,0.0041418544429325695,-0.07690735941404662,0.09577440823997316,0.3326327461190656
834,8.34,0.010589959442120732,0.07948704677398512,0.004290823548530869,-0.08372512684685053,0.1009621478872213,0.32368347784093754
835,8.35,0.007825559787837128,0.08712702441939721,0.0042995764865188715,-0.09214848959324354,0.10612451078207304,0.3088447901914106
836,8.36,0.005143999764934624,0.09351794385896968,0.00429784153443493,-0.10145748326900964,0.11127287610442374,0.2907575554720119
837,8.37,0.002675869888158164,0.09950238130611078,0.004192266280128344,-0.11059461050118784,0.1143483484352884,0.27298579409505075
838,8.38,0.00037366594329480383,0.10454206350414688,0.003973835123862278,-0.11954747810238313,0.11520145268949555,0.2555522546562934
839,8.39,-0.0016804616721402994,0.10792603478709387,0.0034477022222647617,-0.12354395397780657,0.1156232447580354,0.2330231472078663
840,8.4,-0.003602586069699479,0.10944237642962819,0.0027745648295222584,-0.12258007142739755,0.1156133794530842,0.2053943936641274
841,8.41,-0.006930406536339861,0.10653470819624479,0.0024756712844906177,-0.11821915045250815,0.11547974567452125,0.1799884418475688
842,8.42,-0.009918963571871149,0.10175361745279822,0.0022264192794312515,-0.11215537535671492,0.11528406972010033,0.15569672737781318
843,8.43,-0.011122989429357839,0.0965325900763428,0.0017878147056495722,-0.10137314222680416,0.11493585765248755,0.13305124372752442
844,8.44,-0.011323634611032609,0.09060230809820256,0.0011387141521274867,-0.08558259319962043,0.1144257390817156,0.11215311989777467
845,8.45,-0.01246807559932396,0.08244059040062546,0.0007648229589450484,-0.07374176014561838,0.11188822526721208,0.0914900039090381
846,8.46,-0.01348745791484731,0.07343109880232603,0.00013217003454470046,-0.06413133312310013,0.10820584062895212,0.07095959693269649
847,8.47,-0.013692915498001775,0.06295646442790302,-0.0007419695575430789,-0.050361375809418914,0.10687247585763818,0.05517107384056949
848,8.48,-0.013394615097495781,0.05230437452990648,-0.0020084310820057457,-0.03430106463251553,0.10683254720781987,0.041993564808427884
849,8.49,-0.012860745478184811,0.04095535720855743,-0.0036037984350134993,-0.02067838015782741,0.10457766063482134,0.03222938251214698
850,8.5,-0.012120088924194425,0.02970271666286274,-0.005368863172026465,-0.008353322891765666,0.1011436806163542,0.024282223979332208
851,8.51,-0.011496919136579896,0.01738765216260153,-0.007656657576486675,0.005393760697003,0.09608909476775812,0.019904248962353797
852,8.52,-0.010682217493947333,0.005313823711618818,-0.00964204293061775,0.01985784672766601,0.09021738034777338,0.017325898365514285
853,8.53,-0.009957400592372954,-0.00745930701748378,-0.011206414679980162,0.033824789198344966,0.08733635067149023,0.01727771682207347
854,8.54,-0.00893550992157644,-0.01965248989405384,-0.012087103940696769,0.04754786530206799,0.08592235684131261,0.018470672013576026
855,8.55,-0.007195397805793084,-0.03212860144925937,-0.012516627367926345,0.061558055612872135,0.08168389428480592,0.024325789163345917
856,8.56,-0.005202193814408518,-0.04443911006758705,-0.012463989979531742,0.07585536013075744,0.07462096300197019,0.034843068271383164
857,8.57,-0.004451360574791542,-0.05606323764132365,-0.011579348273429713,0.08617026664433965,0.066105938282217,0.04360653415285501
858,8.58,-0.0037988693959711034,-0.06635676965442146,-0.010238541690558309,0.09407630490592084,0.05671257298089715,0.051309155538912785
859,8.59,-0.0025421594917643315,-0.07555390731712582,-0.008441552814495393,0.09708559914921104,0.050473218064315685,0.06428029967519047
860,8.6,-0.0009605102533281819,-0.08331227028631424,-0.006665353623838673,0.09778736491073192,0.04572015051897404,0.07973416830300181
861,8.61,-0.0003349796743631788,-0.09001552786952653,-0.004394926998007476,0.09638980686567344,0.038715459824983006,0.09371481457603986
862,8.62,0.0005928180047514247,-0.09540124120238369,-0.002571464827808738,0.09403177987602196,0.03068062118410225,0.10702144175978576
863,8.63,0.0022193138778662043,-0.09953455781377897,-0.001205351793707989,0.0904926960098954,0.02280061199613649,0.12061393451105147
864,8.64,0.004104242515849205,-0.10233616975973371,-0.00038519297805087024,0.08635409179052117,0.014999196320603246,0.13435153646868522
865,8.65,0.004745097619933884,-0.10328707433623673,-0.0003152293541506656,0.0832511431147599,0.007548189428844317,0.14602798709371406
866,8.66,0.00551954804375901,-0.10294185524238937,-0.00037763512839637944,0.08063937885353535,0.0002633722846015277,0.15672688739632062
867,8.67,0.006398987128836079,-0.10135393367196352,-0.0007041066050212468,0.07631416883112564,-0.008285989107181303,0.1676949055355437
868,8.68,0.007515308017912867,-0.0984220579282978,-0.0007240168872704798,0.0709542958911759,-0.017598944579475483,0.17882543027538605
869,8.69,0.007763516597467567,-0.09362872028633983,-0.00016681412495661227,0.06540568724704324,-0.027420320968480082,0.18619394752380056
870,8.7,0.008152550442522725,-0.08734533411877117,0.0008295065016914916,0.05974708732991254,-0.03753799457421904,0.19137004445194966
871,8.71,0.009239513016160392,-0.07885161386068099,0.0023523988764184737,0.04892033337956775,-0.03995276291322292,0.19839594139412686
872,8.72,0.010432405315532758,-0.06919854216918112,0.003951023735311858,0.0352453630060789,-0.038122390502620805,0.20644127985171307
873,8.73,0.010374403771132046,-0.05741606365496333,0.006094589665908815,0.02023890429361411,-0.04054192321223357,0.2169874757777195
874,8.74,0.010077424481934792,-0.045204058947156345,0.007811391667352526,0.004533297441589413,-0.04519302879494376,0.22884684118119594
875,8.75,0.010048494319567568,-0.03342540359119383,0.008626424000654893,-0.011172309410435278,-0.04984413437765396,0.2407062065846724
876,8.76,0.010938409716380229,-0.02003181297488316,0.008754942872122126,-0.02061715754267435,-0.0518257870533182,0.2497969412817225
877,8.77,0.011317927018665453,-0.00636168722119378,0.008518996062669471,-0.025928013075114748,-0.05204479416841101,0.2570595431015589
878,8.78,0.009131388217669206,0.0069607601853138405,0.0085655126488383,-0.028272374779275918,-0.053792952539889916,0.26223065110250143
879,8.79,0.00623510035410487,0.01975935371943066,0.008415466206236595,-0.029158269350679288,-0.056292913199711414,0.26637348290608803
880,8.8,0.004056638373518415,0.032162265018783234,0.00783742747740209,-0.030327568255713006,-0.053593255421927416,0.273943209749982
881,8.81,0.001985077756475137,0.04416508634377919,0.007059152628542063,-0.03165955811065227,-0.04790870728652543,0.2834801782453794
882,8.82,-0.0010323266105741902,0.056514710967164095,0.006172546194969415,-0.0353886857004451,-0.04889466670883536,0.28608121144178145
883,8.83,-0.003897544203613103,0.06806139024867847,0.005313078539535434,-0.04040065365617277,-0.05345038194112128,0.2849704438318743
884,8.84,-0.005353101881975295,0.07869498328618206,0.004117186567286658,-0.045055342225865706,-0.05167028859229346,0.28249477449690064
885,8.85,-0.00639818351099951,0.0877538892951266,0.003131541725723229,-0.04952482705673043,-0.0466058875459372,0.27931157790875705
886,8.86,-0.00796729009513569,0.0954994115977218,0.0024044087829872274,-0.052238500453039065,-0.04383438302725745,0.2707560416231389
887,8.87,-0.009341926488959446,0.10127617135888729,0.0019954318858127567,-0.054052493096129896,-0.042237762573273406,0.2594477093763829
888,8.88,-0.009677171587723703,0.10517390889946157,0.0013999984646568355,-0.052492655891804636,-0.03956866220685657,0.24206984713919324
