,ts,ax,ay,az,wx,wy,wz
0,0.0,-0.00877,-0.003786999999999999,0.076835,0.0012660000000000006,-0.000366,0.0043950000000000005
1,0.01,-0.018088999999999997,0.010975,0.037502,0.001266,0.00177,0.0043950000000000005
2,0.02,-0.009825,-0.0074839999999999985,0.019767,0.00019800000000000004,-0.0003659999999999998,0.0043950000000000005
3,0.03,0.013481,0.005094,0.028493,0.0023350000000000003,0.0007019999999999999,0.003326
4,0.04,0.021293,-0.001434,0.035486000000000004,0.0023350000000000003,0.00177,0.003326
5,0.05,0.015359,-0.009121999999999998,0.009671,0.003403,0.0007020000000000001,0.0043950000000000005
6,0.06,0.011821,0.01814,-0.012468,0.004471,-0.00036599999999999984,0.005463
7,0.07,0.0023029999999999995,0.007998000000000002,-0.00897,0.005539,-0.002487,0.0043950000000000005
8,0.08,-0.014435,0.013166999999999998,-0.030619999999999998,0.003403,-0.0035549999999999996,0.006531
9,0.09,-0.02829,-0.019171000000000004,-0.023558000000000003,0.003403,-0.0046229999999999995,0.003326
10,0.1,-0.028897000000000003,-0.020104,-0.006605,0.000198,-0.002487,0.005463
11,0.11,0.002496999999999999,0.010019,-0.015449999999999997,-0.001923,-0.0035549999999999996,0.005463
12,0.12,0.001677999999999999,-0.004939999999999999,-0.025758,-0.004059,-0.0035549999999999996,0.005463
13,0.13,-0.011285,0.008223999999999999,-0.005106,-0.002991,-0.002487,0.005463
14,0.14,0.016265,0.005789,0.018805,-0.007248,-0.0046229999999999995,0.0043950000000000005
15,0.15,-0.005563,0.016914,0.006178,-0.00618,-0.0046229999999999995,0.005463
16,0.16,2.0000000000002655e-06,0.0049039999999999995,0.042128,-0.0051270000000000005,-0.0046229999999999995,0.005463
17,0.17,0.004932999999999997,-0.0017219999999999994,0.038698,-0.0051270000000000005,-0.0046229999999999995,0.0043950000000000005
18,0.18,-0.00785,-0.014208999999999998,0.032476,-0.002991,-0.005692,0.0043950000000000005
19,0.19,-0.028446,0.022825,0.053637,-0.001923,-0.006744,0.005463
20,0.2,-0.017164,0.023063999999999998,0.062159000000000006,0.00019799999999999996,-0.006744,0.0043950000000000005
21,0.21,0.004005,0.026872000000000004,0.050025,0.004471,-0.0046229999999999995,0.0043950000000000005
22,0.22,0.007253000000000002,0.025424000000000002,0.021082,0.003403,-0.002487,0.003326
23,0.23,-0.006781999999999999,0.017384,-0.009405,0.005539,0.00177,0.003326
24,0.24,-0.023418,-0.0004609999999999996,0.0027370000000000003,0.006592,0.002838,0.002258
25,0.25,-0.024652,0.007790000000000001,-0.019140000000000004,0.0012660000000000002,0.002838,0.003326
26,0.26,-0.023821000000000002,0.0006919999999999999,0.009012000000000001,0.0023350000000000003,0.0007019999999999999,0.002258
27,0.27,-0.016201,0.014251,-0.012712000000000001,0.001266,-0.00036599999999999984,0.005463
28,0.28,-0.006168,0.004553,0.016996999999999998,-0.002991,0.0007019999999999999,0.003326
29,0.29,0.022880000000000005,0.013798,-0.00571,-0.0008539999999999999,0.002838,0.0033260000000000004
30,0.3,0.0009169999999999994,0.004184,-0.013265,0.000198,0.002838,0.002258
31,0.31,-0.023461000000000003,-0.037968,0.001170000000000001,-0.0008539999999999999,0.003906,0.0012050000000000001
32,0.32,0.011109999999999998,-0.010303,-0.021181,-0.001923,0.009231999999999999,0.00013699999999999994
33,0.33,-0.024924,0.017115000000000002,0.006256000000000001,-0.002991,0.007095000000000001,0.00013699999999999994
34,0.34,-0.009198,-0.012201000000000002,-0.009594000000000002,-0.004059,0.009231999999999999,0.0012050000000000001
35,0.35,-0.009567,-0.018569,0.0020019999999999994,-0.002991,0.007095000000000001,0.0012050000000000001
36,0.36,-0.030055000000000002,0.008963999999999998,0.026855,-0.0008539999999999999,0.009231999999999999,-0.001999
37,0.37,-0.020674,0.013033000000000001,0.023252000000000002,-0.0008539999999999999,0.0103,-0.0009310000000000001
38,0.38,0.0011940000000000006,0.020586,0.024723,0.0023350000000000003,0.011353,-0.001999
39,0.39,-0.015722999999999997,0.023101,0.029704,0.00019800000000000004,0.011353,-0.0030670000000000003
40,0.4,-0.016394,0.011531,0.004665,0.003403,0.013489,-0.0030670000000000003
41,0.41,-0.0005549999999999999,-0.0011549999999999998,-0.010046,0.0023350000000000003,0.014556999999999999,-0.0009310000000000001
42,0.42,-0.008376999999999999,0.0070799999999999995,0.014856,0.00019800000000000004,0.013489,-0.0030670000000000003
43,0.43,0.0006559999999999999,-0.02021,-0.024147,0.000198,0.014556999999999999,-0.0009310000000000001
44,0.44,-0.011836,0.007949000000000001,0.0027719999999999997,0.001266,0.013489,-0.001999
45,0.45,-0.0030760000000000023,0.02376,-0.048055,0.00019800000000000004,0.011353,-0.0009310000000000001
46,0.46,-0.0015989999999999995,0.0012220000000000009,-0.020862000000000002,0.001266,0.0103,-0.0030670000000000003
47,0.47,0.0025319999999999995,0.014979,-0.043968,0.0023350000000000003,0.009231999999999999,-0.0009310000000000001
48,0.48,-0.016356,-0.031414,-0.029874,-0.0008539999999999999,0.0103,-0.0030670000000000003
49,0.49,0.028484,0.0008560000000000001,-0.032786,0.0023350000000000003,0.009231999999999999,-0.0009310000000000001
50,0.5,-0.01443800000000001,0.013959000000000001,-0.028656,-0.0008539999999999999,0.009231999999999999,-0.0030670000000000003
51,0.51,0.017554000000000004,-0.035441,-0.017404,0.001266,0.007095000000000001,-0.0030670000000000003
52,0.52,-0.00014100000000000007,0.004109999999999999,-0.040898000000000004,0.00019800000000000004,0.004974,-0.0030670000000000003
53,0.53,0.023319,-0.020284,-0.0028119999999999985,-0.0008539999999999999,0.004974,-0.0030670000000000003
54,0.54,-0.005758,-0.005217,0.021962,-0.002991,0.003906,-0.001999
55,0.55,-0.005097000000000001,0.0008190000000000003,-0.0055509999999999995,0.00019800000000000004,0.003906,-0.001999
56,0.56,0.014853000000000003,-0.008754000000000001,-0.018364,0.00019799999999999983,0.006027,-0.001999
57,0.57,-0.001098,0.022771,0.000963,0.0023350000000000003,0.003906,-0.00412
58,0.58,0.015145999999999996,0.026614999999999996,0.00010399999999999991,0.001266,0.003906,-0.001999
59,0.59,-0.012802999999999998,0.010865000000000001,-0.0188,0.001266,0.0017699999999999999,-0.001999
60,0.6,-0.018900999999999998,0.031452,-0.011504,0.0023350000000000003,0.0017699999999999999,-0.001999
61,0.61,-0.025033,0.0021370000000000004,-0.004553,0.003403,0.003906,0.00013699999999999994
62,0.62,-0.018099,0.021052,-0.015725,0.005539,-0.000366,-0.0009309999999999996
63,0.63,-0.017105000000000002,-0.015953,-0.020665,0.006592,-0.001419,0.00013699999999999994
64,0.64,-0.009694,-0.022264,-0.077717,0.006592,-0.000366,0.00013699999999999994
65,0.65,0.002145000000000001,-0.042111,-0.083389,0.004471,-0.000366,0.0012050000000000001
66,0.66,0.013175,-0.01602,-0.038131000000000005,-0.001923,-0.001419,-0.0009310000000000001
67,0.67,0.030136000000000003,-0.036545,-0.021411000000000003,-0.0008540000000000003,-0.000366,0.002258
68,0.68,-0.014733000000000001,0.02129,-0.005061,-0.002991,0.00177,0.002258
69,0.69,0.0016939999999999993,0.006776000000000001,-0.035329999999999986,0.00019800000000000004,0.0007020000000000001,0.002258
70,0.7,0.019368,-0.023257,-0.097039,-0.007248,0.0007019999999999999,0.002258
71,0.71,-0.009822,-0.034726,-0.094247,-0.01152,-0.001419,-0.0009309999999999996
72,0.72,-0.024577,-0.009289,0.008275000000000005,-0.014709,-0.0046229999999999995,0.0012050000000000001
73,0.73,0.013022999999999998,0.016227000000000002,0.07384,-0.009384,-0.0046229999999999995,0.0012050000000000001
74,0.74,-0.024489,0.012950999999999999,0.114586,-0.001923,-0.007812,0.002258
75,0.75,-0.0028490000000000013,0.016461,0.06832,0.007659999999999999,-0.0046229999999999995,0.0043950000000000005
76,0.76,0.004222,-0.006171000000000001,-0.039591,0.008728,-0.001419,0.00013699999999999994
77,0.77,0.005346,-0.034961,-0.074137,0.0055390000000000005,-0.002487,0.00013699999999999994
78,0.78,-0.0015550000000000008,-0.037258,-0.086901,-0.0008539999999999997,-0.0046229999999999995,-0.0030670000000000003
79,0.79,-0.023385,-0.016628,-0.067426,-0.004059,-0.005692,0.0012050000000000001
80,0.8,-0.023593,-0.028255000000000002,-0.041988,-0.004059,-0.007812,0.0012050000000000001
81,0.81,-0.004133,0.010527999999999996,-0.041555,-0.004059,-0.007812,0.00013700000000000002
82,0.82,-0.009098000000000002,0.024449000000000002,-0.0006429999999999977,-0.00618,-0.011017,0.0012050000000000001
83,0.83,-0.039262,0.016806,-0.008140000000000001,-0.004059,-0.011017,-0.001999
84,0.84,-0.026659,0.013238,0.003441,-0.002991,-0.013138,0.0012050000000000001
85,0.85,-0.006059999999999999,0.0035770000000000003,-0.014913999999999998,-0.002991,-0.005691999999999999,-0.0009310000000000001
86,0.86,0.018502999999999995,-0.007630999999999998,-0.038027999999999985,-0.002991,-0.008881,0.0012050000000000001
87,0.87,-0.018999000000000002,-0.004061,-0.021245,-0.001923,-0.012085,-0.0009310000000000001
88,0.88,-0.009111,-0.014788000000000003,-0.0010970000000000008,-0.00618,-0.014206,-0.0009310000000000001
89,0.89,-0.021892,-0.014719,-0.007541999999999998,-0.00618,-0.012085,-0.0009310000000000004
90,0.9,-0.04991,0.0015080000000000009,-0.018621000000000002,-0.008316,-0.011017,0.0012050000000000001
91,0.91,-0.033346,-0.009168,0.0029370000000000004,-0.00618,-0.008881,0.0012050000000000001
92,0.92,-0.027523000000000002,-0.00015900000000000031,0.012861000000000001,-0.00618,-0.005692,0.0012050000000000001
93,0.93,-0.025524,0.029695999999999997,0.032786,-0.0051270000000000005,-0.005692,0.0012050000000000001
94,0.94,-0.019575,0.019259000000000002,-0.006525999999999997,-0.0008540000000000003,-0.002487,-0.001999
95,0.95,-0.031899000000000004,-0.005318,-0.016918,0.001266,-0.002487,0.0012050000000000001
96,0.96,-0.024222999999999998,-0.031213,-0.027647,0.0023350000000000003,-0.000366,0.0012050000000000001
97,0.97,-0.049768,-0.027879,-0.019305000000000003,0.001266,-0.001419,-0.0009310000000000001
98,0.98,-0.029562,0.000307,-0.03311,0.00019800000000000004,0.00177,0.00013700000000000002
99,0.99,-0.004837999999999999,0.00395,-0.048947000000000004,0.001266,0.006027,0.00013700000000000002
100,1.0,0.005728999999999998,-0.019135,-0.050783999999999996,-0.002991,0.008163,-0.001999
101,1.01,0.008702,-0.0071319999999999995,-0.010699,-0.0051270000000000005,0.007095000000000001,-0.0009310000000000001
102,1.02,0.0069789999999999965,0.0024109999999999995,-0.017338,-0.0051270000000000005,0.009231999999999999,-0.0030670000000000003
103,1.03,0.058859,0.056913,0.010490000000000001,-0.001923,0.007095000000000001,-0.0009310000000000001
104,1.04,0.039495999999999996,0.046515,-0.015212999999999999,0.000198,0.007095000000000001,0.00013699999999999994
105,1.05,0.002902000000000002,-0.020489,-0.067719,-0.001923,0.006027,-0.005188
106,1.06,0.006220999999999999,-0.02781,-0.033552,-0.008316,0.003906,-0.0030670000000000003
107,1.07,-0.01916,-0.031121,-0.04895200000000001,-0.01152,0.004974,-0.006256
108,1.08,0.032919,-0.008915000000000001,-0.034541,-0.010452,0.004974,-0.0030670000000000003
109,1.09,0.070758,0.08233,-0.053034000000000005,-0.008316,0.003906,-0.005188
110,1.1,0.06526,0.060795,-0.058669000000000006,-0.012573,0.0103,-0.007324
111,1.11,0.030547,-0.026695,-0.05396,-0.015778,0.017746,-0.008392
112,1.12,0.012526,-0.044113,-0.036539,-0.015778,0.026276,-0.008392
113,1.13,0.008499,-0.08304,-0.012868999999999998,-0.017899,0.031601,-0.010513
114,1.14,0.004765,-0.026237,-0.028344,-0.020035,0.037994,-0.011581000000000001
115,1.15,-0.000685,-0.0047740000000000005,0.007498000000000001,-0.016846,0.045441,-0.013718000000000001
116,1.16,-0.017958000000000002,-0.0023339999999999997,-0.060443,-0.010452,0.052902,-0.013718000000000001
117,1.17,0.012052,-0.035792000000000004,-0.061711,-0.00618,0.06143200000000001,-0.015839
118,1.18,0.05926,-0.054932,-0.083754,-0.009384,0.06675700000000001,-0.017975
119,1.19,0.074251,-0.040027999999999994,-0.11655,-0.0051270000000000005,0.071014,-0.020111
120,1.2,0.063388,-0.05472899999999999,-0.11826300000000001,-0.004059,0.071014,-0.019043
121,1.21,0.10295399999999999,-0.078074,-0.128871,-0.00618,0.07208300000000001,-0.017975
122,1.22,0.074316,-0.055037,-0.171986,-0.0051270000000000005,0.07420299999999999,-0.015839
123,1.23,0.091053,-0.064212,-0.175034,-0.008316,0.073151,-0.016907
124,1.24,0.068815,-0.055148,-0.161899,-0.012573,0.07633999999999999,-0.014786
125,1.25,0.061353,-0.051611,-0.14508,-0.016846,0.075272,-0.016907
126,1.26,0.065833,-0.036088999999999996,-0.183025,-0.023224,0.080597,-0.014786
127,1.27,0.041005,-0.025046000000000002,-0.15016500000000002,-0.028564,0.078476,-0.016907
128,1.28,0.06205700000000001,-0.01466,-0.125065,-0.031754000000000004,0.07633999999999999,-0.020111
129,1.29,0.07928500000000001,-0.018191,-0.130901,-0.034943,0.07420299999999999,-0.021164
130,1.3,0.09175900000000001,-0.014624000000000002,-0.072976,-0.036011,0.068878,-0.019043
131,1.31,0.109795,-0.032424,-0.083307,-0.037079,0.06675700000000001,-0.019043
132,1.32,0.10301600000000001,-0.028013,-0.083438,-0.034943,0.057159,-0.017975
133,1.33,0.123714,-0.057302,-0.10846199999999999,-0.031754000000000004,0.047577,-0.020111
134,1.34,0.15716,0.0007969999999999991,-0.141204,-0.028564,0.041183,-0.019043
135,1.35,0.149169,0.030189999999999995,-0.179824,-0.029617,0.034789999999999995,-0.019043
136,1.36,0.100174,0.0082,-0.21109299999999998,-0.027496,0.026276,-0.021164
137,1.37,0.08670800000000001,-0.017025999999999996,-0.211227,-0.032822000000000004,0.022018,-0.0233
138,1.38,0.020577,-0.002852,-0.21008000000000002,-0.038147,0.014556999999999999,-0.021164
139,1.39,0.005778999999999996,-0.026099,-0.14958,-0.046661,0.011353,-0.024368
140,1.4,0.023009,-0.064578,-0.099689,-0.051987,0.003906,-0.019043
141,1.41,-0.0008570000000000001,-0.082501,-0.054034000000000006,-0.053055,0.002838,-0.016907
142,1.42,-0.008375000000000004,-0.032897,-0.067722,-0.051987,0.0017700000000000003,-0.016907
143,1.43,-0.03071,-0.055077999999999995,-0.090178,-0.053055,0.0007020000000000001,-0.017975
144,1.44,-0.097638,-0.031243,-0.121449,-0.055191,0.00177,-0.020111
145,1.45,-0.09068999999999999,-0.038151,-0.11493800000000001,-0.056259,0.0017699999999999999,-0.024368
146,1.46,-0.104173,-0.0034630000000000012,-0.1292,-0.057312,0.004974,-0.024368
147,1.47,-0.09862699999999999,-0.016496,-0.143024,-0.057312,0.003906,-0.026505
148,1.48,-0.046661,-0.0010550000000000004,-0.122847,-0.059448,0.004974,-0.025436
149,1.49,-0.0051730000000000005,-0.026619999999999998,-0.12648199999999998,-0.058379999999999994,0.0007019999999999999,-0.024368
150,1.5,0.005011000000000002,-0.029322000000000004,-0.142012,-0.06051599999999999,0.004974,-0.022232
151,1.51,0.034047,-0.013909,-0.154632,-0.063705,-0.0003659999999999998,-0.020111
152,1.52,0.055656,0.013944999999999999,-0.137691,-0.064774,-0.0046229999999999995,-0.019043
153,1.53,0.067339,-0.001759,-0.135927,-0.067978,-0.012085,-0.016907
154,1.54,0.035904000000000005,-0.016711,-0.115842,-0.075424,-0.016342,-0.015839
155,1.55,-0.0014920000000000005,-0.020222999999999998,-0.15525899999999998,-0.079697,-0.020599,-0.014786
156,1.56,-0.035813,-0.050480000000000004,-0.15188800000000002,-0.085022,-0.023788,-0.015839
157,1.57,-0.065936,-0.074059,-0.098554,-0.085022,-0.028061000000000003,-0.015839
158,1.58,-0.030545000000000006,-0.084467,-0.158349,-0.086075,-0.028061000000000003,-0.015839
159,1.59,-0.019644,-0.029983,-0.164002,-0.089279,-0.03125,-0.014786
160,1.6,0.021332,-0.043161,-0.169232,-0.090347,-0.036575,-0.014786
161,1.61,0.067605,-0.066957,-0.15426199999999998,-0.090347,-0.046173,-0.014786
162,1.62,0.107047,-0.019193,-0.182302,-0.089279,-0.054688,-0.014786
163,1.63,0.11749200000000001,-0.0008470000000000001,-0.162882,-0.089279,-0.062149,-0.013718000000000001
164,1.64,0.128209,-0.028199000000000002,-0.18249200000000002,-0.086075,-0.069595,-0.01265
165,1.65,0.128806,-0.055689999999999996,-0.202874,-0.088211,-0.077057,-0.011581000000000001
166,1.66,0.07753600000000001,-0.045023,-0.185401,-0.092468,-0.086639,-0.00946
167,1.67,0.059287,0.028301,-0.156918,-0.0914,-0.095169,-0.00946
168,1.68,0.058717,0.148298,-0.059468000000000014,-0.083954,-0.102631,-0.008392
169,1.69,0.07521,0.260448,-0.089491,-0.071167,-0.10688800000000001,-0.007324
170,1.7,0.100316,0.317289,-0.102538,-0.06051599999999999,-0.109024,-0.011581000000000001
171,1.71,0.134578,0.298448,-0.087602,-0.050934,-0.114349,-0.015839
172,1.72,0.146758,0.281052,-0.12514,-0.047729,-0.12286400000000001,-0.020111
173,1.73,0.209644,0.282648,-0.127051,-0.041336000000000005,-0.132446,-0.025436
174,1.74,0.281561,0.24235700000000002,-0.11955199999999999,-0.027496,-0.13884000000000002,-0.027556999999999998
175,1.75,0.286978,0.14814000000000002,-0.10926099999999998,-0.015778,-0.160156,-0.033951
176,1.76,0.27766199999999996,0.046952,-0.096326,-0.00618,-0.17613199999999998,-0.036087
177,1.77,0.190992,-0.048412000000000004,-0.084507,0.003403,-0.192108,-0.040344
178,1.78,0.16275699999999999,-0.123807,-0.14294,0.009796,-0.21554600000000002,-0.043549000000000004
179,1.79,0.125602,-0.17966300000000002,-0.290736,0.009796,-0.238983,-0.041412
180,1.8,0.158724,-0.239021,-0.400944,-0.001923,-0.26561,-0.037155
181,1.81,0.13989200000000002,-0.296489,-0.376733,-0.023224,-0.292236,-0.033951
182,1.82,0.099084,-0.260473,-0.23365500000000003,-0.040268,-0.320999,-0.025436
183,1.83,0.082558,-0.235548,-0.13888499999999998,-0.055191,-0.343369,-0.013718000000000001
184,1.84,0.06533,-0.21047800000000003,-0.12703299999999998,-0.065842,-0.356155,-0.00412
185,1.85,0.055325,-0.244905,-0.100845,-0.075424,-0.367874,0.0033260000000000004
186,1.86,0.040044,-0.23558400000000002,-0.135041,-0.082886,-0.37745700000000004,0.007599
187,1.87,0.062586,-0.23586500000000002,-0.09486499999999999,-0.086075,-0.380661,0.011856
188,1.88,-0.028814,-0.14099,-0.082665,-0.092468,-0.378525,0.011856
189,1.89,-0.14773499999999998,-0.09052,-0.07245499999999999,-0.092468,-0.37745700000000004,0.013977000000000002
190,1.9,-0.199101,0.032764,-0.058428999999999995,-0.0914,-0.372131,0.017181000000000002
191,1.91,-0.28483,0.076222,0.015993,-0.096741,-0.356155,0.011856
192,1.92,-0.38148200000000004,0.15896400000000002,0.006519,-0.103119,-0.338043,0.00972
193,1.93,-0.42608599999999996,0.16919800000000002,0.170133,-0.11804200000000001,-0.308228,0.003326
194,1.94,-0.472418,0.19369,0.33516799999999997,-0.134018,-0.27413899999999997,0.00013699999999999994
195,1.95,-0.531879,0.19603399999999999,0.45998900000000004,-0.138275,-0.238983,-0.008392
196,1.96,-0.59107,0.244889,0.520817,-0.131882,-0.198502,-0.017975
197,1.97,-0.623925,0.248817,0.640727,-0.120163,-0.14949,-0.038208
198,1.98,-0.78556,0.246058,0.879315,-0.100998,-0.077057,-0.058455999999999994
199,1.99,-0.924284,0.187675,0.9517,-0.073303,-0.007811999999999999,-0.080826
200,2.0,-1.111542,0.081608,0.944717,-0.033889999999999997,0.055038,-0.100006
201,2.01,-1.1651770000000001,-0.05169,0.727054,0.015121,0.105103,-0.11065699999999999
202,2.02,-1.178359,-0.191226,0.351097,0.06518600000000001,0.146652,-0.118103
203,2.03,-1.141106,-0.32144,-0.15093900000000002,0.091812,0.182861,-0.119171
204,2.04,-1.0302879999999999,-0.397493,-0.505831,0.093948,0.20843499999999998,-0.112778
205,2.05,-0.8862260000000001,-0.307211,-0.7238829999999999,0.084366,0.22334299999999999,-0.10105900000000001
206,2.06,-0.792482,-0.06051699999999999,-1.005174,0.072647,0.22334299999999999,-0.092545
207,2.07,-0.6835220000000001,0.21533000000000002,-1.128667,0.059860000000000003,0.210556,-0.094681
208,2.08,-0.545355,0.391924,-1.120083,0.044952,0.198853,-0.105331
209,2.09,-0.398492,0.407921,-1.091453,0.044952,0.192459,-0.118103
210,2.1,-0.241209,0.36645900000000003,-1.1105129999999999,0.044952,0.176468,-0.129822
211,2.11,-0.26256199999999996,0.26302,-1.192275,0.044952,0.16581700000000002,-0.13089
212,2.12,-0.336067,0.157461,-1.296833,0.032166,0.160492,-0.128769
213,2.13,-0.483917,0.168677,-1.332091,0.005538999999999999,0.159424,-0.12344400000000001
214,2.14,-0.692453,0.219302,-1.212823,-0.036011,0.16581700000000002,-0.122375
215,2.15,-0.782621,0.351541,-1.058119,-0.08075,0.181793,-0.12449600000000001
216,2.16,-0.828624,0.462521,-0.810231,-0.11483800000000001,0.21694899999999998,-0.13089
217,2.17,-0.818106,0.533783,-0.5688270000000001,-0.134018,0.258499,-0.13089
218,2.18,-0.7371850000000001,0.5559270000000001,-0.47678000000000004,-0.12443499999999999,0.296844,-0.129822
219,2.19,-0.656079,0.411946,-0.5247,-0.09567300000000001,0.322418,-0.126633
220,2.2,-0.5796819999999999,0.250496,-0.692249,-0.069031,0.337326,-0.12344400000000001
221,2.21,-0.621192,0.048918,-0.9177770000000001,-0.053055,0.34158299999999997,-0.11705
222,2.22,-0.638041,-0.188631,-1.047256,-0.054123000000000004,0.333069,-0.112778
223,2.23,-0.652998,-0.377155,-1.198826,-0.073303,0.328812,-0.112778
224,2.24,-0.659696,-0.612412,-1.226586,-0.10418699999999999,0.323486,-0.118103
225,2.25,-0.685796,-0.740129,-1.1130719999999998,-0.138275,0.319214,-0.121307
226,2.26,-0.644724,-0.841284,-1.037508,-0.160645,0.311768,-0.12344400000000001
227,2.27,-0.653546,-0.910449,-1.1085,-0.176636,0.301117,-0.118103
228,2.28,-0.5963609999999999,-0.9925370000000001,-1.256332,-0.189407,0.286194,-0.11491400000000002
229,2.29,-0.55619,-1.0803530000000001,-1.3240180000000001,-0.20645100000000002,0.27021799999999996,-0.112778
230,2.3,-0.567962,-1.1325889999999998,-1.406007,-0.22563200000000003,0.25531,-0.10745199999999999
231,2.31,-0.533168,-1.189406,-1.4833969999999999,-0.250137,0.237198,-0.098938
232,2.32,-0.50747,-1.134334,-1.54197,-0.273575,0.222275,-0.085083
233,2.33,-0.550076,-1.1181649999999999,-1.6033979999999999,-0.289551,0.204178,-0.072296
234,2.34,-0.514938,-1.134782,-1.7231029999999998,-0.30127,0.182861,-0.058455999999999994
235,2.35,-0.596092,-1.123162,-1.7438040000000001,-0.318314,0.173279,-0.044601
236,2.36,-0.690426,-1.077372,-1.7148139999999998,-0.336426,0.174347,-0.036087
237,2.37,-0.815607,-0.9138879999999999,-1.7195040000000001,-0.349197,0.179672,-0.028625
238,2.38,-0.908011,-0.7238220000000001,-1.793149,-0.35133400000000004,0.188187,-0.025436
239,2.39,-0.9015219999999999,-0.53715,-1.765956,-0.346008,0.202042,-0.025436
240,2.4,-0.882758,-0.33176500000000003,-1.728129,-0.330032,0.218018,-0.028625
241,2.41,-0.805489,-0.11668099999999999,-1.7223540000000002,-0.308716,0.2276,-0.032882999999999996
242,2.42,-0.685723,0.036301,-1.800614,-0.279953,0.2276,-0.036087
243,2.43,-0.60373,0.219925,-1.947727,-0.249069,0.220154,-0.029693999999999998
244,2.44,-0.524188,0.420966,-2.1051729999999997,-0.214981,0.20310999999999998,-0.016907
245,2.45,-0.48869399999999996,0.798824,-2.095402,-0.175568,0.17541500000000002,-0.001998999999999999
246,2.46,-0.492579,1.2054129999999998,-2.243403,-0.11483800000000001,0.134933,0.012924
247,2.47,-0.461111,1.593966,-2.423109,-0.054123000000000004,0.081665,0.01825
248,2.48,-0.28592,1.858269,-2.515643,0.00019800000000000023,0.018814000000000004,0.01825
249,2.49,-0.033611,2.162947,-2.6779509999999997,0.035355000000000004,-0.05043,0.007599000000000002
250,2.5,0.33035799999999993,2.331815,-2.559598,0.031097000000000003,-0.123932,-0.009459999999999998
251,2.51,0.594198,2.471847,-1.733257,-0.016846,-0.166534,-0.029693999999999998
252,2.52,0.450351,3.0603860000000003,-0.792315,-0.071167,-0.205963,-0.058455999999999994
253,2.53,0.148606,3.706374,-0.08479000000000002,-0.19368,-0.251755,-0.13089
254,2.54,0.015633,3.8758,1.031139,-0.35347,-0.264542,-0.23529099999999997
255,2.55,0.4790110000000001,3.448575,2.257977,-0.365173,-0.238983,-0.291748
256,2.56,1.170572,2.726238,2.778645,-0.203262,-0.24217199999999997,-0.280029
257,2.57,1.852157,1.6314170000000001,2.634211,-0.012573,-0.295441,-0.201202
258,2.58,2.437518,0.539283,2.234311,0.097137,-0.434982,-0.10105900000000001
259,2.59,2.5148580000000003,-0.143584,1.9322130000000002,0.112061,-0.603302,-0.020111000000000004
260,2.6,1.9832290000000001,-0.38610700000000003,1.765736,0.055603,-0.754562,0.039550999999999996
261,2.61,1.167801,-0.423466,1.656147,-0.014709,-0.839783,0.088547
262,2.62,0.13762200000000002,-0.46577799999999997,1.6191200000000001,-0.079697,-0.842987,0.141815
263,2.63,-0.7752640000000001,-0.479084,1.589063,-0.120163,-0.771606,0.191879
264,2.64,-1.1903350000000001,-0.439694,1.516559,-0.11804200000000001,-0.6427149999999999,0.22384600000000002
265,2.65,-1.401717,-0.25295500000000004,1.41129,-0.07435599999999999,-0.5170140000000001,0.235565
266,2.66,-1.298424,-0.043134999999999986,1.174005,-0.008316000000000004,-0.42221099999999995,0.235565
267,2.67,-1.048908,0.11923399999999999,0.868223,0.057724,-0.35083000000000003,0.22171
268,2.68,-0.740888,0.130395,0.693787,0.113129,-0.294373,0.208923
269,2.69,-0.349436,0.145489,0.49294499999999997,0.166382,-0.24856599999999998,0.216385
270,2.7,0.114254,0.11428900000000002,0.311925,0.21858200000000003,-0.21554600000000002,0.238754
271,2.71,0.5057619999999999,-0.09376,0.095105,0.265457,-0.209152,0.262192
272,2.72,0.75107,-0.387937,-0.116798,0.299545,-0.227264,0.28881799999999996
273,2.73,0.850742,-0.779207,-0.21974499999999997,0.311264,-0.262421,0.312256
274,2.74,0.8710610000000001,-1.245688,-0.262801,0.309128,-0.28584299999999996,0.327164
275,2.75,0.737576,-1.567387,-0.439424,0.301682,-0.28584299999999996,0.334625
276,2.76,0.4751,-1.83361,-0.633486,0.278244,-0.261353,0.327164
277,2.77,0.09442,-2.033268,-0.802855,0.24201999999999999,-0.22938499999999998,0.31012
278,2.78,-0.220525,-2.143765,-0.9513010000000001,0.194077,-0.20701599999999998,0.290955
279,2.79,-0.49979399999999996,-2.133077,-0.9231,0.15466300000000002,-0.182526,0.27284200000000003
280,2.8,-0.56204,-2.1049849999999997,-0.9411120000000001,0.126968,-0.152695,0.26326
281,2.81,-0.41571499999999995,-1.94895,-0.9147190000000001,0.106735,-0.11328099999999999,0.260056
282,2.82,-0.148048,-1.75443,-0.8772770000000001,0.08862300000000001,-0.06640599999999999,0.256866
283,2.83,0.084781,-1.589596,-0.775543,0.080093,-0.021667,0.24408000000000002
284,2.84,0.27976599999999996,-1.389923,-0.790938,0.080093,0.009231999999999999,0.225967
285,2.85,0.369952,-1.360501,-0.874396,0.08969099999999999,0.037994,0.20680199999999999
286,2.86,0.44333100000000003,-1.345569,-1.108745,0.095016,0.056107000000000004,0.181229
287,2.87,0.508857,-1.3868969999999998,-1.338825,0.087555,0.060364,0.15779100000000001
288,2.88,0.601062,-1.38754,-1.4285729999999999,0.06518600000000001,0.068878,0.138626
289,2.89,0.7533489999999999,-1.4174799999999999,-1.414874,0.04068,0.06675700000000001,0.123703
290,2.9,0.750217,-1.420475,-1.2960049999999999,0.01619,0.062485,0.105591
291,2.91,0.658449,-1.2442870000000001,-1.105101,0.0023350000000000003,0.06994600000000001,0.083221
292,2.92,0.47616400000000003,-0.8482299999999999,-1.008311,0.003403,0.094452,0.057663
293,2.93,0.316215,-0.136741,-1.040608,0.023636,0.123215,0.02037
294,2.94,0.172343,0.6407500000000002,-1.209902,0.06518600000000001,0.150909,-0.014786000000000002
295,2.95,0.09196499999999999,1.4052360000000002,-1.343734,0.130173,0.17541500000000002,-0.043549000000000004
296,2.96,0.039663,1.798397,-1.498582,0.212189,0.202042,-0.061646000000000006
297,2.97,0.09701300000000003,1.947988,-1.6573830000000003,0.29422,0.22866799999999998,-0.06485
298,2.98,0.332286,1.903185,-1.8780290000000002,0.354935,0.259567,-0.039276
299,2.99,0.619291,1.878622,-2.106404,0.39009099999999997,0.281937,0.011856000000000002
300,3.0,1.062914,1.964091,-2.405968,0.40181,0.298981,0.10986300000000002
301,3.01,1.622225,1.9013650000000002,-2.637912,0.398621,0.289398,0.20573400000000003
302,3.02,1.829518,1.6405150000000002,-2.5146450000000002,0.376236,0.242523,0.26326
303,3.03,1.5732549999999998,1.384276,-2.3672779999999998,0.357071,0.195648,0.270706
304,3.04,1.06463,1.254153,-2.2319400000000003,0.356003,0.159424,0.233429
305,3.05,0.542288,1.313631,-2.1130880000000003,0.351746,0.138123,0.18548599999999998
306,3.06,-0.09716700000000003,1.8835790000000001,-1.452585,0.30806,0.136002,0.14820899999999998
307,3.07,-0.695401,3.1355049999999998,-0.635126,0.211121,0.179672,0.17697100000000002
308,3.08,-1.062052,4.04845,0.44573900000000005,0.033234,0.290451,0.260056
309,3.09,-0.585774,3.538504,2.397585,-0.13295,0.382065,0.334625
310,3.1,0.037889000000000006,2.4003240000000003,4.394049,-0.136154,0.339462,0.404938
311,3.11,0.270219,1.138829,5.779979,0.032166,0.292587,0.463531
312,3.12,0.174703,0.012268999999999973,5.916352,0.283569,0.293655,0.43688999999999995
313,3.13,-0.31552100000000005,-0.318631,5.0921400000000006,0.48703,0.336258,0.350601
314,3.14,-0.7411260000000001,0.113549,3.7708589999999997,0.595688,0.40124499999999996,0.290955
315,3.15,-0.801508,0.736379,2.250699,0.5946199999999999,0.484329,0.264313
316,3.16,-0.462528,0.9308569999999999,1.418026,0.517929,0.55571,0.229172
317,3.17,-0.358417,1.16072,1.144777,0.42311099999999996,0.549316,0.179092
318,3.18,-0.277982,1.2467700000000002,0.992727,0.331497,0.486465,0.107727
319,3.19,-0.182429,0.8760129999999999,1.0086950000000001,0.228165,0.430008,0.007599000000000002
320,3.2,0.112795,0.35541300000000003,1.072463,0.130173,0.386337,-0.07975800000000001
321,3.21,0.499331,0.179558,1.057116,0.057724,0.339462,-0.16178900000000002
322,3.22,0.833089,0.039508,0.941758,0.010864,0.276611,-0.229965
323,3.23,1.132806,-0.22763700000000006,0.696485,-0.015778,0.192459,-0.296005
324,3.24,1.183437,-0.541955,0.521208,-0.028564,0.10403399999999999,-0.35673499999999997
325,3.25,1.09752,-0.9503739999999999,0.369603,-0.028564,0.028397000000000002,-0.409988
326,3.26,0.875445,-1.335338,0.28022600000000003,-0.02536,-0.03978,-0.451538
327,3.27,0.59264,-1.7522229999999999,0.11246099999999999,-0.014709,-0.095169,-0.47816499999999995
328,3.28,0.28062600000000004,-2.244343,-0.10245500000000002,-0.007248,-0.156952,-0.485626
329,3.29,0.0064639999999999845,-2.662132,-0.27119299999999996,-0.01152,-0.216614,-0.479233
330,3.3,-0.187265,-2.929211,-0.456271,-0.031754000000000004,-0.26879899999999995,-0.460052
331,3.31,-0.261267,-3.05912,-0.55789,-0.06051599999999999,-0.31567399999999995,-0.428101
332,3.32,-0.267165,-3.034335,-0.615967,-0.096741,-0.357224,-0.391876
333,3.33,-0.33615100000000003,-2.9299310000000003,-0.641356,-0.14041099999999998,-0.39663699999999996,-0.35992399999999997
334,3.34,-0.34474499999999997,-2.716281,-0.627772,-0.173431,-0.43605,-0.32264699999999996
335,3.35,-0.366716,-2.437827,-0.62789,-0.19368,-0.46588100000000005,-0.28428600000000004
336,3.36,-0.432331,-2.218296,-0.6567529999999999,-0.19686900000000002,-0.49144,-0.244873
337,3.37,-0.470272,-2.019307,-0.612984,-0.191544,-0.514877,-0.20439100000000002
338,3.38,-0.491033,-1.7972029999999999,-0.6265539999999999,-0.176636,-0.541519,-0.166046
339,3.39,-0.546967,-1.559806,-0.5415300000000001,-0.148926,-0.561752,-0.128769
340,3.4,-0.610043,-1.298106,-0.44343699999999997,-0.097794,-0.571335,-0.10105900000000001
341,3.41,-0.784436,-1.042089,-0.409937,-0.023224,-0.571335,-0.07975800000000001
342,3.42,-1.029659,-0.8292950000000001,-0.49818500000000004,0.06837500000000002,-0.561752,-0.059525
343,3.43,-1.160458,-0.718182,-0.703434,0.157867,-0.559616,-0.04567
344,3.44,-1.257789,-0.7324109999999999,-1.0581610000000001,0.22390700000000002,-0.547913,-0.037155
345,3.45,-1.295046,-0.790572,-1.257333,0.251602,-0.528732,-0.032882999999999996
346,3.46,-1.224756,-0.664446,-1.456967,0.251602,-0.48931899999999995,-0.024368
347,3.47,-1.056786,-0.32587,-1.921011,0.23988299999999999,-0.445633,-0.019043
348,3.48,-1.011081,0.08053100000000002,-2.157294,0.209,-0.393448,-0.006256
349,3.49,-1.300655,0.800729,-2.162547,0.16745,-0.29863,0.00013699999999999994
350,3.5,-1.9506880000000002,1.9848279999999998,-2.130153,0.126968,-0.1772,-0.015839
351,3.51,-2.815847,3.096141,-1.954025,0.073715,-0.054688,-0.060592999999999994
352,3.52,-3.315486,3.798475,-1.6870049999999999,0.01619,0.039062,-0.11598199999999999
353,3.53,-3.180656,3.958639,-1.190624,-0.02536,0.10723900000000001,-0.149002
354,3.54,-2.213828,4.075901999999999,-0.653108,-0.041336000000000005,0.17009000000000002,-0.14793399999999998
355,3.55,-0.864484,4.32305,-0.0015049999999999786,-0.07223500000000001,0.22654699999999997,-0.158585
356,3.56,0.529979,4.818791,0.8134600000000001,-0.147873,0.24359099999999997,-0.20013399999999998
357,3.57,1.7696450000000001,4.8416879999999995,1.5937,-0.255463,0.23613,-0.287491
358,3.58,2.200098,3.831515,2.957552,-0.333221,0.162628,-0.38443
359,3.59,1.9033080000000002,2.225524,4.320194,-0.305527,0.049713,-0.449402
360,3.6,1.714589,0.728147,4.837414,-0.20858800000000002,-0.08984400000000001,-0.462189
361,3.61,1.382159,-0.49403400000000003,4.41865,-0.098862,-0.203827,-0.42703199999999997
362,3.62,0.8374510000000001,-1.487802,3.70091,0.006592000000000001,-0.355087,-0.35141
363,3.63,0.6675449999999999,-1.538642,2.8036659999999998,0.132294,-0.49783299999999997,-0.242752
364,3.64,0.521733,-1.0529,1.678489,0.25906399999999996,-0.579865,-0.108521
365,3.65,0.404675,-0.33802600000000005,0.738196,0.286758,-0.5649569999999999,0.019302
366,3.66,0.327191,0.353331,0.508644,0.20686300000000002,-0.5052949999999999,0.13009600000000002
367,3.67,-0.090271,0.85195,0.68152,0.10141,-0.448837,0.21318099999999998
368,3.68,-0.745138,1.003104,0.791529,0.033234,-0.371078,0.27816799999999997
369,3.69,-1.326386,0.819832,0.783583,0.004471000000000001,-0.270935,0.303741
370,3.7,-1.8169540000000002,0.3873,0.8466090000000001,-0.007247999999999998,-0.18571500000000002,0.294144
371,3.71,-1.927554,-0.04583099999999998,1.0346950000000001,-0.0051270000000000005,-0.115402,0.280304
372,3.72,-1.634007,-0.313434,1.096241,0.022583000000000002,-0.037643,0.282425
373,3.73,-1.013971,-0.543674,0.9681280000000001,0.059860000000000003,0.062485,0.299469
374,3.74,-0.261763,-0.750942,0.8065640000000001,0.100342,0.151978,0.327164
375,3.75,0.275267,-0.977615,0.597831,0.13336199999999998,0.20310999999999998,0.353806
376,3.76,0.614584,-1.306138,0.49596,0.157867,0.21162399999999998,0.374039
377,3.77,0.6201800000000001,-1.619815,0.34654,0.172775,0.19458,0.386826
378,3.78,0.484993,-1.981386,0.251123,0.181305,0.172211,0.40387
379,3.79,0.36972,-2.3149439999999997,0.076724,0.173843,0.163696,0.410263
380,3.8,0.256195,-2.499978,-0.10517,0.151474,0.159424,0.41133100000000006
381,3.81,0.151658,-2.5567450000000003,-0.202213,0.113129,0.162628,0.397476
382,3.82,0.07982899999999997,-2.558657,-0.272497,0.067322,0.187134,0.367645
383,3.83,0.04775,-2.479749,-0.40270900000000004,0.01619,0.22334299999999999,0.32504299999999997
384,3.84,-0.071619,-2.3350880000000003,-0.415951,-0.024291999999999998,0.263824,0.281357
385,3.85,-0.024319999999999998,-2.146389,-0.381155,-0.059448,0.30004899999999995,0.23982199999999998
386,3.86,0.0054490000000000025,-1.996703,-0.333939,-0.07756,0.336258,0.20573400000000003
387,3.87,0.140274,-1.8757080000000002,-0.310946,-0.07756,0.37887600000000005,0.172714
388,3.88,0.343033,-1.7969,-0.310861,-0.058379999999999994,0.40124499999999996,0.140747
389,3.89,0.6332909999999999,-1.6495919999999997,-0.38919899999999996,-0.026427999999999997,0.407639,0.10665899999999999
390,3.9,0.865236,-1.346198,-0.621089,0.009796,0.407639,0.062988
391,3.91,0.9785780000000001,-0.976246,-0.8113100000000001,0.044952,0.4151,0.008652
392,3.92,0.830368,-0.594902,-0.9216409999999999,0.08223,0.424683,-0.053131
393,3.93,0.48367200000000005,-0.35086,-0.906021,0.131226,0.433197,-0.105331
394,3.94,0.161827,-0.254359,-1.0299969999999998,0.18981900000000002,0.41296400000000005,-0.144745
395,3.95,0.044387,-0.207958,-1.293208,0.243088,0.37248200000000004,-0.15113800000000002
396,3.96,0.23390999999999998,-0.241914,-1.7754740000000002,0.286758,0.31709299999999996,-0.13409400000000002
397,3.97,0.536626,-0.13479000000000002,-2.290098,0.311264,0.254242,-0.088287
398,3.98,1.032006,0.23135800000000006,-2.5701650000000003,0.311264,0.177536,-0.0233
399,3.99,1.71523,0.821177,-2.8848279999999997,0.301682,0.09019500000000001,0.062988
400,4.0,2.282568,1.363987,-2.889637,0.270782,-0.007811999999999999,0.15033
401,4.01,2.500755,1.451592,-2.675521,0.211121,-0.115402,0.21106
402,4.02,2.082648,1.336834,-2.144567,0.135498,-0.202759,0.243011
403,4.03,1.2700040000000001,1.129416,-1.638024,0.077972,-0.260284,0.232361
404,4.04,-0.09212200000000004,1.51835,-1.0346879999999998,0.035355000000000004,-0.26879899999999995,0.21318099999999998
405,4.05,-1.487939,2.784837,0.01468999999999998,0.011917,-0.197433,0.20999099999999998
406,4.06,-2.480959,4.231937,1.101889,-0.06691,-0.079193,0.280304
407,4.07,-2.9410990000000004,4.638331,2.5152740000000002,-0.266113,0.06568899999999997,0.408127
408,4.08,-2.604193,3.8531169999999997,4.7609449999999995,-0.43016099999999996,0.205231,0.551941
409,4.09,-1.517152,2.669564,6.88168,-0.35347,0.25531,0.663788
410,4.1,-0.41601499999999997,1.520524,7.149472,-0.042404000000000004,0.244644,0.671249
411,4.11,0.355344,0.7976850000000001,6.041062999999999,0.303802,0.27021799999999996,0.5700529999999999
412,4.12,0.576752,1.0178530000000001,4.418767,0.554138,0.34053,0.43582200000000004
413,4.13,0.370847,1.753107,2.560501,0.6659999999999999,0.42361499999999996,0.32504299999999997
414,4.14,0.270924,2.341207,1.1416879999999998,0.6074069999999999,0.531204,0.238754
415,4.15,0.08137,2.5051810000000003,0.814134,0.452942,0.567429,0.138626
416,4.16,-0.161916,2.3037970000000003,0.9550879999999999,0.311264,0.517365,0.044876
417,4.17,-0.134712,1.7165419999999998,0.959614,0.20047,0.443863,-0.055252
418,4.18,0.175144,0.9777879999999999,0.8609600000000001,0.11418199999999999,0.369293,-0.140488
419,4.19,0.611214,0.470621,0.618211,0.049210000000000004,0.294724,-0.208664
420,4.2,0.894071,0.248398,0.276698,-0.004059,0.210556,-0.267242
421,4.21,1.092817,-0.028727000000000006,0.033339000000000014,-0.058379999999999994,0.122147,-0.321579
422,4.22,1.106803,-0.445888,-0.078707,-0.113785,0.040115,-0.371643
423,4.23,1.012813,-0.844974,0.009389999999999996,-0.163849,-0.021667,-0.414261
424,4.24,0.801363,-1.228682,0.09564299999999999,-0.201126,-0.058945000000000004,-0.449402
425,4.25,0.437646,-1.566865,0.17566199999999998,-0.22349499999999997,-0.08238200000000001,-0.470718
426,4.26,0.098835,-1.895829,0.046113,-0.233093,-0.11328099999999999,-0.479233
427,4.27,-0.28821199999999997,-2.323469,-0.154277,-0.234146,-0.14949,-0.47709700000000005
428,4.28,-0.573104,-2.598001,-0.27481300000000003,-0.238419,-0.179321,-0.46965
429,4.29,-0.791432,-2.841048,-0.339785,-0.244812,-0.205963,-0.45793199999999995
430,4.3,-0.86593,-3.000757,-0.326734,-0.263977,-0.221939,-0.441956
431,4.31,-0.836385,-3.13469,-0.346026,-0.29274,-0.24005100000000001,-0.412125
432,4.32,-0.726322,-3.0427939999999998,-0.42473,-0.32576,-0.261353,-0.37803600000000004
433,4.33,-0.598659,-2.958027,-0.518219,-0.357727,-0.294373,-0.33969099999999997
434,4.34,-0.453614,-2.74585,-0.576753,-0.38221700000000003,-0.339111,-0.29281599999999997
435,4.35,-0.332973,-2.529727,-0.641289,-0.402466,-0.385986,-0.252335
436,4.36,-0.301359,-2.4224810000000003,-0.691492,-0.415253,-0.42965699999999996,-0.20546
437,4.37,-0.300861,-2.383773,-0.668381,-0.418442,-0.46588100000000005,-0.162857
438,4.38,-0.488594,-2.299893,-0.609765,-0.413116,-0.49676499999999996,-0.119171
439,4.39,-0.6713560000000001,-2.0807759999999997,-0.557767,-0.40033,-0.524475,-0.0755
440,4.4,-0.9289040000000001,-1.7021540000000002,-0.41311499999999995,-0.36730999999999997,-0.536194,-0.035019
441,4.41,-1.140236,-1.217686,-0.37901,-0.31510900000000003,-0.537247,0.005462999999999999
442,4.42,-1.193957,-0.518845,-0.48854200000000003,-0.24800100000000003,-0.5308689999999999,0.045944
443,4.43,-1.254624,0.01141600000000001,-0.5969439999999999,-0.158524,-0.5052949999999999,0.070435
444,4.44,-1.3242200000000002,0.429688,-0.7378439999999999,-0.07330300000000001,-0.460556,0.085358
445,4.45,-1.564396,0.699026,-0.9712629999999999,0.006592000000000001,-0.405167,0.083221
446,4.46,-1.7808950000000001,1.001368,-1.4900870000000002,0.06304900000000001,-0.342316,0.068314
447,4.47,-2.078534,1.283877,-1.7859169999999998,0.099274,-0.272003,0.053390999999999994
448,4.48,-2.543933,2.221013,-2.264839,0.107803,-0.140976,0.0012050000000000012
449,4.49,-3.011494,2.769234,-2.380132,0.046005,-0.038712,-0.06271399999999999
450,4.5,-3.2866720000000003,2.953231,-2.114512,-0.086075,0.073151,-0.15007
451,4.51,-3.068192,3.168788,-1.550934,-0.23735,0.183929,-0.21398899999999998
452,4.52,-2.3111,3.6807769999999995,-0.9483209999999999,-0.35026599999999997,0.26168800000000003,-0.251266
453,4.53,-1.1257610000000002,4.5072,0.07114600000000004,-0.45892299999999997,0.303238,-0.277893
454,4.54,0.080183,5.2937129999999994,1.318298,-0.586761,0.379944,-0.30027800000000004
455,4.55,1.403856,5.411425,2.908317,-0.7625270000000001,0.463028,-0.345016
456,4.56,1.918273,5.094393,4.889632,-0.823242,0.409775,-0.395081
457,4.57,2.2171819999999998,4.336746,6.1628870000000004,-0.742279,0.306442,-0.451538
458,4.58,2.102808,2.848566,6.342549,-0.542007,0.148773,-0.471771
459,4.59,1.661675,0.8382370000000001,6.132915000000001,-0.19261199999999998,-0.003555000000000002,-0.425964
460,4.6,1.6816240000000002,-0.43932899999999997,4.585416,0.254807,-0.099426,-0.307724
461,4.61,1.8788040000000001,-0.8314590000000001,2.138826,0.583969,-0.178253,-0.182022
462,4.62,1.658094,-0.8202020000000001,0.234513,0.675583,-0.269867,-0.066971
463,4.63,1.113768,-0.703282,-0.621999,0.576508,-0.322067,0.024643
464,4.64,0.45625,-0.509278,-0.896576,0.39115900000000003,-0.320999,0.105591
465,4.65,-0.180698,-0.38267199999999996,-0.6159060000000001,0.195145,-0.301834,0.171646
466,4.66,-0.7584489999999999,-0.454143,-0.03427199999999997,0.042815999999999986,-0.260284,0.224899
467,4.67,-1.185196,-0.463922,0.678823,-0.06051599999999999,-0.196365,0.25154099999999996
468,4.68,-1.426711,-0.5268550000000001,1.326871,-0.120163,-0.11860699999999999,0.24940500000000002
469,4.69,-1.528314,-0.661334,1.8056400000000001,-0.115906,-0.030182,0.23129299999999997
470,4.7,-1.313217,-0.826477,1.9950849999999998,-0.064774,0.048645,0.207855
471,4.71,-0.8727659999999999,-1.056883,1.8565770000000001,0.005538999999999999,0.101913,0.197205
472,4.72,-0.312629,-1.3069309999999998,1.584958,0.076904,0.143448,0.200409
473,4.73,0.308467,-1.639232,1.234253,0.13761900000000002,0.173279,0.229172
474,4.74,0.7976479999999999,-1.9812349999999999,0.9292389999999999,0.17491099999999998,0.192459,0.260056
475,4.75,1.139353,-2.1943040000000003,0.712886,0.18981900000000002,0.20629899999999998,0.285629
476,4.76,1.171376,-2.347495,0.49300600000000006,0.187698,0.218018,0.29841599999999996
477,4.77,0.963709,-2.383101,0.285197,0.169586,0.23294099999999998,0.295212
478,4.78,0.657762,-2.317657,0.027667,0.14294400000000002,0.24784899999999999,0.27816799999999997
479,4.79,0.40757600000000005,-2.166454,-0.126288,0.10141,0.258499,0.255798
480,4.8,0.25551199999999996,-2.004962,-0.11473,0.055603,0.26915,0.230225
481,4.81,0.25300900000000004,-1.7956990000000002,-0.14288,0.022583000000000002,0.28512600000000005,0.19401600000000002
482,4.82,0.351743,-1.6677970000000002,-0.169379,0.007659999999999999,0.303238,0.160995
483,4.83,0.42292299999999994,-1.509941,-0.243815,0.003403,0.320282,0.12051400000000001
484,4.84,0.5952,-1.398648,-0.292704,0.009796,0.320282,0.088547
485,4.85,0.7589060000000001,-1.2949709999999999,-0.325598,0.020447,0.319214,0.054459
486,4.86,0.911459,-1.310645,-0.342659,0.052399,0.305374,0.019302
487,4.87,0.948586,-1.2769979999999999,-0.436708,0.129105,0.292587,-0.050995
488,4.88,0.8712479999999999,-1.263231,-0.7163689999999999,0.193024,0.292587,-0.102127
489,4.89,0.72025,-1.172554,-1.186464,0.251602,0.294724,-0.15219100000000002
490,4.9,0.5328510000000001,-1.098839,-1.699975,0.291016,0.290451,-0.18948399999999999
491,4.91,0.22594,-1.148405,-2.055932,0.30806,0.301117,-0.219315
492,4.92,-0.134712,-1.206761,-2.348938,0.30806,0.313889,-0.241684
493,4.93,-0.342258,-1.238626,-2.519471,0.289963,0.311768,-0.242752
494,4.94,-0.313269,-1.080862,-2.641579,0.264389,0.28512600000000005,-0.22464
495,4.95,-0.173582,-0.8068310000000001,-2.731246,0.23562600000000003,0.251038,-0.185226
496,4.96,0.332586,-0.278167,-2.719178,0.190887,0.176468,-0.112778
497,4.97,1.157078,0.49316400000000005,-2.4069599999999998,0.119522,0.051833999999999984,-0.0009310000000000012
498,4.98,2.0512740000000003,1.26991,-1.9544290000000002,0.049210000000000004,-0.074921,0.12796
499,4.99,2.696889,1.8717259999999998,-1.605127,-0.001923000000000001,-0.173996,0.220642
500,5.0,2.652847,2.198021,-1.385086,-0.01152,-0.227264,0.26326
501,5.01,2.000466,2.362479,-1.369417,0.052399,-0.22833299999999998,0.246216
502,5.02,0.8699319999999999,2.538218,-1.304627,0.140823,-0.200623,0.19508399999999998
503,5.03,-1.0748280000000001,3.253829,-0.592965,0.221786,-0.110077,0.146072
504,5.04,-2.439225,4.192393,0.132863,0.22283899999999998,0.023071,0.14714100000000002
505,5.05,-3.423459,4.839273,0.9985129999999999,-0.014709,0.167953,0.22277800000000003
506,5.06,-3.097586,4.263058999999999,3.2148890000000003,-0.288483,0.34158299999999997,0.34848
507,5.07,-1.276135,3.032701,5.373702,-0.31510900000000003,0.35543800000000003,0.516785
508,5.08,0.3768949999999999,2.003883,6.408507,-0.173431,0.239319,0.654205
509,5.09,1.6493490000000002,1.011226,6.324927,0.061996,0.127472,0.6819
510,5.1,2.349976,0.75236,5.4156260000000005,0.30593899999999996,0.062485,0.6126560000000001
511,5.11,2.068784,1.5394780000000001,3.726264,0.451874,-0.042969,0.524246
512,5.12,1.848407,2.210659,2.517715,0.498749,-0.022736,0.397476
513,5.13,1.032275,2.62515,1.6886169999999998,0.48384099999999997,0.009231999999999999,0.24940500000000002
514,5.14,0.06489299999999998,2.68969,1.226315,0.466797,0.011353,0.11198399999999999
515,5.15,-0.599774,2.3465279999999997,0.787216,0.44654799999999994,0.016678,-0.011581
516,5.16,-0.9725719999999999,1.435908,0.696225,0.385834,0.059296,-0.129822
517,5.17,-0.8907069999999999,0.406252,0.686855,0.296356,0.12428299999999999,-0.211853
518,5.18,-0.50807,-0.320858,0.683797,0.18556199999999998,0.169022,-0.254471
519,5.19,-0.009040999999999992,-0.818434,0.6010979999999999,0.076904,0.16688499999999998,-0.287491
520,5.2,0.425505,-1.15198,0.47911499999999996,-0.022171,0.114685,-0.316254
521,5.21,0.659193,-1.44546,0.450621,-0.103119,0.030533000000000005,-0.345016
522,5.22,0.610845,-1.567321,0.554245,-0.158524,-0.047226,-0.374832
523,5.23,0.533625,-1.72796,0.641123,-0.183014,-0.10688800000000001,-0.392944
524,5.24,0.44973,-2.0495389999999998,0.657417,-0.18728599999999998,-0.152695,-0.403595
525,5.25,0.32701199999999997,-2.493737,0.630444,-0.177689,-0.196365,-0.404663
526,5.26,0.191245,-2.973489,0.49292700000000006,-0.160645,-0.23684699999999997,-0.394012
527,5.27,-0.027266000000000002,-3.3189919999999997,0.363367,-0.139343,-0.269867,-0.380157
528,5.28,-0.349961,-3.564108,0.067619,-0.126556,-0.300766,-0.346069
529,5.29,-0.492835,-3.553643,-0.148227,-0.139343,-0.31567399999999995,-0.316254
530,5.3,-0.546844,-3.219903,-0.400194,-0.176636,-0.338043,-0.277893
531,5.31,-0.5596909999999999,-2.6970330000000002,-0.543125,-0.24267600000000003,-0.372131,-0.228897
532,5.32,-0.492713,-2.055973,-0.53738,-0.308716,-0.412613,-0.175629
533,5.33,-0.312554,-1.400261,-0.413709,-0.355591,-0.448837,-0.11598199999999999
534,5.34,-0.169818,-0.876784,-0.341375,-0.36730999999999997,-0.49038699999999996,-0.06591799999999999
535,5.35,-0.259146,-0.6464479999999999,-0.290308,-0.34494,-0.527664,-0.035019
536,5.36,-0.479045,-0.614633,-0.23790300000000003,-0.30127,-0.561752,-0.021164
537,5.37,-0.8650049999999999,-0.652483,-0.259203,-0.24693299999999999,-0.575607,-0.010513
538,5.38,-1.086899,-0.555419,-0.259585,-0.19261199999999998,-0.568146,0.0012049999999999995
539,5.39,-1.169575,-0.482821,-0.266893,-0.13295,-0.547913,0.02037
540,5.4,-1.107807,-0.354532,-0.263708,-0.07435599999999999,-0.5180819999999999,0.039550999999999996
541,5.41,-0.95325,-0.31047199999999997,-0.287018,-0.013641,-0.483994,0.057663
542,5.42,-0.838147,-0.250172,-0.35185900000000003,0.044952,-0.447769,0.068314
543,5.43,-0.783623,-0.060166,-0.5822930000000001,0.097137,-0.410492,0.057663
544,5.44,-0.874417,0.021971,-1.12048,0.15466300000000002,-0.376404,0.034225
545,5.45,-1.1010950000000002,0.144547,-1.6613639999999998,0.191956,-0.354034,0.008652
546,5.46,-1.390808,0.327287,-1.9944689999999998,0.203674,-0.287979,-0.005188
547,5.47,-1.834854,0.752714,-2.121411,0.18556199999999998,-0.194244,-0.016907
548,5.48,-2.507605,1.491591,-2.187753,0.123779,-0.0728,-0.040344
549,5.49,-3.068094,2.239373,-2.091154,0.027908,0.039062,-0.088287
550,5.5,-3.082223,2.819738,-1.922983,-0.061584,0.12107799999999999,-0.135147
551,5.51,-2.6320919999999997,3.067238,-1.540514,-0.116974,0.183929,-0.16391
552,5.52,-1.8061,3.155079,-1.186411,-0.144669,0.251038,-0.182022
553,5.53,-0.7169939999999999,3.358432,-0.5545360000000001,-0.21072399999999997,0.311768,-0.188416
554,5.54,0.354296,3.808125,0.14827,-0.322571,0.37355,-0.20439100000000002
555,5.55,1.402741,3.9866910000000004,1.043423,-0.457855,0.418289,-0.261917
556,5.56,1.753912,3.72485,2.296036,-0.5100560000000001,0.35436999999999996,-0.340744
557,5.57,1.584912,3.057159,3.713088,-0.45573400000000003,0.22973600000000002,-0.390823
558,5.58,1.498593,2.1341959999999998,4.344214,-0.348129,0.105103,-0.428101
559,5.59,1.225147,0.6846760000000001,4.3326199999999995,-0.24800100000000003,-0.037643,-0.428101
560,5.6,0.976591,-0.9415520000000001,4.29031,-0.120163,-0.19104000000000002,-0.349274
561,5.61,1.141837,-1.788815,3.647992,0.061996,-0.308228,-0.223572
562,5.62,1.367032,-1.789454,2.291541,0.207932,-0.401962,-0.086151
563,5.63,1.2030379999999998,-1.255794,0.9851139999999999,0.23350500000000002,-0.46374499999999996,0.015045
564,5.64,0.736771,-0.5962649999999999,0.45294799999999996,0.15361,-0.46374499999999996,0.07257100000000001
565,5.65,-0.07507400000000003,0.01241500000000001,0.499374,0.036423000000000004,-0.390244,0.097076
566,5.66,-1.032983,0.32006399999999996,0.659309,-0.062653,-0.269867,0.12796
567,5.67,-1.7687130000000002,0.420162,0.886035,-0.130829,-0.131393,0.163116
568,5.68,-2.101814,0.269075,1.188274,-0.158524,0.017745999999999998,0.186554
569,5.69,-2.0953619999999997,0.06046399999999999,1.4780469999999999,-0.14041099999999998,0.146652,0.184418
570,5.7,-1.8162080000000003,-0.126528,1.433033,-0.085022,0.240387,0.181229
571,5.71,-1.3127,-0.223937,1.119,-0.028564,0.322418,0.181229
572,5.72,-0.6736359999999999,-0.402913,0.820765,0.005538999999999999,0.38101199999999996,0.18975799999999998
573,5.73,-0.12275699999999999,-0.636886,0.6362359999999999,0.037491000000000003,0.41403199999999996,0.200409
574,5.74,0.31795,-0.8719030000000001,0.5287350000000001,0.079041,0.418289,0.22171
575,5.75,0.703761,-1.116908,0.445158,0.12803599999999998,0.409775,0.248337
576,5.76,0.944083,-1.2780340000000001,0.298035,0.17598,0.38739,0.270706
577,5.77,1.113342,-1.444504,0.124902,0.214325,0.35543800000000003,0.290955
578,5.78,1.150523,-1.638424,-0.16253800000000002,0.22711199999999998,0.31495700000000004,0.299469
579,5.79,1.088917,-1.8227740000000001,-0.4625,0.211121,0.26915,0.28775
580,5.8,0.948191,-1.935014,-0.602003,0.171707,0.23826599999999998,0.266449
581,5.81,0.72388,-1.950257,-0.618743,0.13868699999999998,0.22547899999999998,0.23982199999999998
582,5.82,0.5418810000000001,-1.967395,-0.6279399999999999,0.11525,0.22547899999999998,0.207855
583,5.83,0.397059,-1.950559,-0.694693,0.093948,0.22973600000000002,0.18229700000000001
584,5.84,0.32967199999999997,-1.842438,-0.7780729999999999,0.077972,0.230804,0.166321
585,5.85,0.352197,-1.817206,-0.966757,0.052399,0.22866799999999998,0.14714100000000002
586,5.86,0.33060100000000003,-1.7808130000000002,-1.0807639999999998,0.022583000000000002,0.230804,0.133286
587,5.87,0.343236,-1.81634,-1.239781,-0.012573,0.239319,0.12051400000000001
588,5.88,0.41917299999999996,-1.833445,-1.352708,-0.044539999999999996,0.251038,0.09919700000000001
589,5.89,0.53665,-1.851957,-1.412132,-0.07223500000000001,0.256363,0.066177
590,5.9,0.646832,-1.6752790000000002,-1.365621,-0.083954,0.25531,0.026764
591,5.91,0.59208,-1.398944,-1.3402530000000001,-0.083954,0.248917,-0.026505
592,5.92,0.49213100000000004,-0.972404,-1.268994,-0.075424,0.24998499999999998,-0.074432
593,5.93,0.383882,-0.401348,-1.2721559999999998,-0.047729,0.24784899999999999,-0.113846
594,5.94,0.413238,0.07912300000000001,-1.433818,-0.005126999999999996,0.24145500000000003,-0.145813
595,5.95,0.44571000000000005,0.33679499999999996,-1.5579459999999998,0.035355000000000004,0.22334299999999999,-0.162857
596,5.96,0.545203,0.374177,-1.638116,0.079041,0.200974,-0.149002
597,5.97,0.656887,0.467872,-1.9238819999999999,0.106735,0.177536,-0.12023900000000001
598,5.98,0.8097979999999999,0.547296,-2.067618,0.131226,0.141327,-0.0755
599,5.99,0.9803430000000001,0.8426379999999999,-2.063871,0.15361,0.079529,-0.008391999999999997
600,6.0,1.396037,1.417274,-2.153352,0.156799,0.015625,0.076828
601,6.01,1.784891,1.75485,-2.09835,0.140823,-0.046173,0.14714100000000002
602,6.02,1.8288529999999998,1.971775,-2.180629,0.112061,-0.10688800000000001,0.197205
603,6.03,1.578158,1.992332,-2.259374,0.080093,-0.178253,0.224899
604,6.04,1.136473,2.258449,-1.9290900000000002,0.038558999999999996,-0.267746,0.236618
605,6.05,0.5432350000000001,3.028771,-1.324497,-0.015778,-0.372131,0.26965300000000003
606,6.06,-0.290105,4.175897,-0.344509,-0.125504,-0.42858900000000005,0.338882
607,6.07,-0.997808,4.770435,0.980781,-0.284225,-0.39770500000000003,0.429443
608,6.08,-0.9633940000000001,4.271169,3.0188349999999997,-0.38116500000000003,-0.313553,0.509338
609,6.09,-0.07374299999999999,3.3368900000000004,4.7672360000000005,-0.288483,-0.269867,0.549805
610,6.1,0.338435,2.279235,5.525797,-0.097794,-0.24005100000000001,0.543427
611,6.11,0.166388,0.946918,5.439080000000001,0.08969099999999999,-0.145233,0.488022
612,6.12,-0.201824,-0.260218,4.872375,0.24201999999999999,-0.015273999999999998,0.384689
613,6.13,-0.8433299999999999,-0.326548,3.5967559999999996,0.329376,0.126404,0.294144
614,6.14,-1.007205,0.169697,2.5565759999999997,0.345352,0.2798,0.17804
615,6.15,-1.040497,0.618107,1.930264,0.341095,0.383133,0.045944
616,6.16,-1.102028,0.966995,1.50546,0.34321599999999997,0.417221,-0.053131
617,6.17,-0.923391,1.019784,1.205271,0.331497,0.41082799999999997,-0.126633
618,6.18,-0.49871899999999997,0.585494,0.9554809999999999,0.292084,0.382065,-0.180954
619,6.19,0.072297,-0.12353200000000004,0.642107,0.221786,0.326675,-0.20652800000000002
620,6.2,0.8203799999999999,-0.743969,0.38916300000000004,0.131226,0.239319,-0.217178
621,6.21,1.367466,-0.943315,0.2431,0.04921,0.115753,-0.23208600000000001
622,6.22,1.745834,-0.8074979999999999,0.268167,-0.022171,-0.021667,-0.255524
623,6.23,1.708361,-0.600923,0.43613599999999997,-0.075424,-0.146301,-0.29388400000000003
624,6.24,1.3884729999999998,-0.409595,0.6192409999999999,-0.098862,-0.24324,-0.336487
625,6.25,0.973676,-0.374948,0.745408,-0.096741,-0.310349,-0.3759
626,6.26,0.424249,-0.46408599999999994,0.8963530000000001,-0.07649199999999999,-0.36254899999999995,-0.403595
627,6.27,-0.07552999999999999,-0.651404,0.9253790000000001,-0.049866,-0.40303,-0.416382
628,6.28,-0.422266,-0.9783059999999999,0.9137290000000001,-0.010452,-0.42965699999999996,-0.42063900000000004
629,6.29,-0.753329,-1.3583969999999999,0.760434,0.032166,-0.44458000000000003,-0.414261
630,6.3,-0.894634,-1.677328,0.52412,0.070511,-0.45735200000000004,-0.394012
631,6.31,-0.9594799999999999,-1.9400689999999998,0.220004,0.095016,-0.46588100000000005,-0.370575
632,6.32,-0.9540930000000001,-2.1199380000000003,-0.098932,0.095016,-0.474396,-0.33969099999999997
633,6.33,-0.94089,-2.2436380000000002,-0.43826099999999996,0.06944299999999999,-0.48931899999999995,-0.311981
634,6.34,-0.9273790000000001,-2.301813,-0.601906,0.028961,-0.49996899999999994,-0.280029
635,6.35,-0.942284,-2.324,-0.6915979999999999,-0.017899,-0.502106,-0.23848000000000003
636,6.36,-0.9731690000000001,-2.292325,-0.712983,-0.057312,-0.493576,-0.19906600000000002
637,6.37,-1.0633299999999999,-2.264357,-0.7862100000000001,-0.09567300000000001,-0.4776,-0.16178900000000002
638,6.38,-1.1675879999999998,-2.2130970000000003,-0.795959,-0.125504,-0.45523100000000005,-0.128769
639,6.39,-1.533333,-2.077379,-0.8579959999999999,-0.148926,-0.408356,-0.08934
640,6.4,-1.7716490000000003,-1.861574,-0.8950229999999999,-0.148926,-0.364685,-0.06591799999999999
641,6.41,-1.8029220000000001,-1.635429,-0.900647,-0.134018,-0.31781,-0.040344
642,6.42,-1.771465,-1.415575,-0.876276,-0.10206599999999999,-0.273071,-0.00946
643,6.43,-1.4977610000000001,-1.138709,-1.022515,-0.059448,-0.235779,0.026764
644,6.44,-1.1947020000000002,-0.813213,-1.1547479999999999,-0.016846,-0.21022,0.059784000000000004
645,6.45,-0.906299,-0.580882,-1.343002,0.030029000000000004,-0.194244,0.089615
646,6.46,-0.64887,-0.325546,-1.454183,0.073715,-0.193176,0.118378
647,6.47,-0.575575,0.008275000000000005,-1.67275,0.11418199999999999,-0.194244,0.134354
648,6.48,-0.657744,0.544778,-1.9644810000000001,0.15040599999999998,-0.184647,0.153534
649,6.49,-0.7518239999999999,0.658217,-2.006374,0.158936,-0.150558,0.162048
650,6.5,-1.154125,0.737262,-2.023688,0.13656600000000002,-0.101562,0.139679
651,6.51,-1.78929,0.874238,-1.890928,0.068375,-0.037643,0.07470700000000001
652,6.52,-2.3958,1.00949,-1.674734,-0.029617,0.042252,-0.013718
653,6.53,-2.599001,1.103045,-1.413693,-0.103119,0.130661,-0.088287
654,6.54,-2.223073,1.3185360000000002,-1.229986,-0.127625,0.202042,-0.137283
655,6.55,-1.381708,1.780657,-1.017197,-0.15213,0.252106,-0.157532
656,6.56,-0.24095900000000006,2.712084,-0.58503,-0.23521399999999998,0.26808200000000004,-0.180954
657,6.57,1.093481,3.7491589999999997,0.244131,-0.383286,0.24359099999999997,-0.222504
658,6.58,2.270189,4.128016000000001,1.517575,-0.557999,0.205231,-0.29068
659,6.59,2.5293080000000003,3.5481239999999996,3.36306,-0.651733,0.10935999999999998,-0.35673499999999997
660,6.6,2.36522,3.062332,4.7180919999999995,-0.616577,0.017745999999999998,-0.40679899999999997
661,6.61,2.058198,2.828047,5.1877580000000005,-0.502594,-0.06640599999999999,-0.45472700000000005
662,6.62,1.357186,2.40136,5.059671,-0.36730999999999997,-0.114349,-0.498413
663,6.63,0.44914799999999994,1.6503130000000001,4.691051,-0.20645100000000002,-0.17185999999999998,-0.484558
664,6.64,-0.081223,1.224876,3.9605879999999996,-0.009384000000000005,-0.22405999999999998,-0.392944
665,6.65,-0.035410000000000004,1.102487,2.694455,0.177032,-0.23684699999999997,-0.233154
666,6.66,0.299194,1.150839,1.5641399999999999,0.278244,-0.247498,-0.049927
667,6.67,0.478753,1.2737049999999999,0.9810760000000001,0.265457,-0.26561,0.083221
668,6.68,0.161183,1.064079,0.9538540000000001,0.195145,-0.279465,0.172714
669,6.69,-0.494709,0.6416649999999999,0.946259,0.11418199999999999,-0.23259000000000002,0.235565
670,6.7,-1.297407,0.291339,0.813897,0.03749099999999999,-0.115402,0.273911
671,6.71,-1.9346400000000001,0.111524,0.731899,-0.042404000000000004,0.03266899999999998,0.295212
672,6.72,-2.126801,0.016392,0.8928659999999999,-0.097794,0.173279,0.31546
673,6.73,-1.849171,0.141989,1.163052,-0.09567300000000001,0.297913,0.33569299999999996
674,6.74,-1.136957,0.073893,1.274266,-0.038147,0.391663,0.350601
675,6.75,-0.47505600000000003,-0.029021,1.2378049999999998,0.052399,0.444916,0.364456
676,6.76,0.041233999999999986,-0.42773500000000003,0.935514,0.139755,0.46835299999999996,0.372971
677,6.77,0.337915,-0.962608,0.579765,0.202606,0.479004,0.380432
678,6.78,0.574473,-1.597374,0.251512,0.237762,0.484329,0.388962
679,6.79,0.679176,-2.15803,0.016993000000000008,0.25054899999999997,0.47474700000000003,0.384689
680,6.8,0.7419140000000001,-2.5497959999999997,-0.15634,0.25054899999999997,0.453445,0.3815
681,6.81,0.730444,-2.8328759999999997,-0.316444,0.238831,0.40657,0.36659200000000003
682,6.82,0.636474,-2.92405,-0.451287,0.207932,0.3629,0.342087
683,6.83,0.590842,-2.875884,-0.626325,0.16745,0.333069,0.313324
684,6.84,0.520787,-2.69778,-0.683412,0.11099200000000001,0.32135,0.2771
685,6.85,0.51313,-2.4607080000000003,-0.7482989999999999,0.055603,0.32135,0.23982199999999998
686,6.86,0.510065,-2.259804,-0.699625,0.009796,0.32560700000000004,0.19508399999999998
687,6.87,0.5256930000000001,-2.060859,-0.658401,-0.024291999999999998,0.339462,0.154602
688,6.88,0.574152,-1.949357,-0.678117,-0.042404000000000004,0.352249,0.118378
689,6.89,0.727845,-1.8878560000000002,-0.742634,-0.055191,0.35543800000000003,0.066177
690,6.9,0.8363360000000001,-1.885418,-0.800363,-0.055191,0.351181,0.031020999999999996
691,6.91,0.793516,-1.7404709999999999,-0.7815489999999999,-0.055191,0.350113,-0.006255999999999999
692,6.92,0.545523,-1.590623,-0.852361,-0.047729,0.358627,-0.039276
693,6.93,0.258972,-1.255633,-0.883855,-0.036011,0.382065,-0.07975800000000001
694,6.94,-0.046759,-0.9066719999999999,-1.00338,-0.017899,0.40231300000000003,-0.112778
695,6.95,-0.26122399999999996,-0.627494,-1.047942,-0.004059,0.422546,-0.146866
696,6.96,-0.268971,-0.364579,-1.1103690000000002,0.020447,0.42575100000000005,-0.167114
697,6.97,-0.213517,-0.15063900000000002,-1.198092,0.046005000000000004,0.407639,-0.169235
698,6.98,0.0064700000000000035,0.13162000000000001,-1.366863,0.086487,0.390594,-0.155396
699,6.99,0.22260300000000002,0.389586,-1.574965,0.12803599999999998,0.367157,-0.13089
700,7.0,0.49313199999999996,0.726096,-1.7321080000000002,0.162125,0.33413699999999996,-0.09787
701,7.01,0.927373,1.155901,-1.747684,0.173843,0.27873200000000004,-0.041412
702,7.02,1.5184879999999998,1.597618,-1.7020490000000001,0.161057,0.197784,0.053390999999999994
703,7.03,2.179598,1.852369,-1.581145,0.145081,0.11361700000000001,0.160995
704,7.04,2.403994,2.0048779999999997,-1.475271,0.14294400000000002,0.04332,0.240891
705,7.05,2.092899,2.000352,-1.6081860000000001,0.179169,-0.007812000000000001,0.27816799999999997
706,7.06,1.440411,1.8373400000000002,-1.860023,0.245209,-0.03125,0.27177399999999996
707,7.07,0.353194,1.7849279999999998,-2.020498,0.29740900000000003,-0.019531,0.230225
708,7.08,-1.136183,2.172386,-1.7227560000000002,0.293152,0.040115,0.20466600000000001
709,7.09,-2.133512,3.067027,-1.373885,0.198349,0.138123,0.224899
710,7.1,-2.581443,3.7305010000000003,-0.595333,-0.065842,0.224411,0.312256
711,7.11,-2.206454,3.6012989999999996,1.526307,-0.31192,0.3629,0.408127
712,7.12,-0.906689,2.675362,3.5457620000000003,-0.31192,0.42894,0.472046
713,7.13,0.19328199999999998,1.515835,4.846679,-0.15745499999999998,0.43640100000000004,0.49655200000000005
714,7.14,0.48645299999999997,0.259297,5.404168,0.04600499999999999,0.44705200000000006,0.46885699999999997
715,7.15,0.329592,-0.6866180000000001,5.1190050000000005,0.23243699999999998,0.49925200000000003,0.397476
716,7.16,-0.084872,-0.627379,4.352964,0.381577,0.56955,0.31864899999999996
717,7.17,-0.469258,0.463427,3.133432,0.45401,0.594055,0.280304
718,7.18,-0.540913,1.55254,2.126268,0.424179,0.639862,0.264313
719,7.19,-0.331868,2.2338880000000003,1.676897,0.349609,0.688873,0.21106
720,7.2,-0.425338,2.482965,1.555469,0.309128,0.659042,0.124771
721,7.21,-0.25252199999999997,2.281786,1.3549440000000001,0.30700700000000003,0.562103,0.029968
722,7.22,0.05687999999999999,1.4902819999999999,1.0210780000000002,0.282501,0.463028,-0.07869
723,7.23,0.45663100000000006,0.590837,0.875684,0.22071799999999997,0.394852,-0.167114
724,7.24,0.9469420000000001,0.08809600000000001,0.830037,0.149338,0.330933,-0.225708
725,7.25,1.3403530000000001,-0.14486400000000002,0.714182,0.083298,0.251038,-0.27577199999999996
726,7.26,1.5624360000000002,-0.33798,0.5642560000000001,0.030029000000000004,0.145584,-0.321579
727,7.27,1.50451,-0.44176400000000005,0.41381899999999994,-0.013641000000000006,0.032669,-0.379105
728,7.28,1.33091,-0.595484,0.370383,-0.047729,-0.063217,-0.435562
729,7.29,0.8802399999999999,-0.7719520000000001,0.428662,-0.069031,-0.131393,-0.47604399999999997
730,7.3,0.420872,-1.011996,0.446621,-0.069031,-0.165482,-0.504807
731,7.31,-0.090395,-1.365992,0.421458,-0.054123000000000004,-0.18571500000000002,-0.517578
732,7.32,-0.557062,-1.7145689999999998,0.330181,-0.033889999999999997,-0.19957,-0.517578
733,7.33,-0.9547399999999999,-2.0497330000000002,0.217848,-0.007248000000000002,-0.21022,-0.498413
734,7.34,-1.157581,-2.402085,0.06575399999999999,0.007659999999999999,-0.221939,-0.47390699999999997
735,7.35,-1.342335,-2.610841,-0.128217,0.012985,-0.22938499999999998,-0.438751
736,7.36,-1.3054459999999999,-2.770981,-0.29528499999999996,-0.009384,-0.226196,-0.401474
737,7.37,-1.238565,-2.683194,-0.49113500000000004,-0.046661,-0.221939,-0.363113
738,7.38,-1.1298290000000002,-2.456307,-0.604668,-0.088211,-0.21022,-0.3237
739,7.39,-1.0432299999999999,-2.209003,-0.656513,-0.122299,-0.197433,-0.282166
740,7.4,-0.9365559999999999,-1.930536,-0.691661,-0.1436,-0.18145799999999998,-0.242752
741,7.41,-0.833465,-1.671129,-0.6356539999999999,-0.156387,-0.172928,-0.20333900000000002
742,7.42,-0.864358,-1.47014,-0.611797,-0.156387,-0.166534,-0.169235
743,7.43,-0.984866,-1.3895,-0.502779,-0.14041099999999998,-0.150558,-0.141541
744,7.44,-1.10257,-1.281947,-0.535204,-0.115906,-0.123932,-0.11491400000000002
745,7.45,-1.244441,-1.152865,-0.6256970000000001,-0.07756,-0.08984400000000001,-0.094681
746,7.46,-1.3549129999999998,-1.003469,-0.718313,-0.028564,-0.052551,-0.0755
747,7.47,-1.307583,-0.8852190000000001,-0.8668530000000001,0.02684,-0.025925,-0.05632
748,7.48,-1.116663,-0.803401,-1.038466,0.073715,-0.003554999999999999,-0.039276
749,7.49,-0.8803,-0.8176680000000001,-1.317069,0.116318,0.017746,-0.019043
750,7.5,-0.566409,-0.8352350000000001,-1.514778,0.135498,0.031601,-0.0009309999999999996
751,7.51,-0.442629,-0.774997,-1.690708,0.145081,0.042252,0.015045
752,7.52,-0.393191,-0.674808,-1.89179,0.132294,0.050766000000000006,0.023575
753,7.53,-0.492145,-0.44353100000000006,-1.864818,0.10566700000000001,0.065689,0.037415
754,7.54,-0.71541,0.094779,-1.83712,0.06944299999999999,0.092316,0.050200999999999996
755,7.55,-1.1152520000000001,0.9002540000000001,-1.803316,0.019379,0.130661,0.038482999999999996
756,7.56,-1.571512,1.533447,-1.72439,-0.05519099999999999,0.167953,-0.0009310000000000012
757,7.57,-1.84484,1.733714,-1.36443,-0.122299,0.197784,-0.044601
758,7.58,-1.710908,1.623174,-1.0740299999999998,-0.147873,0.21162399999999998,-0.070175
759,7.59,-1.195079,1.484859,-0.9255530000000001,-0.1436,0.20950300000000002,-0.08189400000000001
760,7.6,-0.283262,1.7090009999999998,-0.8424010000000001,-0.139343,0.183929,-0.087219
761,7.61,0.695652,2.614109,-0.641015,-0.175568,0.12854000000000002,-0.11705
762,7.62,1.6511639999999999,3.793468,-0.26447,-0.27462800000000004,0.027343999999999997,-0.17244
763,7.63,2.241438,4.147451,0.504363,-0.43229700000000004,-0.088776,-0.255524
764,7.64,1.927071,3.2341759999999997,2.13102,-0.523911,-0.20808400000000002,-0.3237
765,7.65,1.343084,1.7974150000000002,3.652279,-0.45253000000000004,-0.259216,-0.343948
766,7.66,0.8844860000000001,0.52168,4.419355,-0.279953,-0.300766,-0.327972
767,7.67,0.56287,-0.457193,4.303307,-0.07969699999999999,-0.368942,-0.280029
768,7.68,0.37611500000000003,-0.876017,3.481013,0.067322,-0.461624,-0.25340300000000004
769,7.69,0.294879,-0.193051,2.5024759999999997,0.13336199999999998,-0.508484,-0.25766
770,7.7,-0.16914599999999996,1.0115379999999998,1.541758,0.106735,-0.535126,-0.26298499999999997
771,7.71,-0.5510229999999999,2.024696,1.263109,0.035355000000000004,-0.526596,-0.215042
772,7.72,-0.659337,2.601514,1.450141,0.023636,-0.461624,-0.126633
773,7.73,-0.611528,2.778613,1.4516360000000001,0.099274,-0.343369,-0.006255999999999998
774,7.74,-0.490727,2.318062,1.454156,0.18663,-0.234711,0.10133400000000001
775,7.75,-0.575179,1.436013,1.482141,0.24734499999999998,-0.1772,0.175903
776,7.76,-0.948277,0.692688,1.3647790000000002,0.27504,-0.143112,0.21106
777,7.77,-1.390932,0.318833,0.9910209999999999,0.27717600000000003,-0.090912,0.232361
778,7.78,-1.648522,0.242815,0.668619,0.256927,0.008163000000000005,0.253662
779,7.79,-1.59152,0.260815,0.530374,0.23243699999999998,0.129608,0.274979
780,7.8,-1.303197,0.07086400000000001,0.62048,0.226044,0.256363,0.29841599999999996
781,7.81,-0.9416399999999999,-0.167345,0.650454,0.243088,0.36183200000000004,0.31546
782,7.82,-0.568715,-0.596439,0.537068,0.272919,0.442795,0.327164
783,7.83,-0.291916,-1.0689790000000001,0.382343,0.28569,0.501373,0.332504
784,7.84,-0.08513,-1.553321,0.170448,0.272919,0.546127,0.331436
785,7.85,0.161406,-2.044163,0.032105,0.243088,0.5802149999999999,0.32504299999999997
786,7.86,0.32693099999999997,-2.376118,-0.148831,0.21006799999999998,0.6057739999999999,0.31971700000000003
787,7.87,0.564331,-2.534163,-0.26900999999999997,0.161057,0.6185609999999999,0.31012
788,7.88,0.74321,-2.589305,-0.306542,0.10566700000000001,0.6174930000000001,0.290955
789,7.89,0.777933,-2.526391,-0.259504,0.049210000000000004,0.6132350000000001,0.260056
790,7.9,0.722197,-2.416276,-0.21831799999999998,-0.004059,0.611099,0.22277800000000003
791,7.91,0.5817899999999999,-2.2799400000000003,-0.13478199999999999,-0.041336000000000005,0.612167,0.171646
792,7.92,0.474576,-2.109732,-0.197955,-0.061584,0.615356,0.11624100000000001
793,7.93,0.419595,-1.958115,-0.321923,-0.061584,0.6238859999999999,0.065109
794,7.94,0.579363,-1.888366,-0.48826099999999995,-0.056259,0.6238859999999999,0.013977000000000002
795,7.95,0.8283950000000001,-1.881091,-0.67383,-0.050934,0.615356,-0.024368
796,7.96,1.071821,-1.872211,-0.8236030000000001,-0.06051599999999999,0.591934,-0.05632
797,7.97,1.295583,-1.87253,-0.938531,-0.07756,0.559967,-0.085083
798,7.98,1.388662,-1.7583689999999998,-1.095487,-0.096741,0.525879,-0.113846
799,7.99,1.319086,-1.588589,-1.175314,-0.113785,0.492859,-0.141541
800,8.0,1.01946,-1.191423,-1.323801,-0.126556,0.44172700000000004,-0.185226
801,8.01,0.805388,-0.9810110000000001,-1.463349,-0.11804200000000001,0.404434,-0.210785
802,8.02,0.677121,-0.812861,-1.5148,-0.10206599999999999,0.356506,-0.22143600000000002
803,8.03,0.653185,-0.69755,-1.522329,-0.085022,0.304306,-0.215042
804,8.04,0.707952,-0.5040140000000001,-1.485036,-0.071167,0.251038,-0.19162
805,8.05,0.822523,-0.07054900000000003,-1.529988,-0.056259,0.20629899999999998,-0.15219100000000002
806,8.06,1.0200120000000001,0.5616359999999999,-1.673745,-0.037079,0.17541500000000002,-0.10745199999999999
807,8.07,1.156801,1.201474,-1.6700650000000001,-0.010452,0.136002,-0.06591799999999999
808,8.08,1.4065299999999998,1.673382,-1.6980080000000002,0.02684,0.089127,-0.015839
809,8.09,1.642034,1.8779430000000001,-1.681155,0.050277999999999996,0.029464999999999998,0.034225
810,8.1,1.7272470000000002,1.8185689999999999,-1.601132,0.059860000000000003,-0.037643,0.086426
811,8.11,1.394109,1.851837,-1.6790880000000001,0.06518600000000001,-0.063217,0.09814500000000001
812,8.12,0.58838,2.268741,-1.5732190000000001,0.080093,-0.0728,0.100266
813,8.13,-0.4000170000000001,3.091596,-1.4258790000000001,0.079041,-0.05575599999999999,0.126907
814,8.14,-1.351045,4.146486,-0.902903,0.025772,-0.013138,0.19401600000000002
815,8.15,-2.133954,4.6136669999999995,0.193055,-0.07649199999999999,0.037994,0.27603099999999997
816,8.16,-2.368059,4.446572,1.954822,-0.11483800000000001,0.105103,0.37085
817,8.17,-1.4349100000000001,3.8054230000000002,3.278426,-0.01789899999999999,0.15623499999999998,0.467789
818,8.18,-0.330322,3.282606,3.8745510000000003,0.08541900000000001,0.198853,0.55513
819,8.19,0.307894,2.4394419999999997,4.084739,0.151474,0.267029,0.605209
820,8.2,0.414721,0.057300000000000025,4.09926,0.166382,0.489655,0.55513
821,8.21,-0.040100000000000025,-0.977138,3.6283980000000002,0.15466300000000002,0.6547850000000001,0.427307
822,8.22,-0.691685,-1.345962,3.22513,0.15040599999999998,0.784744,0.23982199999999998
823,8.23,-1.3824459999999998,-1.042723,2.470813,0.15998800000000002,0.8848719999999999,0.053391
824,8.24,-1.626052,-0.608854,1.701709,0.164261,0.954117,-0.07975800000000001
825,8.25,-1.2119280000000001,-0.239017,1.011488,0.140823,0.995667,-0.154327
826,8.26,-0.5948719999999998,-0.026669,0.5423819999999999,0.08541900000000001,0.9977870000000001,-0.18309
827,8.27,0.16041200000000005,-0.070974,0.26805300000000004,0.010864000000000006,0.954117,-0.188416
828,8.28,0.933759,-0.345654,0.15885,-0.06691,0.865707,-0.193741
829,8.29,1.547981,-0.578232,0.255565,-0.122299,0.736801,-0.212921
830,8.3,1.85529,-0.702404,0.32245,-0.144669,0.575943,-0.24913000000000002
831,8.31,1.85525,-0.630659,0.286477,-0.155319,0.409775,-0.29388400000000003
832,8.32,1.556244,-0.5527989999999999,0.18332,-0.16597,0.25531,-0.336487
833,8.33,1.111844,-0.5428390000000001,0.122501,-0.18196099999999998,0.12107799999999999,-0.370575
834,8.34,0.734475,-0.752795,0.024463,-0.190475,0.012421,-0.38655100000000003
835,8.35,0.45349799999999996,-1.104941,-0.03317,-0.203262,-0.075989,-0.390823
836,8.36,0.285075,-1.451338,-0.053512999999999984,-0.21072399999999997,-0.152695,-0.392944
837,8.37,0.173729,-1.74996,-0.045344999999999996,-0.20751999999999998,-0.21340900000000002,-0.389755
838,8.38,0.03689400000000001,-1.906107,-0.13865999999999998,-0.201126,-0.25709499999999996,-0.389755
839,8.39,-0.106424,-1.92895,-0.28759,-0.202194,-0.300766,-0.390823
840,8.4,-0.22946799999999998,-1.7365439999999999,-0.38290100000000005,-0.20858800000000002,-0.343369,-0.38443
841,8.41,-0.401414,-1.412975,-0.505424,-0.2267,-0.406219,-0.373779
842,8.42,-0.40910599999999997,-1.114552,-0.645844,-0.24800100000000003,-0.47653199999999996,-0.353531
843,8.43,-0.41917299999999996,-0.893165,-0.697434,-0.265045,-0.546844,-0.327972
844,8.44,-0.312098,-0.787983,-0.626707,-0.258652,-0.608627,-0.30027800000000004
845,8.45,-0.23644099999999998,-0.7974859999999999,-0.569574,-0.22563200000000003,-0.6682739999999999,-0.273636
846,8.46,-0.192277,-0.902854,-0.5667449999999999,-0.186218,-0.7151489999999999,-0.258728
847,8.47,-0.246993,-1.042453,-0.717394,-0.148926,-0.756699,-0.245941
848,8.48,-0.35593,-1.109793,-0.976707,-0.12443499999999999,-0.782257,-0.233154
849,8.49,-0.45421300000000003,-1.2288350000000001,-1.15173,-0.11483800000000001,-0.801437,-0.217178
850,8.5,-0.35125300000000004,-1.2943200000000001,-1.197484,-0.115906,-0.809967,-0.193741
851,8.51,-0.15168199999999998,-1.2615610000000002,-1.106047,-0.10951199999999998,-0.8174130000000001,-0.15325899999999998
852,8.52,0.11146199999999999,-1.1923620000000001,-1.031591,-0.086075,-0.831268,-0.098938
853,8.53,0.499017,-1.047318,-1.183918,-0.047729,-0.8632200000000001,-0.039276
854,8.54,0.781828,-0.9174899999999999,-1.3313540000000001,-0.009384,-0.920746,0.0043950000000000005
855,8.55,0.983712,-0.8637360000000001,-1.329025,0.006592,-0.977203,0.04274
856,8.56,0.8958450000000001,-0.733599,-1.260446,0.010864,-1.02301,0.066177
857,8.57,0.54352,-0.402458,-1.182484,0.008728,-1.049652,0.092819
858,8.58,0.009448999999999985,0.067058,-1.036155,0.015121,-1.046448,0.123703
859,8.59,-0.592029,0.638273,-0.919789,0.033234,-1.007034,0.153534
860,8.6,-1.17523,1.051554,-0.9281950000000001,0.054535,-0.958038,0.156723
861,8.61,-1.5653780000000002,1.246949,-0.8514520000000001,0.064117,-0.8983760000000001,0.140747
862,8.62,-1.6962400000000002,1.165237,-0.840994,0.049210000000000004,-0.8578950000000001,0.09814500000000001
863,8.63,-1.438002,1.179258,-0.8261379999999999,0.008727999999999996,-0.8589629999999999,0.066177
864,8.64,-0.667583,1.5665120000000001,-0.8617440000000001,-0.038147,-0.906906,0.05127
865,8.65,0.47213599999999994,2.3971560000000003,-0.729121,-0.087143,-0.975082,0.036345999999999996
866,8.66,1.745656,3.5660230000000004,-0.132913,-0.15745499999999998,-1.0666959999999999,0.0043950000000000005
867,8.67,2.8564950000000002,4.4286900000000005,0.8985679999999998,-0.27462800000000004,-1.113556,-0.054199000000000004
868,8.68,3.147018,4.138240000000001,2.155132,-0.387558,-1.1348719999999999,-0.149002
869,8.69,2.406413,3.26024,3.5188330000000003,-0.383286,-1.1828,-0.231033
870,8.7,0.859768,1.7670700000000001,4.053178,-0.144669,-1.180679,-0.325836
871,8.71,-0.05820499999999995,0.755138,3.36005,0.06518600000000001,-1.208374,-0.383362
872,8.72,-0.505093,0.127199,2.606568,0.22071799999999997,-1.261627,-0.428101
873,8.73,-0.7725920000000001,0.06564500000000001,1.7316330000000002,0.27717600000000003,-1.291458,-0.43342600000000003
874,8.74,-0.856174,0.313321,1.1194879999999998,0.254807,-1.291458,-0.343948
875,8.75,-0.57558,0.868608,0.8514079999999999,0.211121,-1.253113,-0.19162
876,8.76,-0.143065,1.400251,0.708971,0.182358,-1.222214,-0.032883
877,8.77,-0.026959000000000004,1.592183,0.6826949999999999,0.149338,-1.223282,0.090683
878,8.78,-0.128354,1.233929,0.9403370000000001,0.11099200000000001,-1.216888,0.173767
879,8.79,-0.35372800000000004,0.81502,1.122163,0.084366,-1.1742860000000002,0.219574
880,8.8,-0.755412,0.425839,1.115277,0.064117,-1.085861,0.240891
881,8.81,-0.9787370000000001,0.197222,1.021398,0.052399,-0.960159,0.265381
882,8.82,-0.8600559999999999,0.084412,0.894291,0.044952,-0.83873,0.28988600000000003
883,8.83,-0.598525,-0.073443,0.8615870000000001,0.048141,-0.752441,0.30586199999999997
884,8.84,-0.343887,-0.401656,0.8574459999999999,0.068375,-0.6927800000000001,0.31864899999999996
885,8.85,-0.189167,-0.9045350000000001,0.913364,0.093948,-0.6416470000000001,0.330368
886,8.86,-0.158166,-1.511084,0.829016,0.119522,-0.591583,0.342087
887,8.87,-0.097066,-2.013144,0.637908,0.140823,-0.550034,0.351669
888,8.88,0.004524,-2.470775,0.31083,0.152542,-0.51915,0.36978099999999997
889,8.89,0.199222,-2.698257,0.065403,0.14827,-0.494644,0.38363600000000003
890,8.9,0.379035,-2.849174,-0.188066,0.12803599999999998,-0.479721,0.391083
891,8.91,0.556659,-2.862217,-0.364131,0.096085,-0.47546400000000005,0.385757
892,8.92,0.617742,-2.7013979999999997,-0.475096,0.049210000000000004,-0.479721,0.36659200000000003
893,8.93,0.6471600000000001,-2.449622,-0.633879,-0.0051270000000000005,-0.474396,0.341019
894,8.94,0.690132,-2.137152,-0.635938,-0.053055,-0.45842,0.301605
895,8.95,0.680479,-1.885458,-0.653258,-0.090347,-0.426468,0.25793499999999997
896,8.96,0.674034,-1.654225,-0.612165,-0.111649,-0.384918,0.212128
897,8.97,0.733101,-1.474014,-0.6002609999999999,-0.11804200000000001,-0.345505,0.164185
898,8.98,0.892602,-1.325383,-0.52912,-0.113785,-0.311417,0.126907
899,8.99,1.043309,-1.168324,-0.458305,-0.089279,-0.289047,0.089615
900,9.0,1.254658,-0.975833,-0.465203,-0.047729,-0.280518,0.057663
901,9.01,1.359898,-0.8209209999999999,-0.5576270000000001,0.009796,-0.282654,0.017181000000000002
902,9.02,1.388235,-0.753684,-0.864275,0.076904,-0.296509,-0.028625000000000005
903,9.03,1.356578,-0.7118270000000001,-1.226851,0.1259,-0.314606,-0.07656900000000001
904,9.04,1.285142,-0.6916640000000001,-1.6666830000000001,0.149338,-0.330597,-0.11598199999999999
905,9.05,1.1548889999999998,-0.5282640000000001,-1.975459,0.14827,-0.341248,-0.143677
906,9.06,1.00944,-0.32169899999999996,-2.2908169999999997,0.14721700000000001,-0.35083000000000003,-0.157532
907,9.07,0.923085,-0.04635,-2.411874,0.145081,-0.376404,-0.162857
908,9.08,0.906632,0.287,-2.414545,0.14189100000000002,-0.412613,-0.145813
909,9.09,0.9054110000000001,0.773803,-2.4611549999999998,0.121643,-0.4254,-0.094681
910,9.1,1.191702,1.20822,-2.459619,0.090759,-0.426468,-0.016907
911,9.11,1.445276,1.497758,-2.3668709999999997,0.057724,-0.43605,0.066177
912,9.12,1.502006,1.441481,-2.089032,0.027907999999999995,-0.45842,0.13009600000000002
913,9.13,1.297882,1.215176,-1.813784,0.019379,-0.47653199999999996,0.15567
914,9.14,0.8659879999999999,1.2249459999999999,-1.6152389999999999,0.019379,-0.47866800000000004,0.158859
915,9.15,0.315848,1.467156,-1.416587,0.018311,-0.450974,0.15567
916,9.16,-0.059130999999999996,2.067843,-1.0404209999999998,0.008728,-0.408356,0.173767
917,9.17,-0.368996,3.16118,-0.323379,-0.030685000000000004,-0.36254899999999995,0.228104
918,9.18,-0.21101199999999998,4.377989,0.367487,-0.10845899999999999,-0.310349,0.320786
919,9.19,0.129742,5.057592,1.630377,-0.253326,-0.27626,0.42410299999999995
920,9.2,0.941939,4.251111,3.731561,-0.309784,-0.245377,0.47950699999999996
921,9.21,1.569508,2.883038,5.275855,-0.20432999999999998,-0.29118299999999997,0.485901
922,9.22,1.53871,1.405045,6.080257,-0.021103,-0.358292,0.462463
923,9.23,0.939052,0.29151900000000003,5.65521,0.173843,-0.340179,0.394287
924,9.24,0.45562700000000006,-0.369421,4.3390580000000005,0.317657,-0.235779,0.282425
925,9.25,-0.14713499999999996,-0.698235,2.79241,0.395416,-0.169739,0.15779100000000001
926,9.26,-0.42963199999999996,-0.605578,1.43297,0.40820300000000004,-0.170807,0.070435
927,9.27,-0.447459,-0.13915900000000006,0.5136390000000001,0.347488,-0.188904,0.00972
928,9.28,-0.210723,0.33421799999999996,0.04344799999999999,0.238831,-0.21022,-0.038207999999999985
929,9.29,0.229861,0.572542,-0.086353,0.110992,-0.275192,-0.061646000000000006
930,9.3,1.226473,0.39368000000000003,0.066402,-0.06051599999999999,-0.45523100000000005,-0.093613
931,9.31,1.7485220000000001,0.149746,0.502887,-0.1436,-0.601166,-0.131958
932,9.32,2.050008,-0.03855299999999999,0.931823,-0.177689,-0.73645,-0.177765
933,9.33,1.99544,-0.13594900000000001,1.274829,-0.176636,-0.842987,-0.228897
934,9.34,1.711509,-0.199291,1.26345,-0.156387,-0.9196780000000001,-0.278961
935,9.35,1.3184719999999999,-0.347987,1.1135030000000001,-0.11804200000000001,-0.9740139999999999,-0.3237
936,9.36,0.9308700000000001,-0.588913,0.87472,-0.07756,-1.024078,-0.367386
937,9.37,0.513279,-0.875187,0.650116,-0.051987,-1.0773469999999998,-0.400406
938,9.38,0.13955,-1.174417,0.512691,-0.036011,-1.1306,-0.421707
939,9.39,-0.118216,-1.47981,0.400609,-0.023224,-1.1785430000000001,-0.425964
940,9.4,-0.25789,-1.791362,0.318345,-0.01152,-1.204102,-0.416382
941,9.41,-0.430829,-2.055819,0.16958199999999998,-0.004059,-1.22435,-0.390823
942,9.42,-0.482588,-2.223697,-0.05399299999999999,-0.008316,-1.23819,-0.352463
943,9.43,-0.595558,-2.319821,-0.238735,-0.026427999999999997,-1.2424620000000002,-0.318375
944,9.44,-0.774189,-2.346895,-0.40516399999999997,-0.054123000000000004,-1.236069,-0.272568
945,9.45,-0.971899,-2.333199,-0.513284,-0.086075,-1.210495,-0.22676100000000002
946,9.46,-1.093912,-2.244164,-0.590896,-0.120163,-1.165756,-0.177765
947,9.47,-1.320891,-2.12907,-0.588379,-0.154251,-1.10611,-0.13409400000000002
948,9.48,-1.4543760000000001,-1.970018,-0.656449,-0.178757,-1.034729,-0.095734
949,9.49,-1.610709,-1.778491,-0.668018,-0.19686900000000002,-0.967621,-0.066971
950,9.5,-1.728546,-1.5121209999999998,-0.642104,-0.20539899999999997,-0.894119,-0.047806
951,9.51,-1.76975,-1.30311,-0.538719,-0.199005,-0.812088,-0.033951
952,9.52,-1.670361,-1.092083,-0.442015,-0.173431,-0.7279359999999999,-0.0233
953,9.53,-1.4946840000000001,-0.9112680000000001,-0.401818,-0.129761,-0.65123,-0.008392
954,9.54,-1.261104,-0.733638,-0.436277,-0.070099,-0.573471,0.010787999999999999
955,9.55,-1.028593,-0.6058560000000001,-0.5436840000000001,-0.017899,-0.49996899999999994,0.031020999999999996
956,9.56,-0.9085409999999999,-0.673584,-0.621888,0.025772000000000003,-0.43605,0.038482999999999996
957,9.57,-0.845843,-0.8000729999999999,-0.719661,0.053466999999999994,-0.374268,0.044876
958,9.58,-0.786159,-0.800124,-1.120571,0.07157899999999999,-0.325272,0.048065
959,9.59,-0.71094,-0.5743050000000001,-1.557508,0.073715,-0.296509,0.05127
960,9.6,-0.725911,-0.25223,-1.8286240000000002,0.07157899999999999,-0.27413899999999997,0.062988
961,9.61,-0.9104469999999999,0.422746,-1.9512770000000002,0.058792,-0.24324,0.06405599999999999
962,9.62,-1.2458360000000002,1.171103,-1.97035,0.038558999999999996,-0.193176,0.047012
963,9.63,-1.555066,1.687372,-1.895271,0.003403,-0.13351400000000002,-0.0009310000000000012
964,9.64,-1.8442580000000002,1.72953,-1.725689,-0.037079,-0.084518,-0.043549000000000004
965,9.65,-1.8156150000000002,1.7146759999999999,-1.629258,-0.067978,-0.062149,-0.053131
966,9.66,-1.434361,1.6532759999999997,-1.529699,-0.075424,-0.06640599999999999,-0.028625
967,9.67,-0.7218479999999999,1.806661,-1.255144,-0.070099,-0.098358,0.00972
968,9.68,0.200484,2.655785,-0.965598,-0.069031,-0.162277,0.0289
969,9.69,1.004757,4.075334,-0.754179,-0.147873,-0.246429,0.0043950000000000005
970,9.7,1.8627939999999998,4.834468,-0.02094299999999999,-0.323639,-0.299698,-0.06591799999999999
971,9.71,2.077327,4.48895,1.603008,-0.43336499999999994,-0.320999,-0.166046
972,9.72,1.5022719999999998,3.3224839999999998,3.520408,-0.37796,-0.352966,-0.24913000000000002
973,9.73,1.223883,1.96652,4.636307,-0.241608,-0.360413,-0.306656
974,9.74,1.173076,0.777501,4.793121,-0.11911,-0.393448,-0.340744
975,9.75,1.214265,-0.17812700000000006,4.503366000000001,-0.009384000000000005,-0.438187,-0.354599
976,9.76,0.959249,-0.5806859999999999,3.4531050000000003,0.06304900000000001,-0.509552,-0.350342
977,9.77,0.783039,-0.184053,2.214099,0.080093,-0.591583,-0.287491
978,9.78,0.719862,0.22413800000000006,1.4090479999999999,0.097137,-0.6416470000000001,-0.159653
979,9.79,1.0156290000000001,0.673764,0.89894,0.13336199999999998,-0.666153,-0.015838999999999992
980,9.8,1.152454,0.9931540000000001,0.72116,0.14294400000000002,-0.662949,0.108795
981,9.81,0.9273600000000001,0.947183,0.828084,0.106735,-0.673599,0.20573400000000003
982,9.82,0.28471899999999994,0.622316,1.053052,0.055603,-0.666153,0.27177399999999996
983,9.83,-0.4654430000000001,0.359798,1.120172,0.020447,-0.624603,0.311188
984,9.84,-1.200228,0.290337,1.084274,0.005539,-0.545776,0.31546
985,9.85,-1.5770440000000001,0.298171,1.0660969999999999,0.012985,-0.43605,0.31864899999999996
986,9.86,-1.4734399999999999,0.33426,1.1160940000000001,0.051330999999999995,-0.316742,0.327164
987,9.87,-1.017822,0.347195,0.963817,0.116318,-0.19957,0.33783
988,9.88,-0.44378199999999995,0.093319,0.8292010000000001,0.182358,-0.11007699999999998,0.353806
989,9.89,0.010648999999999992,-0.232435,0.640119,0.24201999999999999,-0.038712,0.367645
990,9.9,0.347472,-0.7745029999999999,0.298958,0.283569,0.015624999999999997,0.376175
991,9.91,0.57323,-1.338737,-0.0048920000000000075,0.295288,0.044388,0.375107
992,9.92,0.678971,-1.893703,-0.25459899999999996,0.27929699999999996,0.051834000000000005,0.368713
993,9.93,0.658525,-2.292412,-0.330656,0.25054899999999997,0.039062,0.360199
994,9.94,0.6981350000000001,-2.572981,-0.444325,0.21858200000000003,0.012420999999999998,0.34848
995,9.95,0.746567,-2.6915560000000003,-0.592146,0.187698,-0.028061000000000003,0.33783
996,9.96,0.818079,-2.6796900000000003,-0.770929,0.14721700000000001,-0.062149,0.327164
997,9.97,0.956865,-2.543726,-0.8875629999999999,0.104599,-0.084518,0.311188
998,9.98,0.990776,-2.344403,-0.925048,0.053466999999999994,-0.09196499999999999,0.281357
999,9.99,0.994741,-2.197915,-0.9602790000000001,0.009796,-0.09196499999999999,0.245148
1000,10.0,0.904545,-2.04261,-0.951772,-0.031754000000000004,-0.075989,0.20466600000000001
1001,10.01,0.812864,-1.980677,-0.938421,-0.063705,-0.060013,0.160995
1002,10.02,0.68633,-1.956849,-0.8544350000000001,-0.089279,-0.044037,0.121582
1003,10.03,0.591152,-1.902261,-0.7547159999999999,-0.106323,-0.022736000000000003,0.09494
1004,10.04,0.51915,-1.8377830000000002,-0.677148,-0.11271700000000001,0.002838,0.07470700000000001
1005,10.05,0.29896,-1.655877,-0.615632,-0.103119,0.036926,0.049132999999999996
1006,10.06,0.076649,-1.479871,-0.642595,-0.086075,0.085922,0.026764
1007,10.07,-0.13089799999999996,-1.278119,-0.708186,-0.062653,0.127472,-0.0073240000000000015
1008,10.08,-0.350046,-1.038759,-0.764993,-0.039215,0.15623499999999998,-0.044601
1009,10.09,-0.528971,-0.759469,-0.907425,-0.014709,0.187134,-0.07656900000000001
1010,10.1,-0.625827,-0.48621000000000003,-1.0948639999999998,0.02684,0.224411,-0.096802
1011,10.11,-0.5889,-0.261331,-1.329698,0.070511,0.263824,-0.105331
1012,10.12,-0.490209,-0.063113,-1.592774,0.103531,0.293655,-0.109589
1013,10.13,-0.26403000000000004,0.137737,-1.734921,0.11418199999999999,0.309631,-0.098938
1014,10.14,0.243446,0.54318,-1.744994,0.103531,0.289398,-0.060592999999999994
1015,10.15,0.8924040000000001,1.018294,-1.639413,0.077972,0.244644,0.003326000000000002
1016,10.16,1.5428469999999999,1.469804,-1.5670950000000001,0.058792,0.20310999999999998,0.067245
1017,10.17,1.791196,1.820039,-1.573801,0.055603,0.163696,0.10665899999999999
1018,10.18,1.438085,1.9126279999999998,-1.742118,0.074768,0.134933,0.10986300000000002
1019,10.19,0.724645,1.8605509999999998,-2.015834,0.10141,0.114685,0.092819
1020,10.2,-0.239165,2.010571,-1.913084,0.09820599999999999,0.10723900000000001,0.077896
1021,10.21,-1.194935,2.986482,-1.067583,0.06518600000000001,0.10403399999999999,0.107727
1022,10.22,-1.7656720000000001,4.4176269999999995,-0.5953189999999999,-0.02536,0.164749,0.212128
1023,10.23,-2.000518,5.082635,0.530406,-0.21284499999999998,0.284073,0.33676100000000003
1024,10.24,-1.2350299999999999,4.637336,2.674172,-0.330032,0.383133,0.439026
1025,10.25,-0.02436499999999997,3.804868,4.5242260000000005,-0.252258,0.343719,0.53064
1026,10.26,0.672904,2.7651950000000003,5.492495,-0.075424,0.289398,0.5817720000000001
1027,10.27,1.134785,1.431899,5.771764,0.11099199999999998,0.297913,0.5828399999999999
1028,10.28,1.418972,0.21339200000000005,5.256471,0.293152,0.337326,0.531708
1029,10.29,1.28896,0.10583699999999999,3.7979489999999996,0.411392,0.38845799999999997,0.44967700000000005
1030,10.3,1.053268,0.477517,1.992895,0.427383,0.531204,0.229172
1031,10.31,0.5814739999999999,0.725101,1.345212,0.375183,0.564224,0.07470700000000001
1032,10.32,0.105321,1.016377,0.935506,0.301682,0.549316,-0.041412
1033,10.33,-0.13935,0.915408,0.6027939999999999,0.21751399999999999,0.517365,-0.128769
1034,10.34,0.010687000000000002,0.351664,0.41230200000000006,0.121643,0.466232,-0.188416
1035,10.35,0.48116899999999996,-0.27182300000000004,0.407238,0.027908,0.391663,-0.21398899999999998
1036,10.36,1.088808,-0.638552,0.499436,-0.051987,0.286194,-0.220383
1037,10.37,1.626311,-0.673247,0.673621,-0.103119,0.157303,-0.236359
1038,10.38,1.790401,-0.5845229999999999,0.731137,-0.134018,0.024138999999999997,-0.26405300000000004
1039,10.39,1.571226,-0.46302600000000005,0.724322,-0.151062,-0.09196499999999999,-0.30027800000000004
1040,10.4,1.174834,-0.47767200000000004,0.720616,-0.155319,-0.17613199999999998,-0.334366
1041,10.41,0.66064,-0.620861,0.677229,-0.147873,-0.226196,-0.35992399999999997
1042,10.42,0.271363,-0.972183,0.654737,-0.130829,-0.263474,-0.380157
1043,10.43,-0.09328699999999998,-1.449681,0.634541,-0.100998,-0.289047,-0.394012
1044,10.44,-0.361336,-1.9759790000000002,0.54871,-0.07223500000000001,-0.312485,-0.403595
1045,10.45,-0.642726,-2.401453,0.397158,-0.051987,-0.31567399999999995,-0.396149
1046,10.46,-0.802886,-2.6827080000000003,0.246804,-0.046661,-0.311417,-0.374832
1047,10.47,-0.88902,-2.793315,0.031724,-0.070099,-0.306091,-0.343948
1048,10.48,-0.91294,-2.6794439999999997,-0.211937,-0.10951199999999998,-0.312485,-0.304535
1049,10.49,-0.9007930000000001,-2.489863,-0.334069,-0.16171300000000002,-0.330597,-0.261917
1050,10.5,-0.8049350000000001,-2.270684,-0.46413699999999997,-0.20965599999999998,-0.35936,-0.212921
1051,10.51,-0.708384,-2.038152,-0.5585180000000001,-0.249069,-0.393448,-0.16178900000000002
1052,10.52,-0.5619649999999999,-1.851403,-0.633614,-0.276764,-0.4254,-0.111725
1053,10.53,-0.514726,-1.701298,-0.70296,-0.29274,-0.449905,-0.070175
1054,10.54,-0.627668,-1.595544,-0.7577550000000001,-0.295944,-0.459488,-0.035019
1055,10.55,-0.79984,-1.505957,-0.768832,-0.29274,-0.45735200000000004,-0.011581000000000001
1056,10.56,-1.016015,-1.3393,-0.747866,-0.283157,-0.448837,0.006531
1057,10.57,-1.157964,-1.177668,-0.770632,-0.261856,-0.440308,0.031020999999999996
1058,10.58,-1.1795010000000001,-0.942681,-0.755108,-0.2267,-0.42965699999999996,0.054459
1059,10.59,-1.031283,-0.6644180000000001,-0.822674,-0.18196099999999998,-0.41793800000000003,0.083221
1060,10.6,-0.775749,-0.396715,-0.924215,-0.134018,-0.40303,0.10986300000000002
1061,10.61,-0.60343,-0.297348,-1.045535,-0.089279,-0.39770500000000003,0.125839
1062,10.62,-0.49416499999999997,-0.214192,-1.13611,-0.046661,-0.395569,0.126907
1063,10.63,-0.393696,-0.17061600000000002,-1.306244,-0.010452,-0.410492,0.121582
1064,10.64,-0.285019,-0.056003,-1.5206879999999998,0.025772000000000003,-0.439255,0.11624100000000001
1065,10.65,-0.224115,0.010640000000000005,-1.688616,0.057724,-0.45735200000000004,0.11731
1066,10.66,-0.37247199999999997,0.277306,-1.848586,0.057724,-0.448837,0.11518900000000001
1067,10.67,-0.8777889999999999,0.737368,-1.7964470000000001,0.021515,-0.40942399999999995,0.09814500000000001
1068,10.68,-1.613797,1.394779,-1.6735669999999998,-0.053055,-0.35083000000000003,0.047012
1069,10.69,-2.409049,2.039152,-1.4298629999999999,-0.13295,-0.279465,-0.023300000000000005
1070,10.7,-2.772795,2.3139830000000003,-1.148651,-0.163849,-0.21022,-0.07869
1071,10.71,-2.682922,2.123887,-1.051787,-0.128693,-0.169739,-0.100006
1072,10.72,-2.088552,1.853343,-0.8680700000000001,-0.063705,-0.154816,-0.07656900000000001
1073,10.73,-1.027883,2.1908950000000003,-0.622306,-0.001923000000000001,-0.175064,-0.038208
1074,10.74,0.006642000000000037,3.20515,-0.691129,-0.042404000000000004,-0.23152199999999998,-0.020111
1075,10.75,1.098493,3.966388,-0.17051099999999994,-0.255463,-0.293304,-0.068039
1076,10.76,1.8512380000000002,3.63766,1.297108,-0.434418,-0.343369,-0.154327
1077,10.77,1.6720709999999999,2.632083,3.034954,-0.43974300000000005,-0.42114300000000005,-0.23848000000000003
1078,10.78,1.290291,1.512003,4.304806,-0.333221,-0.45523100000000005,-0.278961
1079,10.79,1.3412680000000001,0.621467,4.670234,-0.199005,-0.49038699999999996,-0.296005
1080,10.8,1.291996,0.216475,4.5615239999999995,-0.056259,-0.53299,-0.338623
1081,10.81,1.037026,0.23368200000000003,3.7121,0.061996,-0.524475,-0.390823
1082,10.82,0.297125,0.692303,2.484896,0.096085,-0.531921,-0.416382
1083,10.83,-0.307023,1.145836,1.732934,0.09820599999999999,-0.534058,-0.35673499999999997
1084,10.84,-0.407281,1.34479,1.3232979999999999,0.139755,-0.502106,-0.222504
1085,10.85,-0.06341500000000003,1.467359,1.175812,0.18981900000000002,-0.430725,-0.059525
1086,10.86,0.16455699999999998,1.343795,1.203694,0.20579499999999998,-0.385986,0.073639
1087,10.87,-0.19792300000000002,0.8630260000000001,1.258802,0.18449400000000002,-0.360413,0.170578
1088,10.88,-0.7378439999999999,0.393331,1.236467,0.166382,-0.305023,0.230225
1089,10.89,-1.551274,0.14957,1.056092,0.13656600000000002,-0.21554600000000002,0.253662
1090,10.9,-2.143923,0.078533,0.994366,0.11099200000000001,-0.088776,0.267517
1091,10.91,-2.286622,0.086033,1.1062290000000001,0.10566700000000001,0.053970000000000004,0.286697
1092,10.92,-1.98545,-0.033568000000000014,1.225258,0.13656600000000002,0.205231,0.306931
1093,10.93,-1.305521,-0.22308899999999998,1.1694,0.195145,0.33520500000000003,0.327164
1094,10.94,-0.687481,-0.591061,0.88985,0.263321,0.42787200000000003,0.34848
1095,10.95,-0.22111599999999998,-0.989399,0.555844,0.30593899999999996,0.486465,0.360199
1096,10.96,0.06722699999999998,-1.502894,0.233388,0.329376,0.521622,0.372971
1097,10.97,0.14597100000000002,-1.9950990000000002,-0.04819399999999996,0.32617199999999996,0.541855,0.379364
1098,10.98,0.195326,-2.377801,-0.24345,0.301682,0.548248,0.3815
1099,10.99,0.19095399999999998,-2.617803,-0.319821,0.26759299999999997,0.54718,0.379364
1100,11.0,0.222063,-2.6976009999999997,-0.35620999999999997,0.23243699999999998,0.5365300000000001,0.376175
1101,11.01,0.253772,-2.58358,-0.311242,0.188751,0.531204,0.36659200000000003
1102,11.02,0.324902,-2.348129,-0.334423,0.14294400000000002,0.543991,0.349548
1103,11.03,0.318223,-2.005372,-0.41774700000000003,0.093948,0.57489,0.321838
1104,11.04,0.32424400000000003,-1.7576669999999999,-0.468979,0.044952,0.6057739999999999,0.27816799999999997
1105,11.05,0.266913,-1.555283,-0.49341999999999997,0.008728,0.638794,0.228104
1106,11.06,0.272841,-1.491857,-0.497909,-0.010452,0.666489,0.18229700000000001
1107,11.07,0.303465,-1.525649,-0.47818599999999994,-0.013641,0.68248,0.146072
1108,11.08,0.421432,-1.530316,-0.392962,-0.014709,0.680344,0.123703
1109,11.09,0.538242,-1.516586,-0.397283,-0.007248,0.669693,0.10240199999999999
1110,11.1,0.562578,-1.470164,-0.45311599999999996,0.005538999999999999,0.672882,0.080032
1111,11.11,0.448028,-1.385265,-0.689559,0.021515,0.6771550000000001,0.049132999999999996
1112,11.12,0.276752,-1.260768,-0.7786770000000001,0.037491000000000003,0.6771550000000001,0.015045
1113,11.13,0.109098,-1.1033899999999999,-0.9239809999999999,0.052399,0.668625,-0.016907
1114,11.14,0.002028000000000002,-0.9479059999999999,-1.090963,0.059860000000000003,0.6366729999999999,-0.050995
1115,11.15,-0.013881999999999999,-0.8390059999999999,-1.15872,0.056671000000000006,0.592987,-0.071243
1116,11.16,0.05848,-0.723417,-1.224651,0.048141,0.540802,-0.082962
1117,11.17,0.167049,-0.606865,-1.3209,0.038558999999999996,0.49604799999999993,-0.077637
1118,11.18,0.19764400000000001,-0.391365,-1.458401,0.033234,0.46196000000000004,-0.069107
1119,11.19,0.301212,-0.100996,-1.5854549999999998,0.02684,0.41082799999999997,-0.048874
1120,11.2,0.584704,0.426076,-1.450125,0.017242,0.323486,-0.011581
1121,11.21,1.062559,1.0359459999999998,-1.232081,0.007659999999999999,0.218018,0.057663
1122,11.22,1.5338200000000002,1.461584,-1.044568,0.015121,0.13172899999999998,0.132233
1123,11.23,1.632819,1.6542720000000002,-1.055345,0.031097000000000003,0.091248,0.166321
1124,11.24,1.160236,1.7151060000000002,-1.191164,0.06304900000000001,0.099777,0.14714100000000002
1125,11.25,0.08879999999999999,1.711007,-1.5271,0.120575,0.157303,0.08429
1126,11.26,-1.249808,1.630633,-2.048062,0.169586,0.24678000000000003,0.010788
1127,11.27,-2.7222310000000003,1.93412,-1.784248,0.158936,0.35543800000000003,-0.046738
1128,11.28,-3.725061,2.975016,-0.828485,0.13443,0.507767,-0.042480000000000004
1129,11.29,-3.623652,4.391725,-0.18548699999999999,0.008728,0.629211,0.059784000000000004
1130,11.3,-2.529178,4.7792449999999995,1.579868,-0.203262,0.7890010000000001,0.179092
1131,11.31,-0.9602120000000001,4.150955000000001,3.679673,-0.232025,0.8358760000000001,0.270706
1132,11.32,0.3042250000000001,3.187654,5.251857,-0.064774,0.733612,0.35273699999999997
1133,11.33,0.886582,1.762099,5.76122,0.182358,0.6633,0.377243
1134,11.34,0.9048930000000001,0.34400600000000003,5.22131,0.395416,0.671829,0.355927
1135,11.35,0.671197,-0.36509,4.096904,0.525375,0.7155,0.317581
1136,11.36,0.317092,0.123155,2.697706,0.558411,0.758102,0.282425
1137,11.37,0.07807099999999999,0.932053,1.573382,0.466797,0.836945,0.233429
1138,11.38,-0.011646,1.427446,1.335533,0.320847,0.9115139999999999,0.146072
1139,11.39,-0.257842,1.694689,1.494925,0.234558,0.9061739999999999,0.029968
1140,11.4,-0.633391,1.712921,1.403824,0.21539299999999997,0.872086,-0.077637
1141,11.41,-0.621356,1.144291,1.365522,0.21006799999999998,0.869965,-0.178833
1142,11.42,-0.40316399999999997,0.362944,1.161875,0.18663,0.891266,-0.247009
1143,11.43,-0.05479500000000001,-0.190681,0.881167,0.144012,0.8901979999999999,-0.285355
1144,11.44,0.300886,-0.376606,0.602061,0.075836,0.85611,-0.307724
1145,11.45,0.53228,-0.41043500000000005,0.379239,-0.0019229999999999946,0.778351,-0.337555
1146,11.46,0.41854300000000005,-0.433508,0.376769,-0.064774,0.676086,-0.37803600000000004
1147,11.47,0.127789,-0.49281099999999994,0.55995,-0.10418699999999999,0.592987,-0.414261
1148,11.48,-0.196494,-0.688941,0.750518,-0.10739100000000001,0.554642,-0.435562
1149,11.49,-0.43494799999999995,-1.049373,0.8658620000000001,-0.089279,0.546127,-0.44407700000000006
1150,11.5,-0.616682,-1.558517,0.689715,-0.071167,0.551453,-0.443008
1151,11.51,-0.779072,-2.0476080000000003,0.414992,-0.061584,0.541855,-0.435562
1152,11.52,-0.8466670000000001,-2.478904,0.07147199999999998,-0.065842,0.517365,-0.414261
1153,11.53,-0.8082739999999999,-2.673494,-0.193997,-0.082886,0.497116,-0.392944
1154,11.54,-0.847435,-2.655795,-0.373748,-0.10206599999999999,0.49072299999999996,-0.364182
1155,11.55,-0.821958,-2.466949,-0.478692,-0.120163,0.491791,-0.341812
1156,11.56,-0.8551479999999999,-2.234195,-0.532502,-0.139343,0.484329,-0.314117
1157,11.57,-0.99366,-1.934826,-0.532115,-0.148926,0.47048999999999996,-0.286423
1158,11.58,-1.097821,-1.688477,-0.48831800000000003,-0.14999400000000002,0.44918800000000003,-0.250198
1159,11.59,-1.164982,-1.5337809999999998,-0.389169,-0.137207,0.440659,-0.20971700000000001
1160,11.6,-1.184487,-1.4203139999999999,-0.351773,-0.111649,0.44172700000000004,-0.170303
1161,11.61,-1.217735,-1.4818040000000001,-0.389677,-0.079697,0.438522,-0.131958
1162,11.62,-1.25405,-1.53986,-0.53779,-0.047729,0.43746899999999994,-0.102127
1163,11.63,-1.295955,-1.626762,-0.7570399999999999,-0.02536,0.438522,-0.07656900000000001
1164,11.64,-1.3716620000000002,-1.626074,-0.8664379999999999,-0.008316,0.445984,-0.053131
1165,11.65,-1.439323,-1.512227,-0.837003,0.011917,0.46196000000000004,-0.029693999999999998
1166,11.66,-1.4074389999999999,-1.186979,-0.800035,0.037491000000000003,0.487534,-0.0019990000000000008
1167,11.67,-1.241595,-0.767934,-0.858145,0.079041,0.50032,0.01825
1168,11.68,-1.118554,-0.510434,-1.102026,0.13443,0.49604799999999993,0.033157
1169,11.69,-1.1406040000000002,-0.491179,-1.3779139999999999,0.18449400000000002,0.48860200000000004,0.039550999999999996
1170,11.7,-1.237798,-0.584087,-1.624842,0.209,0.486465,0.043808
1171,11.71,-1.3824889999999999,-0.45201099999999994,-1.9562959999999998,0.20686300000000002,0.49072299999999996,0.047012
1172,11.72,-1.495997,0.06625899999999997,-2.2439259999999996,0.18981900000000002,0.48860200000000004,0.041687
1173,11.73,-1.516674,0.873446,-2.3902740000000002,0.17598,0.48220799999999997,0.023575
1174,11.74,-1.7708380000000001,1.6718169999999999,-2.508732,0.164261,0.477951,-0.011581000000000001
1175,11.75,-2.090707,2.160144,-2.417497,0.12803599999999998,0.48860200000000004,-0.057388000000000015
1176,11.76,-2.1960290000000002,2.105555,-2.172197,0.072647,0.509903,-0.095734
1177,11.77,-2.048626,1.740725,-1.9795939999999999,0.020447,0.538666,-0.113846
1178,11.78,-1.4838200000000001,1.560202,-1.770979,-0.007248,0.54718,-0.11065699999999999
1179,11.79,-0.7934260000000001,1.958996,-1.6254879999999998,-0.031754000000000004,0.540802,-0.105331
1180,11.8,-0.03049200000000002,2.89364,-1.207953,-0.097794,0.489655,-0.12449600000000001
1181,11.81,0.552675,4.1764790000000005,-0.68371,-0.217102,0.369293,-0.179901
1182,11.82,0.991266,5.005769,0.2997290000000001,-0.384354,0.277679,-0.268311
1183,11.83,0.848944,4.594977,2.0558009999999998,-0.45892299999999997,0.23826599999999998,-0.366318
1184,11.84,0.0031320000000000237,3.0122709999999997,3.860388,-0.354523,0.22654699999999997,-0.422775
1185,11.85,-0.561469,1.357193,4.573921,-0.18515,0.222275,-0.432358
1186,11.86,-0.60206,0.027864,4.1390709999999995,-0.040268,0.207367,-0.38655100000000003
1187,11.87,-0.395922,-0.8823840000000001,3.239853,0.038558999999999996,0.079529,-0.30985999999999997
1188,11.88,0.0007189999999999698,-0.9396559999999999,2.3926220000000002,0.084366,-0.046173000000000006,-0.20971700000000001
1189,11.89,0.22481399999999999,-0.366208,1.609514,0.12271099999999999,-0.09730499999999999,-0.10533099999999998
1190,11.9,0.34061199999999997,0.449222,0.9449790000000001,0.123779,-0.037643,-0.006255999999999998
1191,11.91,0.10024899999999998,1.185019,0.815896,0.077972,0.077408,0.060851999999999996
1192,11.92,-0.548058,1.638172,0.9856459999999999,0.023636,0.174347,0.108795
1193,11.93,-1.300083,1.6290040000000001,1.15703,-0.013641,0.284073,0.14820899999999998
1194,11.94,-1.8994790000000001,1.283628,1.313226,-0.015778,0.40231300000000003,0.179092
1195,11.95,-2.1747229999999997,0.816839,1.411376,0.017242,0.497116,0.20573400000000003
1196,11.96,-2.063439,0.395638,1.4399629999999999,0.080093,0.5770109999999999,0.228104
1197,11.97,-1.591185,0.040349,1.231393,0.145081,0.648392,0.268585
1198,11.98,-0.8706299999999999,-0.29338000000000003,0.833108,0.198349,0.7155,0.313324
1199,11.99,-0.21105900000000002,-0.538119,0.340413,0.21858200000000003,0.771957,0.347412
1200,12.0,0.070662,-0.905067,-0.081264,0.20686300000000002,0.798584,0.372971
1201,12.01,0.13639300000000001,-1.329443,-0.311041,0.173843,0.809235,0.387894
1202,12.02,0.050523999999999986,-1.788504,-0.332326,0.14294400000000002,0.802856,0.396408
1203,12.03,-0.059694000000000004,-2.212745,-0.282699,0.131226,0.7900699999999999,0.409195
1204,12.04,-0.028825,-2.571755,-0.27768400000000004,0.124847,0.7890010000000001,0.41452
1205,12.05,0.038362,-2.781053,-0.29634499999999997,0.104599,0.80072,0.407059
1206,12.06,0.26672399999999996,-2.774147,-0.25654699999999997,0.073715,0.825226,0.387894
1207,12.07,0.441867,-2.641411,-0.336118,0.027907999999999995,0.8358760000000001,0.345276
1208,12.08,0.441463,-2.400147,-0.354806,-0.026427999999999997,0.841202,0.28988600000000003
1209,12.09,0.316328,-2.160646,-0.390546,-0.081818,0.848663,0.229172
1210,12.1,0.237722,-1.9772349999999999,-0.387851,-0.122299,0.8635709999999999,0.174835
1211,12.11,0.189222,-1.8060169999999998,-0.368786,-0.141479,0.867828,0.13009600000000002
1212,12.12,0.282165,-1.729954,-0.34789499999999995,-0.142548,0.858246,0.09600800000000001
1213,12.13,0.397489,-1.708043,-0.293785,-0.128693,0.834808,0.068314
1214,12.14,0.573314,-1.683846,-0.300833,-0.097794,0.807114,0.049132999999999996
1215,12.15,0.7598630000000001,-1.4840870000000002,-0.266338,-0.056259,0.78154,0.0289
1216,12.16,0.8771200000000001,-1.187011,-0.417225,-0.0008540000000000006,0.762375,-0.001998999999999999
1217,12.17,0.8470780000000001,-0.835938,-0.7100270000000001,0.066254,0.726151,-0.041412
1218,12.18,0.733054,-0.585137,-1.031518,0.130173,0.679276,-0.085083
1219,12.19,0.652512,-0.49887600000000004,-1.293666,0.183426,0.62175,-0.121307
1220,12.2,0.691925,-0.518664,-1.55136,0.224976,0.549316,-0.143677
1221,12.21,0.726222,-0.613598,-1.779727,0.24201999999999999,0.480072,-0.149002
1222,12.22,0.748575,-0.764302,-2.023602,0.237762,0.417221,-0.13942000000000002
1223,12.23,0.692042,-0.818241,-2.2478849999999997,0.224976,0.37141399999999997,-0.121307
1224,12.24,0.462755,-0.506245,-2.484844,0.20579499999999998,0.32560700000000004,-0.10319500000000001
1225,12.25,0.5354439999999999,0.02371899999999999,-2.554563,0.18023699999999998,0.25317399999999995,-0.077637
1226,12.26,0.778414,0.750397,-2.4060099999999998,0.146149,0.143448,-0.020111000000000004
1227,12.27,1.3242120000000002,1.235581,-2.096374,0.107803,0.063553,0.060851999999999996
1228,12.28,1.7294200000000002,1.475559,-2.026119,0.06304900000000001,0.016678,0.11412
1229,12.29,1.480753,1.560242,-2.043918,0.019379,0.0007020000000000004,0.129028
1230,12.3,0.7856730000000001,1.611804,-2.161833,0.015121,-0.011017,0.11944600000000001
1231,12.31,-0.19606500000000002,1.7641779999999998,-2.3379380000000003,0.041748,-0.022736000000000003,0.09919700000000001
1232,12.32,-1.31291,2.2507770000000002,-2.009019,0.060927999999999996,-0.01741,0.087479
1233,12.33,-2.065099,3.292504,-1.245662,0.052399,0.022018000000000003,0.11944600000000001
1234,12.34,-2.260822,4.393455,-0.60083,-0.065842,0.058227999999999995,0.224899
1235,12.35,-2.15383,4.7159059999999995,1.0990879999999998,-0.263977,0.129608,0.361252
1236,12.36,-1.6546189999999998,4.213649,3.482279,-0.29274,0.193512,0.498672
1237,12.37,-0.4324859999999999,2.965478,5.203588,-0.103119,0.23294099999999998,0.598816
1238,12.38,0.642999,1.29145,5.745273,0.155731,0.244644,0.621185
1239,12.39,1.001225,0.001306999999999947,5.172757,0.365585,0.240387,0.564728
1240,12.4,0.8878209999999999,-0.609471,4.299443,0.499817,0.304306,0.444351
1241,12.41,0.199697,0.013915000000000009,2.6120330000000003,0.533905,0.403381,0.311188
1242,12.42,-0.425338,0.755807,1.471529,0.464661,0.5333399999999999,0.168442
1243,12.43,-0.785118,1.257282,0.9852200000000001,0.353867,0.6302800000000001,0.037415
1244,12.44,-1.197465,1.643952,0.781061,0.23988299999999999,0.6494449999999999,-0.058455999999999994
1245,12.45,-1.082695,1.624906,0.699922,0.135498,0.620697,-0.128769
1246,12.46,-0.5376459999999998,1.214653,0.63127,0.035355000000000004,0.562103,-0.173508
1247,12.47,0.25667199999999996,0.816051,0.590278,-0.048798000000000015,0.475815,-0.195877
1248,12.48,1.003517,0.6766260000000001,0.66082,-0.115906,0.37141399999999997,-0.218246
1249,12.49,1.4140409999999999,0.683186,0.643732,-0.155319,0.248917,-0.267242
1250,12.5,1.569503,0.472711,0.661671,-0.1745,0.129608,-0.329025
1251,12.51,1.416435,0.164778,0.621894,-0.18196099999999998,0.032669,-0.390823
1252,12.52,1.095357,-0.177477,0.472199,-0.173431,-0.023788,-0.44407700000000006
1253,12.53,0.6528579999999999,-0.578762,0.23423899999999998,-0.160645,-0.048294,-0.485626
1254,12.54,0.23161500000000002,-0.9713450000000001,-0.0194,-0.144669,-0.063217,-0.5090640000000001
1255,12.55,-0.26245999999999997,-1.496591,-0.221315,-0.130829,-0.071732,-0.530365
1256,12.56,-0.624325,-1.976132,-0.41625100000000004,-0.122299,-0.08345,-0.537827
1257,12.57,-0.9229219999999999,-2.475693,-0.649509,-0.131882,-0.094101,-0.539948
1258,12.58,-1.005197,-2.8189509999999998,-0.834084,-0.15213,-0.114349,-0.529297
1259,12.59,-1.0282149999999999,-3.0606310000000003,-1.01437,-0.191544,-0.13884000000000002,-0.512253
1260,12.6,-0.932372,-3.1210169999999997,-1.096745,-0.24267600000000003,-0.15802,-0.484558
1261,12.61,-0.8616450000000001,-3.038694,-1.100665,-0.299133,-0.18038900000000002,-0.448349
1262,12.62,-0.765033,-2.863554,-1.143155,-0.34387199999999996,-0.203827,-0.395081
1263,12.63,-0.600459,-2.602982,-1.107747,-0.38221700000000003,-0.24217199999999997,-0.33969099999999997
1264,12.64,-0.597037,-2.3784080000000003,-1.013016,-0.40992700000000004,-0.290115,-0.285355
1265,12.65,-0.561437,-2.2178400000000003,-0.863608,-0.42057799999999995,-0.345505,-0.23208600000000001
1266,12.66,-0.642922,-2.032164,-0.7746810000000001,-0.414185,-0.39770500000000003,-0.185226
1267,12.67,-0.652269,-1.8608580000000001,-0.581581,-0.38116500000000003,-0.438187,-0.141541
1268,12.68,-0.742499,-1.565365,-0.481461,-0.318314,-0.46374499999999996,-0.09787
1269,12.69,-0.8486100000000001,-1.230283,-0.479882,-0.23628200000000002,-0.474396,-0.063782
1270,12.7,-0.891949,-1.000401,-0.804908,-0.1436,-0.4776,-0.032882999999999996
1271,12.71,-0.930966,-0.878498,-1.207625,-0.063705,-0.47013900000000003,-0.00412
1272,12.72,-1.014599,-1.03882,-1.558165,-0.014709,-0.449905,0.01825
1273,12.73,-1.077109,-1.065333,-1.8299580000000002,0.007660000000000002,-0.430725,0.034225
1274,12.74,-1.165929,-0.873057,-2.230612,0.010864,-0.411545,0.049132999999999996
1275,12.75,-1.323156,-0.432062,-2.44067,0.008728,-0.374268,0.067245
1276,12.76,-1.595061,0.12560500000000002,-2.438354,0.0023350000000000003,-0.312485,0.089615
1277,12.77,-1.93135,1.0081040000000001,-2.374203,-0.00618,-0.23259000000000002,0.087479
1278,12.78,-2.3848830000000003,1.777648,-2.352794,-0.036011,-0.143112,0.049132999999999996
1279,12.79,-2.782534,2.13631,-2.121391,-0.096741,-0.051498,-0.020111
1280,12.8,-2.960273,2.093597,-1.7722759999999997,-0.156387,0.031601,-0.069107
1281,12.81,-2.735919,1.7348720000000002,-1.540441,-0.176636,0.096573,-0.07975800000000001
1282,12.82,-2.07363,1.183647,-1.611481,-0.14573699999999998,0.12428299999999999,-0.044601
1283,12.83,-1.199378,0.803147,-1.736552,-0.090347,0.111496,0.019302
1284,12.84,0.06115499999999996,1.151715,-1.641414,-0.08075,0.049713,0.082153
1285,12.85,1.4241030000000001,2.631571,-1.148627,-0.122299,-0.08770800000000001,0.11624100000000001
1286,12.86,2.4359759999999997,4.657252,-0.8472219999999999,-0.30127,-0.238983,0.067245
1287,12.87,3.044763,5.476889,0.8097839999999998,-0.600601,-0.343369,-0.08189400000000001
1288,12.88,2.2930349999999997,4.22617,3.4986,-0.676239,-0.415817,-0.247009
1289,12.89,1.0467110000000002,2.485648,5.541939,-0.512192,-0.364685,-0.382294
1290,12.9,-0.034692,0.808867,6.133108,-0.258652,-0.23152199999999998,-0.45793199999999995
1291,12.91,-0.566231,-0.4973079999999999,5.449444000000001,0.02151500000000001,-0.109024,-0.466446
1292,12.92,-0.583378,-0.8296819999999999,3.9421470000000003,0.264389,-0.09730499999999999,-0.440887
1293,12.93,-0.42865600000000004,0.4087,2.093107,0.366653,-0.137772,-0.409988
1294,12.94,0.01397799999999999,1.87294,0.961959,0.336823,-0.14843800000000001,-0.385498
1295,12.95,0.179125,2.8803900000000002,0.531539,0.22711199999999998,-0.152695,-0.371643
1296,12.96,0.168475,3.0207,0.871617,0.096085,-0.162277,-0.307724
1297,12.97,0.148677,2.4172119999999997,1.5453270000000001,0.023636,-0.156952,-0.174576
1298,12.98,-0.032471999999999994,1.48566,1.994027,0.032166,-0.12286400000000001,-0.019043000000000004
1299,12.99,-0.208943,0.815181,2.10805,0.07157899999999999,-0.103683,0.09814500000000001
1300,13.0,-0.639884,0.4498869999999999,1.9525400000000002,0.116318,-0.109024,0.163116
1301,13.01,-1.055612,0.49121499999999996,1.5048190000000001,0.156799,-0.079193,0.203598
1302,13.02,-1.303592,0.624405,1.002756,0.18023699999999998,0.008162999999999997,0.241943
1303,13.03,-1.221557,0.497266,0.624421,0.22390700000000002,0.17541500000000002,0.30799899999999997
1304,13.04,-0.9691549999999999,0.09185700000000001,0.6134609999999999,0.270782,0.26808200000000004,0.346344
1305,13.05,-0.560955,-0.523212,0.563336,0.317657,0.35436999999999996,0.38256799999999996
1306,13.06,-0.149076,-1.286408,0.478685,0.35281399999999996,0.43426499999999996,0.40387
1307,13.07,0.246978,-2.019905,0.264635,0.377304,0.486465,0.415588
1308,13.08,0.471867,-2.618005,0.009454000000000004,0.384766,0.505646,0.409195
1309,13.09,0.546441,-3.070399,-0.277963,0.36879,0.502441,0.390015
1310,13.1,0.5562060000000001,-3.348896,-0.60618,0.331497,0.475815,0.36659200000000003
1311,13.11,0.454371,-3.4329910000000003,-0.796992,0.26013200000000003,0.43533299999999997,0.346344
1312,13.12,0.45410500000000004,-3.384295,-0.873353,0.177032,0.382065,0.323975
1313,13.13,0.44527799999999995,-3.18412,-0.756483,0.08541900000000001,0.33839400000000003,0.294144
1314,13.14,0.377546,-2.896851,-0.549592,0.014053000000000005,0.320282,0.260056
1315,13.15,0.24609400000000006,-2.662548,-0.43727,-0.021103,0.328812,0.216385
1316,13.16,0.220237,-2.46857,-0.43760299999999996,-0.029617,0.358627,0.165253
1317,13.17,0.278579,-2.355943,-0.489914,-0.026427999999999997,0.390594,0.11624100000000001
1318,13.18,0.362344,-2.279723,-0.517302,-0.013641,0.409775,0.065109
1319,13.19,0.44239399999999995,-2.105336,-0.465052,0.009796,0.420425,0.023575
1320,13.2,0.514547,-1.8479299999999999,-0.528656,0.047073000000000004,0.43959,-0.012650000000000002
1321,13.21,0.5433359999999999,-1.551237,-0.664941,0.09287999999999999,0.45451400000000003,-0.041412
1322,13.22,0.535673,-1.306743,-0.9262379999999999,0.144012,0.45983900000000005,-0.06591799999999999
1323,13.23,0.533388,-1.137593,-1.1228719999999999,0.181305,0.444916,-0.082962
1324,13.24,0.508908,-1.196493,-1.2876670000000001,0.195145,0.416153,-0.100006
1325,13.25,0.408654,-1.2360879999999999,-1.450053,0.182358,0.375671,-0.10105900000000001
1326,13.26,0.32014499999999996,-1.193673,-1.556014,0.15040599999999998,0.35543800000000003,-0.085083
1327,13.27,0.146369,-0.8357690000000001,-1.8111509999999997,0.120575,0.3629,-0.054199000000000004
1328,13.28,0.09114900000000001,-0.09804499999999994,-2.145267,0.09820599999999999,0.37674,-0.022232
1329,13.29,0.143492,0.9103120000000001,-2.326409,0.084366,0.343719,0.002258
1330,13.3,0.5753590000000001,1.910887,-2.236343,0.08541900000000001,0.256363,0.035294000000000006
1331,13.31,1.274261,2.4915950000000002,-2.084724,0.093948,0.14238,0.076828
1332,13.32,1.833647,2.65591,-1.97397,0.084366,0.060364,0.11731
1333,13.33,1.9431080000000003,2.502102,-1.88937,0.066254,0.028397000000000002,0.13542200000000001
1334,13.34,1.585256,2.112108,-1.9537490000000002,0.06518600000000001,0.0103,0.12051400000000001
1335,13.35,0.735959,1.960247,-1.9624139999999999,0.067322,-0.013138,0.09814500000000001
1336,13.36,-0.282864,2.482617,-1.609633,0.055603,-0.016342,0.093872
1337,13.37,-1.1992530000000001,3.66149,-1.066815,0.0001979999999999968,0.011353000000000002,0.14820899999999998
1338,13.38,-1.899875,4.6427309999999995,-0.24198699999999995,-0.168106,0.07208300000000001,0.264313
1339,13.39,-2.104673,4.601241,1.8782870000000005,-0.342804,0.177536,0.36978099999999997
1340,13.4,-1.412413,3.76738,4.172898,-0.31192,0.24571199999999999,0.450745
1341,13.41,-0.560196,2.610737,5.460432,-0.139343,0.258499,0.517853
1342,13.42,-0.11523099999999994,1.422269,5.796315,0.048141,0.27873200000000004,0.554077
1343,13.43,0.596495,0.27164499999999997,5.262267,0.25267,0.33200100000000005,0.529572
1344,13.44,0.842564,0.050236,3.6184730000000003,0.40820300000000004,0.417221,0.467789
1345,13.45,0.929783,0.543852,2.057914,0.452942,0.506714,0.34848
1346,13.46,0.804351,0.725444,1.12863,0.432709,0.55571,0.19081099999999998
1347,13.47,0.256524,0.8370489999999999,0.481313,0.381577,0.5194850000000001,0.04913300000000001
1348,13.48,-0.08369800000000001,1.053295,0.02332199999999998,0.284637,0.453445,-0.050995
1349,13.49,-0.044013,0.8858969999999999,0.014538999999999996,0.14189100000000002,0.422546,-0.125565
1350,13.5,0.32906199999999997,0.452603,0.144453,0.0001980000000000037,0.40657,-0.17244
1351,13.51,0.926484,0.12418,0.44670699999999997,-0.120163,0.345856,-0.197998
1352,13.52,1.534734,-0.10996499999999998,0.647939,-0.179825,0.23294099999999998,-0.207596
1353,13.53,1.917361,-0.161617,0.806596,-0.19368,0.081665,-0.237427
1354,13.54,1.989148,-0.21224400000000002,0.748027,-0.177689,-0.07386799999999999,-0.285355
1355,13.55,1.641571,-0.340805,0.640946,-0.156387,-0.200623,-0.346069
1356,13.56,1.08581,-0.63546,0.5324840000000001,-0.134018,-0.281586,-0.403595
1357,13.57,0.533234,-1.038886,0.430428,-0.11058,-0.33165,-0.44407700000000006
1358,13.58,0.06352200000000001,-1.497352,0.24866999999999997,-0.085022,-0.35936,-0.46539300000000006
1359,13.59,-0.280994,-1.916857,0.056031,-0.070099,-0.378525,-0.471771
1360,13.6,-0.620448,-2.365459,-0.087408,-0.063705,-0.398773,-0.460052
1361,13.61,-0.845291,-2.7528639999999998,-0.135881,-0.059448,-0.401962,-0.435562
1362,13.62,-0.917934,-3.0175799999999997,-0.27828400000000003,-0.063705,-0.401962,-0.402542
1363,13.63,-0.9505170000000001,-3.17614,-0.41427700000000006,-0.082886,-0.40303,-0.364182
1364,13.64,-1.015875,-3.111734,-0.634116,-0.115906,-0.401962,-0.314117
1365,13.65,-0.9004969999999999,-2.764049,-0.880483,-0.171295,-0.410492,-0.237427
1366,13.66,-0.903852,-2.435341,-0.924183,-0.202194,-0.415817,-0.180954
1367,13.67,-0.7993520000000001,-2.221321,-0.974931,-0.214981,-0.420074,-0.13089
1368,13.68,-0.783737,-2.0739349999999996,-1.017343,-0.21284499999999998,-0.42753599999999997,-0.08934
1369,13.69,-0.765259,-2.038396,-1.103673,-0.202194,-0.43179300000000004,-0.063782
1370,13.7,-0.7508060000000001,-1.9543840000000001,-1.1843920000000001,-0.190475,-0.43605,-0.048874
1371,13.71,-0.8536389999999999,-1.8758270000000001,-1.27007,-0.176636,-0.43286099999999994,-0.037155
1372,13.72,-0.909077,-1.7083669999999997,-1.204461,-0.164917,-0.412613,-0.0233
1373,13.73,-0.962562,-1.284369,-1.21001,-0.14573699999999998,-0.37959299999999996,-0.005188
1374,13.74,-0.973087,-0.7973600000000001,-1.1559,-0.11271700000000001,-0.344437,0.012924000000000001
1375,13.75,-0.8971030000000001,-0.401688,-1.216085,-0.07435599999999999,-0.322067,0.033157
1376,13.76,-0.8047949999999999,-0.237473,-1.4173850000000001,-0.043472000000000004,-0.31567399999999995,0.052338
1377,13.77,-0.7399020000000001,-0.153643,-1.639609,-0.028564,-0.31567399999999995,0.067245
1378,13.78,-0.595298,-0.129681,-1.849072,-0.020035,-0.312485,0.0811
1379,13.79,-0.602372,0.015647000000000008,-1.977572,-0.017899,-0.297562,0.09494
1380,13.8,-0.761811,0.45696,-2.1479169999999996,-0.023224,-0.258148,0.097076
1381,13.81,-1.3221120000000002,1.101939,-2.214815,-0.055191,-0.188904,0.073639
1382,13.82,-2.187826,1.597353,-2.0053400000000003,-0.120163,-0.102631,0.011855999999999998
1383,13.83,-2.9763509999999997,2.030264,-1.6402889999999999,-0.199005,-0.0014189999999999967,-0.058455999999999994
1384,13.84,-3.276727,2.2538419999999997,-1.286245,-0.23521399999999998,0.101913,-0.11491400000000002
1385,13.85,-2.9163200000000002,2.303611,-1.264805,-0.21072399999999997,0.187134,-0.131958
1386,13.86,-2.064337,2.099536,-1.532968,-0.142548,0.24998499999999998,-0.11065699999999999
1387,13.87,-1.074684,1.89378,-1.7170880000000002,-0.10418699999999999,0.28726199999999996,-0.08401499999999999
1388,13.88,0.372843,2.470855,-1.0565639999999998,-0.122299,0.251038,-0.047806
1389,13.89,1.502683,3.959946,-0.9229440000000001,-0.168106,0.126404,-0.038208
1390,13.9,2.4725349999999997,4.947721,-0.391843,-0.38116500000000003,0.033722,-0.1064
1391,13.91,2.420725,4.380751999999999,1.450579,-0.531357,-0.021666999999999995,-0.239548
1392,13.92,1.3481290000000001,2.984759,3.4273830000000003,-0.447205,-0.088776,-0.360992
1393,13.93,0.4307260000000001,1.368158,4.468235,-0.263977,-0.136719,-0.431305
1394,13.94,-0.09006700000000004,-0.353772,4.537082,-0.089279,-0.21234099999999997,-0.425964
1395,13.95,0.008452000000000001,-1.517325,4.127923,0.042815999999999986,-0.319946,-0.363113
1396,13.96,0.409919,-1.073612,3.176214,0.104599,-0.357224,-0.307724
1397,13.97,0.733444,0.581608,1.533415,0.073715,-0.334854,-0.29921
1398,13.98,0.559966,1.6813240000000003,1.0014809999999998,-0.031754000000000004,-0.324203,-0.288559
1399,13.99,0.150781,2.183494,1.409576,-0.061584,-0.292236,-0.239548
1400,14.0,0.043526,2.221464,1.699931,0.006592000000000001,-0.244308,-0.131958
1401,14.01,0.073107,1.7801900000000002,1.6264809999999998,0.073715,-0.217667,0.0012049999999999975
1402,14.02,0.0024010000000000004,0.880135,1.574078,0.09287999999999999,-0.216614,0.129028
