,ts,ax,ay,az,wx,wy,wz
0,0.0,0.38994947845105266,-0.44744335668124885,7.128938794895647,-0.031637991778242336,-0.04683995180753784,-0.04683995180753784
1,0.01,0.3385602512094058,0.4344152840433383,1.7684025717059564,-0.01944872045637075,-0.04140220538280484,-0.04140220538280484
2,0.02,0.12681670947660645,0.48155309019128023,-2.231826713565567,0.01815555713876859,-0.035120165980336834,-0.035120165980336834
3,0.03,-0.4537392871473814,-0.3552968819147775,-3.7895107854256285,0.03358485626254031,-0.02537674819121761,-0.02537674819121761
4,0.04,-0.9721657378733238,-0.6783722249229527,-4.1996716724482015,0.011309355388797494,-0.024658656288076897,-0.024658656288076897
5,0.05,-0.29233638937390993,0.31198796143838753,-4.335533666399767,-0.013842855497226898,-0.01834291929054232,-0.01834291929054232
6,0.06,0.40193728243903926,1.208889987912868,-3.121790697797976,-0.0041396822069279865,-0.009492362505578084,-0.009492362505578084
7,0.07,0.1323815783651468,0.41199081364460277,-1.970885095899793,0.02420157962259326,-0.0036101440446041507,-0.0036101440446041507
8,0.08,-0.6154754313940713,-1.0480609733548523,-0.5593560742963652,0.02468912014693517,0.00621372675222951,0.00621372675222951
9,0.09,0.0328221812221005,-1.1156364772660021,0.0984453399160814,-0.006204075198535513,0.014905619844242903,0.014905619844242903
10,0.1,0.6359915230135084,0.352721537834097,0.31711168847675875,-0.025572684132759187,0.022981917948264843,0.022981917948264843
11,0.11,-0.07107118580524724,1.1205995369288606,1.145224327126754,-0.007032278654777922,0.03254979907209442,0.03254979907209442
12,0.12,-0.875042368147154,0.1801067541973399,2.511918011041418,0.023158146300897027,0.032169594248556754,0.032169594248556754
13,0.13,-0.23178334716492455,-1.0741934663123582,3.0261160399961957,0.015929233610616586,0.03447116948395215,0.03447116948395215
14,0.14,1.1454812687847682,-1.0393413783497427,3.436093670104405,-0.02114158612072482,0.042658667290237616,0.042658667290237616
15,0.15,0.9643197843513099,-0.1628332872778464,3.137478724257599,-0.053415799595120564,0.04751122479419701,0.04751122479419701
16,0.16,-0.32397628996410227,0.47591470239781597,3.2152539466575076,-0.04086989072393397,0.05464548596036625,0.05464548596036625
17,0.17,-0.6005182983249959,0.3621414500359948,2.6123521463741186,-0.0025251938170186266,0.052805836805686616,0.052805836805686616
18,0.18,0.6682032235674744,-0.1871862449150798,1.8098922729542588,0.023376857747593842,0.05690959188067282,0.05690959188067282
19,0.19,1.011597732336821,-0.6620123283216628,1.5125970860948943,0.004970651000278424,0.05553230665334364,0.05553230665334364
20,0.2,0.19576882473181273,-0.17936451152541039,1.2313792029373836,-0.028903648193882105,0.05735138222135393,0.05735138222135393
21,0.21,-0.7283691053644477,1.0117507310732197,1.1921288672683272,-0.042871858811544095,0.05933583469310789,0.05933583469310789
22,0.22,-0.09827172522681857,1.787087233283557,0.11098058920536813,-0.008854431167253266,0.0553932784589174,0.0553932784589174
23,0.23,0.8043353711129345,1.09611204263797,-0.7511886052739591,0.03827213347342418,0.05967864923359235,0.05967864923359235
24,0.24,0.5688873583678529,-0.5564958293800547,-1.2931615310528366,0.03946502713749707,0.05736765495604896,0.05736765495604896
25,0.25,-0.5237646570279704,-1.018708743679512,-1.0577766483256543,-0.014676923932140352,0.04875018843004655,0.04875018843004655
26,0.26,-0.8096709621037687,0.10474621952472374,-1.4876761129730247,-0.0626071369008537,0.048310826790303664,0.048310826790303664
27,0.27,-0.15863732560840096,1.0655696745954786,-1.7364535198461293,-0.047446879168800436,0.049097805439687725,0.049097805439687725
28,0.28,0.38800709258337635,0.31658766337459704,-2.776438204610106,0.0007534258728017131,0.04984191081556637,0.04984191081556637
29,0.29,0.06752416550265544,-1.2236419535739431,-3.0495813659746176,0.02784275230744349,0.046920423200591865,0.046920423200591865
30,0.3,-0.6426538761803458,-1.3140731010639775,-2.9065307792761383,0.0070361625854893865,0.040970482843533496,0.040970482843533496
31,0.31,-0.891677314273468,0.22776148026924803,-2.55520120505903,-0.021226016292021952,0.03717643160733485,0.03717643160733485
32,0.32,-0.7010306238427426,1.1171913343715607,-2.329373064777799,-0.024251131955793905,0.03744622652487618,0.03744622652487618
33,0.33,-0.14494964615215086,0.03381357677068564,-2.271702353545625,-0.0031104080840872704,0.032284643975534565,0.032284643975534565
34,0.34,-0.19215098046889867,-1.410719379539633,-2.159486247769453,0.0038501781285257704,0.026582669125226662,0.026582669125226662
35,0.35,-0.19003771558328506,-1.1754611066129173,-1.5576018782886651,-0.018988006212826446,0.016354338988035327,0.016354338988035327
36,0.36,-0.1919658195235448,0.29854939631622723,-0.7055598257392763,-0.028055852211649,0.00694094833187937,0.00694094833187937
37,0.37,0.37552394201729744,0.9917362709149613,-0.4997357627870761,-0.010230882190345977,0.0023769580241376122,0.0023769580241376122
38,0.38,0.5468056369610035,0.047495870698566894,-0.12220649629622282,0.007119548085230854,-0.0017729381045926984,-0.0017729381045926984
39,0.39,-0.0009418130191467811,-1.0806045419906702,-0.369380978957958,-0.008212597383285848,-0.004322834398711571,-0.004322834398711571
40,0.4,-0.5587916625075052,-1.0434049291903307,0.20076802197963528,-0.033778444619345815,-0.008752647347808281,-0.008752647347808281
41,0.41,-0.16526021882243724,-0.0814630781850928,0.42314694760140203,-0.034859757691547096,-0.020047679839246255,-0.020047679839246255
42,0.42,0.5403205861122846,0.8948359183695938,0.9580009534039444,-0.00188680710598434,-0.02397582354472722,-0.02397582354472722
43,0.43,0.516932582944265,1.2541367963932286,1.2176462884734476,0.04137114367577993,-0.02743665012137159,-0.02743665012137159
44,0.44,-0.07952277554915349,0.7891388434749029,1.7031621553995984,0.061222406569868326,-0.03163699345896021,-0.03163699345896021
45,0.45,-0.4267211206629254,0.07434368752123194,1.5822481237817407,0.026926897618970932,-0.0343406329458764,-0.0343406329458764
46,0.46,0.18539355366493218,-0.2937839826465848,1.5777728196123406,-0.024394925565732736,-0.03699642140415897,-0.03699642140415897
47,0.47,0.32908730527342506,-0.11648360981691402,1.6694158898792395,-0.0524121157408888,-0.04659666990179985,-0.04659666990179985
48,0.48,0.03967874290362293,0.24608994091108286,1.728471519080977,-0.02533356711445163,-0.05283508117305871,-0.05283508117305871
49,0.49,-0.17279722614350324,0.05520530468208382,2.438526877761933,0.020944290679822543,-0.053937166582789665,-0.053937166582789665
50,0.5,0.3824414458097124,-0.47262255278561016,2.185419442041667,0.04802213681414887,-0.05523966757605212,-0.05523966757605212
51,0.51,0.8381205928412478,-0.4688524133014917,1.9749363738692725,0.03087859586675644,-0.054370289343251166,-0.054370289343251166
52,0.52,0.36020826629454494,0.21845932195941697,1.694024265265973,-0.007390679547804294,-0.05545354590001977,-0.05545354590001977
53,0.53,-0.03900459712470136,0.5455391098354856,1.3787466947914426,-0.029491908099585226,-0.061514261618774636,-0.061514261618774636
54,0.54,-0.12847974782871374,-0.029372431288770554,1.2589959241715163,-0.01996128801116097,-0.06143989944371867,-0.06143989944371867
55,0.55,0.08162228842135832,-0.4538312074958074,1.203338895037982,0.0001231827845783557,-0.060864994067888034,-0.060864994067888034
56,0.56,0.055032606110807916,-0.0636203664516305,1.1649284867953904,0.020985735084395142,-0.06470208986239903,-0.06470208986239903
57,0.57,0.2910498947593584,0.5541178110712897,0.9568951629627499,0.028467421519896962,-0.062038714430336137,-0.062038714430336137
58,0.58,0.31232169445090396,0.3657688924497659,0.8248261437744555,0.016813662791926958,-0.06221623800881294,-0.06221623800881294
59,0.59,0.3244558289041523,-0.22463358326561544,0.0545409496098862,-0.01753653449804246,-0.06092693456337603,-0.06092693456337603
60,0.6,0.14996742522805248,-0.3251012192338003,-0.2005371461027413,-0.04169742502977893,-0.054734514206571584,-0.054734514206571584
61,0.61,-0.32231670881711727,-0.08662324806795679,-0.5787375191304445,-0.02589766976379852,-0.05252785438734008,-0.05252785438734008
62,0.62,-0.598909046225954,-0.005850089464729258,-0.8802506792860084,0.01436473506908285,-0.05053459004634655,-0.05053459004634655
63,0.63,-0.30922443271798183,-0.24292089780342394,-0.9020547963776422,0.038428025221493536,-0.04973442953626152,-0.04973442953626152
64,0.64,0.17594290075221114,-0.11222350707338728,-1.0352605225425093,0.030869636760137938,-0.04962365781071907,-0.04962365781071907
65,0.65,0.27004827965412087,0.4229581314101071,-0.8022752948184333,0.003504673299096516,-0.04662841036376255,-0.04662841036376255
66,0.66,0.0859225206331938,0.8789939510118349,-0.8479318276858436,-0.015882923799788142,-0.04290462700538388,-0.04290462700538388
67,0.67,0.06499202836139711,0.5949734936386457,-1.5025179475684303,-0.010429353424208929,-0.034209213617335886,-0.034209213617335886
68,0.68,-0.09728760799368608,-0.2670120000661787,-1.6796415727374707,0.005084192695114003,-0.02684453545470509,-0.02684453545470509
69,0.69,-0.5115103411210189,-0.9053899011970301,-1.803243795077297,0.006765253168548162,-0.028885867781042757,-0.028885867781042757
70,0.7,-0.5291346413028897,-0.4568588641647522,-1.0896780171120275,-0.0058203467225262364,-0.02551834851438757,-0.02551834851438757
71,0.71,0.08155378326813226,0.4079744442683329,-1.0160975752756514,-0.004647365735865847,-0.021585410808386538,-0.021585410808386538
72,0.72,0.31049418713865073,0.6676112572339326,-1.051465774701585,0.01255761838030293,-0.015200712819373402,-0.015200712819373402
73,0.73,0.0030202438955273248,-0.009505655451964412,-1.2030823026714188,0.021126971235918213,-0.0075931413703617875,-0.0075931413703617875
74,0.74,-0.41124449067534125,-0.7231716978617408,-1.2520202391526212,0.0046006853601390845,-0.0014621897052735458,-0.0014621897052735458
75,0.75,-0.4186198727404391,-0.5897016706771435,-1.177950101394944,-0.024662475671680114,0.004503877113184455,0.004503877113184455
76,0.76,-0.38801832235328365,0.05389509786672708,-1.3799255453128825,-0.03396542206190923,0.010516103771440386,0.010516103771440386
77,0.77,-0.5114412687908141,0.2628297159016282,-1.1825436833640572,-0.013367886790476177,0.015051313212866155,0.015051313212866155
78,0.78,-0.3210068425771576,-0.2878598855836687,-1.159249075224848,0.013743445402797668,0.01612748872504349,0.01612748872504349
79,0.79,0.12238848555757345,-0.5007704539700856,-0.5937601966255419,0.016701442792720008,0.019127341412224698,0.019127341412224698
80,0.8,0.34787021592542683,-0.1580699061016725,-0.03280796442081507,-0.0016602976140185936,0.020721033580437268,0.020721033580437268
81,0.81,0.10642667493300789,0.26709272916844645,0.2743831815909977,-0.016918226869672672,0.025177540008281152,0.025177540008281152
82,0.82,-0.13165336831067098,0.16341183411801546,0.13509533823282677,-0.01553144753984118,0.03425078793190756,0.03425078793190756
83,0.83,-0.20095396607973726,0.003004176023341326,-0.27818143356363323,-0.000997018410068701,0.039963546162392,0.039963546162392
84,0.84,-0.21776461284483653,-0.1154340265828645,-0.6002596930173225,0.01244961470860053,0.039383904181697175,0.039383904181697175
85,0.85,-0.18264260776554128,0.11503594860250378,-0.04456242984015174,0.008658934706626596,0.03495157884014406,0.03495157884014406
86,0.86,0.26689223703636455,0.13168012586424865,0.7540820140049003,-0.004809679381932659,0.030739139010932073,0.030739139010932073
87,0.87,0.623548188038993,0.0664468565961808,1.1989595863015161,-0.02801093841843924,0.039619537957136484,0.039619537957136484
88,0.88,0.3657869020712452,-0.17260496791056326,0.8758542048948658,-0.03767396491621771,0.04848780736720111,0.04848780736720111
89,0.89,-0.41456897560513106,-0.19980579202518142,0.4180836448853428,-0.033396764351148835,0.05334371226035134,0.05334371226035134
90,0.9,-0.4371405697756388,-0.06255994947137013,-0.0770842899595664,-0.018821394187437026,0.05107987691988649,0.05107987691988649
91,0.91,0.11918668470117053,-0.4295855388134552,0.2751597287557691,-0.008644770764420379,0.04482416783869609,0.04482416783869609
92,0.92,0.12145188724119847,-0.6902737821553527,0.6290796317997913,-0.015236285824452125,0.04229062336419175,0.04229062336419175
93,0.93,-0.17235691293791178,0.09638069726471005,1.1371617448004643,-0.02605234554530153,0.03970836020945196,0.03970836020945196
94,0.94,0.10680831085037065,1.6217032276337313,1.3565497146693064,-0.011223907516190278,0.03176431305197788,0.03176431305197788
95,0.95,0.8299452056509891,1.8987077358883486,1.3242122631144582,0.024275252997290855,0.028201131366038613,0.028201131366038613
96,0.96,0.8412000819870259,0.40739163324869454,1.436530786817851,0.033286462505982384,0.02583512792637426,0.02583512792637426
97,0.97,0.07744287801996858,-1.2726369468769223,1.3094096037884082,-0.012449292463167049,0.02309948794560051,0.02309948794560051
98,0.98,-0.30905098408668874,-1.2812242316671236,1.2071178718881663,-0.06548778302150063,0.019067258907291017,0.019067258907291017
99,0.99,-0.12780577913277344,-0.03731631178795394,1.0908546463987643,-0.07412743620804027,0.015827205244153902,0.015827205244153902
100,1.0,0.09645691550341304,0.9830143869870757,0.8248602357871611,-0.030096890794194506,0.010564787602161672,0.010564787602161672
101,1.01,0.2354999720289902,0.47046545618074936,0.5508028989889456,0.02294969850425009,0.009643593374736028,0.009643593374736028
102,1.02,0.09414276844563613,-0.6445409161017156,0.6573886947809243,0.03303317239225688,0.007896185641890093,0.007896185641890093
103,1.03,-0.13703234118306817,-0.9017683106598264,0.36746068002972065,-0.013492561470090569,-0.000840682713625572,-0.000840682713625572
104,1.04,-0.1603481057635367,0.17559049047643785,0.3793172919192871,-0.060330287066983936,-0.003819174355266698,-0.003819174355266698
105,1.05,0.20763441723370457,0.8304829604674951,0.13088984393331987,-0.06946126581436245,-0.006193554536413358,-0.006193554536413358
106,1.06,0.20825556076600407,0.09412999604575933,0.1783361766205762,-0.04252082130598733,-0.010782969591317526,-0.010782969591317526
107,1.07,-0.1145873916027699,-1.1160447428828402,0.23086496147529642,-0.021011436955663928,-0.015303508209413563,-0.015303508209413563
108,1.08,-0.24730761883594132,-0.9695362703530682,0.18079136015461106,-0.022553389949065902,-0.014925662386469453,-0.014925662386469453
109,1.09,0.1484099594591538,0.48762072880496665,-0.3415170009742758,-0.030776800912580383,-0.014808114289319363,-0.014808114289319363
110,1.1,0.3402669133265257,1.5092037691979687,-0.4882644628468673,-0.025697581168510668,-0.014167276244871338,-0.014167276244871338
111,1.11,-0.07624306197087212,0.8896839777329391,-0.6296678863713321,-0.009310921385840816,-0.021460420736028645,-0.021460420736028645
112,1.12,-0.3113309306681096,-0.3667869488224945,-0.45797471753945224,-0.012698206954570274,-0.022833697564745088,-0.022833697564745088
113,1.13,-0.06628048205952694,-0.7979761299470673,-0.021954141758637746,-0.03565255573795958,-0.02795256548238898,-0.02795256548238898
114,1.14,0.30314396310306235,-0.1972528229135907,-0.10195002756745308,-0.038228178139331104,-0.02945916822702692,-0.02945916822702692
115,1.15,0.22835671290740048,0.4289683597982511,-0.08310302543351422,-0.002693006252953444,-0.02214230663648168,-0.02214230663648168
116,1.16,0.015513674587087745,0.0021757586042588928,-0.540105099321996,0.024733490715274,-0.017403883818922317,-0.017403883818922317
117,1.17,-0.04954341394320734,-0.42886284341268766,-1.0567935459174052,0.017545281585028376,-0.00942346152472573,-0.00942346152472573
118,1.18,-0.19486028251905346,0.4112806891723503,-1.177027928673686,-0.004823873854046372,-0.008388191672743925,-0.008388191672743925
119,1.19,-0.31297864923498786,1.7722542275125401,-1.5088890776049324,-0.004889530544274678,-0.005387718279489836,-0.005387718279489836
120,1.2,-0.2699885551919552,1.3204358372666842,-1.0436260567707856,0.02690857980956572,-0.004755669974217943,-0.004755669974217943
121,1.21,-0.08961923683133899,-1.128221212478879,-0.7989732582243531,0.035066896635434185,-0.006228400020549591,-0.006228400020549591
122,1.22,0.028989878356065563,-2.575055669072354,-0.5079936936543241,-0.00034635570838786704,-0.0011332746790679634,-0.0011332746790679634
123,1.23,0.09028586685619122,-1.081162841158291,0.1773669759597798,-0.039567578423169734,-0.001042222447221655,-0.001042222447221655
124,1.24,0.1724639892164604,1.3494215372351657,-0.01917109873332723,-0.01879232279806086,0.002601387567638602,0.002601387567638602
125,1.25,0.15970603205453981,1.3073263702468139,-0.05834041782072663,0.04382362044871295,0.012832627762590658,0.012832627762590658
126,1.26,0.11080071579850767,-0.9604793692778798,-0.4736532440737477,0.055845620239039766,0.01691526780106049,0.01691526780106049
127,1.27,-0.05079080042141268,-2.311121770416368,-0.7649068015262568,-0.0024295212168199305,0.021240482096068453,0.021240482096068453
128,1.28,-0.1273768025720226,-0.9736239806425546,-0.501764920882606,-0.06976048552760282,0.02034621597137525,0.02034621597137525
129,1.29,-0.214959210475854,1.0856263314503698,-0.3600491322221281,-0.06602582988071752,0.017319533081550754,0.017319533081550754
130,1.3,-0.2801673087906722,0.9706981936999155,-0.04436839205458404,-0.006057442534468164,0.02375854348933321,0.02375854348933321
131,1.31,-0.06140454634406442,-1.126207909688684,0.01713993261348523,0.03634725967032884,0.026642602511261458,0.026642602511261458
132,1.32,0.34270427310607376,-1.990612952227075,-0.26151681345142286,0.02110236985292821,0.02415045196194196,0.02415045196194196
133,1.33,0.29807731545011923,-0.05807082851999601,0.05796795926623502,-0.02451642143723697,0.026058518597426437,0.026058518597426437
134,1.34,-0.17704096336840142,2.369276000303786,-0.06883916442146026,-0.02948109241296855,0.030812046174036826,0.030812046174036826
135,1.35,-0.5550989078958837,2.2542089294142467,0.07752507795694409,0.015691484295740462,0.033439427340840884,0.033439427340840884
136,1.36,-0.026969624780426027,0.04005443844861989,-0.297141023263395,0.04704285789531186,0.03471222727135971,0.03471222727135971
137,1.37,0.2604057291952233,-1.2977910751208321,-0.16799193904032306,0.01711267579488301,0.03348037184574676,0.03348037184574676
138,1.38,-0.18799770961702397,-0.33013183346907443,0.22852494748631716,-0.03531558834238635,0.03685584291501436,0.03685584291501436
139,1.39,-0.5313140179910996,1.195330544100303,0.43617592726330434,-0.03940538579976462,0.03678434276530552,0.03678434276530552
140,1.4,-0.3858122147984061,1.2556853516337136,0.2944639384546559,0.009202409989791577,0.042278134613220636,0.042278134613220636
141,1.41,-0.13492872193960465,-0.0240857499027268,-0.12526597552524477,0.0450356006685455,0.04682388618525308,0.04682388618525308
142,1.42,-0.5524287755066374,-0.7353466397525993,0.18614893341793814,0.034973883001621686,0.03810372368504907,0.03810372368504907
143,1.43,-0.2744105885874418,0.02183129871315652,0.3385285825551513,-0.005592149308418375,0.02977916357407344,0.02977916357407344
144,1.44,0.5433152679795494,1.1251669505495268,0.5042875553463517,-0.02711180660775317,0.03079083882486065,0.03079083882486065
145,1.45,0.1287751554992292,0.881489411272057,0.7702929523122044,-0.014822981367776813,0.03509339510376873,0.03509339510376873
146,1.46,-0.8511589554268897,-0.7382918473655993,0.5569703089953557,0.001873474176671606,0.03701042265263337,0.03701042265263337
147,1.47,-0.3386364400939832,-1.586786663621362,0.3462882381769676,0.0012399971289959902,0.029521768785255368,0.029521768785255368
148,1.48,1.295070518310169,-0.3478131502367946,0.028155093441432577,-0.0064386977983040316,0.02366429232172058,0.02366429232172058
149,1.49,0.990517311999076,0.8433575419400888,0.5758728111767871,0.00595641269060066,0.019018975985674813,0.019018975985674813
150,1.5,-0.5378418686250506,0.26252587185600235,1.111443785506635,0.01625106676040935,0.024006716898114958,0.024006716898114958
151,1.51,-0.5656260755595982,-0.8396617687796332,0.6691506618923463,0.008040742556545607,0.0262781118529824,0.0262781118529824
152,1.52,0.44589302500485956,-0.7396063407812449,-0.3615074210796655,-0.014868940944672372,0.026504312075048424,0.026504312075048424
153,1.53,0.3187659752085002,0.21657583524265628,-0.5096681765400487,-0.016851883285215776,0.020920622442919846,0.020920622442919846
154,1.54,-0.3263764947545537,0.14667860713594116,0.19061473393379869,0.006940074724200291,0.010385614330968684,0.010385614330968684
155,1.55,0.27465201029906516,-0.6787712659048847,0.762828712598293,0.020469157215878348,0.0060460043938381286,0.0060460043938381286
156,1.56,0.8790159394561605,-0.8307141255392773,0.6219035697821629,0.0051797207990498285,0.011067222336823938,0.011067222336823938
157,1.57,0.1865692326965397,0.1811888007787933,-0.006453986272963397,-0.01712509387599297,0.017836809037329603,0.017836809037329603
158,1.58,-0.5779244895163884,0.8282491158093739,-0.15805803571138194,-0.01918339093531183,0.014471239452482297,0.014471239452482297
159,1.59,-0.007633998186465846,-0.021850747255779263,-0.40090322740986695,-0.001318224349080628,0.005960421616615214,0.005960421616615214
160,1.6,0.9384612359135178,-1.114359563763743,-0.3689410671036708,0.007000659541396186,0.0027172707378270104,0.0027172707378270104
161,1.61,-0.02783774515197343,-0.5146882779017409,0.01815286362550317,0.005435922775095252,0.004263602180880911,0.004263602180880911
162,1.62,-1.257980540110148,1.0112176087675353,0.5112415366492014,0.014853507215906015,-0.0051490528666804205,-0.0051490528666804205
163,1.63,-0.19301780619068698,1.6909520827512585,0.6030361380769235,0.04384660508936083,-0.016227163964252073,-0.016227163964252073
164,1.64,2.083716055673136,0.932042526771376,0.360764838010541,0.06833006811241649,-0.02171533303983433,-0.02171533303983433
165,1.65,1.9207741755608128,-0.1117061243048636,0.6563601667367359,0.049141919347209635,-0.02791169734471216,-0.02791169734471216
166,1.66,-0.617381523153449,-0.5747018586396758,1.0921799109708359,0.00030989144676154753,-0.025056620158042456,-0.025056620158042456
167,1.67,-1.3393423319026483,-0.2596927640107143,0.568384531219938,-0.028746483695948226,-0.027635357705106774,-0.027635357705106774
168,1.68,0.3880297592039285,0.24266688718917862,-0.8056785081923014,-0.007139081396762673,-0.02154729559532129,-0.02154729559532129
169,1.69,0.9979301591326473,-0.2181462484073737,-1.483431434703396,0.032019778886012845,-0.020402034049516782,-0.020402034049516782
170,1.7,-0.7328956738262433,-1.1331340257825124,-0.6564748924079944,0.04684136103865949,-0.032104416015733994,-0.032104416015733994
171,1.71,-1.131532807485069,-1.1690764781454182,-0.07705083545931579,0.0183329322799175,-0.0372139845707225,-0.0372139845707225
172,1.72,0.36494437141011754,0.5203662202922013,-0.010577755872912986,-0.012651466642154495,-0.03255835925462668,-0.03255835925462668
173,1.73,0.6494230670042379,1.7489841503913648,-0.5218593422018061,-0.008956667623245358,-0.03242874270229152,-0.03242874270229152
174,1.74,-0.6561662852215502,0.8266504991810506,-0.821644162553844,0.021133606220414655,-0.03178329362792491,-0.03178329362792491
175,1.75,-1.089782586153898,-1.365930424345339,-0.4431597550890306,0.015912380578946894,-0.036969983004995134,-0.036969983004995134
176,1.76,0.10046861229119525,-2.2945839617414965,-0.3989790117733948,-0.031096659221189444,-0.043177570509440925,-0.043177570509440925
177,1.77,0.7109405011643978,-0.6828593933493845,0.03785186812315883,-0.07013421969991207,-0.03872038233170489,-0.03872038233170489
178,1.78,0.09778531477001629,1.623555691332266,-0.07148215922931367,-0.03848963812723765,-0.03833814802601531,-0.03833814802601531
179,1.79,-0.5178617275956474,1.742298357482064,-0.3576593822920331,0.0314918537793694,-0.03367273555220971,-0.03367273555220971
180,1.8,-0.43756772151006906,-0.1578282112832563,-0.43282365816213064,0.05878159106723144,-0.030385020842740494,-0.030385020842740494
181,1.81,-0.22751379090197532,-1.486021573603308,-0.8751551184989413,0.01930294748324313,-0.03529427112388888,-0.03529427112388888
182,1.82,-0.02008576261663672,-0.5361000417093957,-0.4783358820642058,-0.03695130726525697,-0.03259464459022502,-0.03259464459022502
183,1.83,-0.4332363161030484,1.4607312713136733,0.0461916028556395,-0.03893950612678405,-0.04078327673622995,-0.04078327673622995
184,1.84,-0.626244147830079,1.8403913240966665,0.12563774836397762,0.02902875431719089,-0.04269167358224939,-0.04269167358224939
185,1.85,-0.02845649750263829,0.009076244665106259,0.44012423084688046,0.08999423763015403,-0.03944784334102025,-0.03944784334102025
186,1.86,0.7154521310397709,-1.66967260405957,-0.01643192946966529,0.09189801298544913,-0.04201780650749029,-0.04201780650749029
187,1.87,0.9178225348749159,-0.40078904809649024,-0.6727281386785854,0.04762092024540121,-0.038185236145595707,-0.038185236145595707
188,1.88,0.3904060512087544,3.0319830031977464,-0.7694019501759453,0.04181550436016107,-0.034708397648734714,-0.034708397648734714
189,1.89,-0.6229482743998128,4.576549907205488,-0.47989493263060634,0.10820252890178524,-0.03140700124191231,-0.03140700124191231
190,1.9,-1.089500446131996,2.4297123196033272,0.3890636363375585,0.1436723657591818,-0.02613976681369475,-0.02613976681369475
191,1.91,-0.7245304217484706,-2.6477267602676875,0.6291077305246308,0.09262807663204904,-0.0199996036205787,-0.0199996036205787
192,1.92,-0.2817274839039408,-6.038855337068199,0.13442152557413184,-0.022825598018762886,-0.012126960850274156,-0.012126960850274156
193,1.93,0.07671498552271011,-4.670626546233766,-0.29366458301650145,-0.1134072276951717,-0.01255673720046797,-0.01255673720046797
194,1.94,0.30442183392114064,-0.24326602769831362,-0.3105618624942594,-0.07880763438959554,-0.024579698608396316,-0.024579698608396316
195,1.95,0.552669437718993,2.5978571015598333,0.5100114845212831,-0.009103414158429355,-0.02703366946315804,-0.02703366946315804
196,1.96,0.6281804596621411,1.0588486778146207,1.2891675873265216,0.06746720802203744,-0.018825535435500446,-0.018825535435500446
197,1.97,-0.15024232105774216,-1.7775990904403938,1.0175811504194876,0.0852163625919021,-0.008876257007565733,-0.008876257007565733
198,1.98,-0.9283559032521836,-2.1169027147588038,-0.15584266335227637,0.042938738724255326,0.005012038610213751,0.005012038610213751
199,1.99,-1.0404173627566857,0.1380276937929526,-0.3990625324642121,-0.018505639157756992,0.005073447133732604,0.005073447133732604
200,2.0,0.2894438607068086,1.2297886695757194,-0.9793996729377504,-0.06890279386676809,-0.0056692863465644255,-0.0056692863465644255
201,2.01,1.6224660429422726,0.4634490067698922,0.24637876462801045,-0.05577908053182461,-0.007802835660956665,-0.007802835660956665
202,2.02,1.0356300083026015,-0.3439970370141906,0.9580534736860632,-0.022952080573756358,-0.00678655441343678,-0.00678655441343678
203,2.03,-0.7193591225496963,0.14069182949490838,1.4018000355830988,0.005610367912146112,0.007536166338901325,0.007536166338901325
204,2.04,-0.8278482104525815,0.8283882760772265,0.5491922759788379,0.016933287302106838,0.016748660406224906,0.016748660406224906
205,2.05,0.567476471433174,0.6005095591761986,-0.8134231589577596,-0.0066917602282577406,0.01830157285102275,0.01830157285102275
206,2.06,1.0752018159381966,0.30895191139701933,-0.7866495689148034,-0.04421146223456463,0.018020944521903625,0.018020944521903625
207,2.07,-0.1079411008985989,0.7533266854455871,0.6313633501834954,-0.06084045291215023,0.006750112672183835,0.006750112672183835
208,2.08,-0.536360871489392,1.0572471897315818,1.4246418316633418,-0.02665394193372611,0.013146515633223643,0.013146515633223643
209,2.09,0.5355755341554707,0.44635774790320715,1.2399981984049426,0.016886822968337906,0.03460710284793202,0.03460710284793202
210,2.1,1.1551640319024086,-0.2841788707404004,-0.882205611314112,0.03133512739429057,0.051041482056856616,0.051041482056856616
211,2.11,0.02582281146346499,0.8786452693297182,-2.3683706195017304,0.005952080802408125,0.062115922458019314,0.062115922458019314
212,2.12,-1.767825513096321,2.7386055339131614,-2.0475320252453244,-0.024500317210324654,0.05159395072621667,0.05159395072621667
213,2.13,-1.8078146532363806,3.177312652168639,-0.8958572076092861,-0.0198554555697745,0.03639212029200193,0.03639212029200193
214,2.14,0.15732607510692098,1.3577509593160149,0.9892408378509181,0.015615465083884271,0.025577356394672655,0.025577356394672655
215,2.15,1.6950726627884225,-2.50658049351708,2.9817900612921764,0.01705234110119919,0.015710418963485292,0.015710418963485292
216,2.16,1.8651260097379343,-5.500843020405973,3.290749795075305,-0.053204284905450615,0.01972221018846403,0.01972221018846403
217,2.17,1.3769197378645237,-4.386352153452082,1.837347923883748,-0.11433874716293292,0.04840758321310792,0.04840758321310792
218,2.18,0.04326497359694437,0.49160652691779705,-0.9702314862499457,-0.09123171655046153,0.06737471997851656,0.06737471997851656
219,2.19,-1.8195591490150036,3.9024931374119918,-2.8563540898885815,-0.01098977847346036,0.07217166672391,0.07217166672391
220,2.2,-2.100225494851253,2.5102289896153316,-2.229591454390871,0.0722361111711659,0.05464154824609178,0.05464154824609178
221,2.21,-0.1494591763808395,-2.354758286239827,-0.9918115591853958,0.055684247033441436,0.03757516355298966,0.03757516355298966
222,2.22,1.1293645904530643,-5.031812533527302,1.3433932406092,-0.04906228471589528,0.025930363714444852,0.025930363714444852
223,2.23,0.8198884584247658,-3.0938038478499443,2.185670312408443,-0.16897145589343876,0.019477789010574408,0.019477789010574408
224,2.24,0.26300345675710435,2.052406421503785,1.0550358149500403,-0.14816625163156355,0.03657780316649696,0.03657780316649696
225,2.25,0.10244264376458159,3.974195203722071,-0.9393618190706134,-0.045364185321522116,0.047651267118782495,0.047651267118782495
226,2.26,-0.20052868799289025,0.4785739145320317,-2.1864182627293065,0.041281848153221265,0.038481095650650894,0.038481095650650894
227,2.27,-0.9363108752908192,-2.90286880906873,-1.5247239465690798,0.039467494419215286,0.018085441495711528,0.018085441495711528
228,2.28,-0.7112213250422267,-2.189198673004052,0.05516481013855068,-0.03403504825159731,0.002642178778999073,0.002642178778999073
229,2.29,0.5433615972386714,2.566758050619557,0.8145803319981564,-0.09984024609313802,-0.010489645906834516,-0.010489645906834516
230,2.3,0.9437073219598472,4.5367985320416295,0.281408419027069,-0.08249940590513302,-0.011717587850307416,-0.011717587850307416
231,2.31,0.3679988393444369,0.7703967837464902,-0.2434258184564253,-0.02378236430384735,-0.007478457054931242,-0.007478457054931242
232,2.32,-0.45365359964182594,-4.2247407170642335,-0.35127254458353435,-0.039135822609066964,-0.021257428415119645,-0.021257428415119645
233,2.33,-0.19362587827613398,-4.106474421017435,-0.4589141892803492,-0.10665451459311732,-0.034474123278046886,-0.034474123278046886
234,2.34,0.20830121062501328,1.37270206216713,-0.1401773216925515,-0.11049073754948943,-0.038529562362373836,-0.038529562362373836
235,2.35,-0.74247469326014,4.805556291071213,0.12815987638809728,-0.03951006716661578,-0.048877426630092986,-0.048877426630092986
236,2.36,-1.459067081920527,2.791102415417023,0.2426964434758558,0.060327948944739224,-0.05585445691265799,-0.05585445691265799
237,2.37,-0.09828473388946013,-1.3894676267542478,-0.1975027055224786,0.06871022890487266,-0.06721797655361485,-0.06721797655361485
238,2.38,1.351539748289145,-2.093888466513338,-0.5121092294187753,0.005288766012238443,-0.0748898734759376,-0.0748898734759376
239,2.39,0.5172085140408711,0.9060359061388849,-0.3583986140294155,-0.06764316475450093,-0.08184245499468011,-0.08184245499468011
240,2.4,-1.4666488137510212,3.0822726466300807,0.2674212308891315,-0.04159107043726271,-0.09433491554001024,-0.09433491554001024
241,2.41,-1.6008148575576246,2.0900411668412056,0.29031996939426646,0.04002942470287174,-0.10212845984173924,-0.10212845984173924
242,2.42,0.30060930470269176,-0.9332545227934184,0.1087201074412232,0.09462446707860717,-0.10557831138798668,-0.10557831138798668
243,2.43,1.281047364734169,-2.615422474503963,0.27261719440815807,0.0584335483996285,-0.11861467158006225,-0.11861467158006225
244,2.44,0.5682910152715984,-1.2414823700044584,0.6666446766310901,-0.007650975626625419,-0.1239590431979607,-0.1239590431979607
245,2.45,-0.4268404944190518,0.8650195394567346,1.0039019619533023,-0.03107661969816295,-0.12365613414689383,-0.12365613414689383
246,2.46,-0.616556473546937,0.7096429162165966,0.4982392668225608,0.02180472116234286,-0.11642723894665505,-0.11642723894665505
247,2.47,-0.021876434868933703,-1.1755280635197165,-0.8965098337162594,0.060922274597641976,-0.1092407576449714,-0.1092407576449714
248,2.48,0.1595238322875052,-1.936054174531022,-1.2538002933047305,0.04557078112719538,-0.10425173319170844,-0.10425173319170844
249,2.49,-0.33052096003754133,-0.8049759747608058,-0.6500830610087992,0.0008875804645265627,-0.11884540270208703,-0.11884540270208703
250,2.5,-0.3008815862919831,0.5621122571237607,0.145147203934067,-0.024532342358884025,-0.11897919594919992,-0.11897919594919992
251,2.51,0.6825475715929845,0.5157550595553169,0.7284409074761644,-0.025860198358974414,-0.10693503874223226,-0.10693503874223226
252,2.52,0.9602279106316562,-0.6317484457554223,0.08511215565490757,-0.017472629129765372,-0.09242073792016002,-0.09242073792016002
253,2.53,0.1366175455509146,-1.3251776325150484,-0.9971596900709345,-0.019711171947248786,-0.08530181048466016,-0.08530181048466016
254,2.54,-0.3766020795536624,-1.175003359358063,-0.9878214267749893,-0.025537143400140627,-0.07774690357249255,-0.07774690357249255
255,2.55,-0.3571690967347755,-0.6783336412028724,-0.246417943095385,-0.023927935106591938,-0.0733733657172547,-0.0733733657172547
256,2.56,0.36476661688673734,-0.46568109688532044,0.5466145490179379,-0.028914729177296407,-0.06672696537891883,-0.06672696537891883
257,2.57,0.9286425616060698,0.6349224310556357,0.9949747791219132,-0.01992393064019808,-0.051773475837181976,-0.051773475837181976
258,2.58,0.2977251263417312,2.5080088502149147,0.9751569397596552,0.03564568081984574,-0.03871004373438031,-0.03871004373438031
259,2.59,-0.45072216933966663,2.7834757332295466,0.5067391735068019,0.09185075452038943,-0.03191154152625507,-0.03191154152625507
260,2.6,0.21592199333034584,0.6479186682412591,0.06632182392237695,0.07103213833374984,-0.018749018667727442,-0.018749018667727442
261,2.61,1.2308383517584818,-1.4839023125237323,-0.038698008819021856,-0.002317214905356779,-0.0164533938184988,-0.0164533938184988
262,2.62,0.44201064007629265,-0.17991249355143407,0.6217229029822551,-0.051752730989288745,-0.010764960813770435,-0.010764960813770435
263,2.63,-0.7101872528550446,2.984532563330883,1.1824867170967877,-0.004907643087025196,-0.00025727502559232807,-0.00025727502559232807
264,2.64,-0.0007918974138428903,2.8799449035003977,0.5897108609129909,0.08138822288780619,0.016454389243069276,0.016454389243069276
265,2.65,1.1394216545278542,-1.1162727833081698,-0.0895098951684885,0.13358839946923307,0.030986380406877314,0.030986380406877314
266,2.66,0.27573741684817793,-3.989885645387168,-0.38371787183728684,0.06689788567586437,0.034100966860255974,0.034100966860255974
267,2.67,-1.25232106743556,-1.2756915545206367,0.1569254518355459,-0.017312608321571048,0.04019886432213199,0.04019886432213199
268,2.68,-0.8610438778820925,2.9061475467541253,0.3889656691930334,-0.02252627113095904,0.039199413810219616,0.039199413810219616
269,2.69,0.3299292038783763,2.862392162934534,0.1329139198993233,0.058845902069001886,0.041080554963383836,0.041080554963383836
270,2.7,0.7536571576785934,-1.2918231053648912,0.05745565252620416,0.09884145413209824,0.05144237057731839,0.05144237057731839
271,2.71,-0.03514952652356057,-3.94665150299566,-0.2857487919423795,0.04524019602141988,0.05350981608908044,0.05350981608908044
272,2.72,-0.22282898181867594,-2.3881303714634368,0.041496337207905465,-0.025712871500900653,0.053699506405380036,0.053699506405380036
273,2.73,0.36974020401018476,0.4697325726444026,0.7478906016883513,-0.0663430956382862,0.05565896796134017,0.05565896796134017
274,2.74,-0.19906591278081381,0.7865950486153125,-0.17406101273762414,-0.020167458768695936,0.05527271461155722,0.05527271461155722
275,2.75,-0.9244010424343252,-1.2486660770235225,-0.55451662429994,0.033127330200561585,0.06288190900968403,0.06288190900968403
276,2.76,-0.6517727404064539,-2.301941638754009,-0.8908625254161167,0.035916877087483576,0.059376265845727215,0.059376265845727215
277,2.77,0.029267410172927943,-1.085004441836813,-1.3611243759683447,-0.007207894858961392,0.0614082851501775,0.0614082851501775
278,2.78,-0.49989175110669787,1.0847762733831001,-1.2192994902883736,-0.027216327364116288,0.060792961382995975,0.060792961382995975
279,2.79,-1.569391531323979,1.727308027253693,-0.8613398075637665,-0.000991993959366307,0.04947755367917153,0.04947755367917153
280,2.8,-0.6449163182793759,0.6878692608974109,-0.8157711550285521,0.03121426221931681,0.042727959334914564,0.042727959334914564
281,2.81,0.8866040292294484,-0.553263866054701,-0.544257486556295,0.03506418363138643,0.04108868553386543,0.04108868553386543
282,2.82,0.22345336270627203,-0.41194390178976603,-0.008041735857840793,-0.00016613496506111963,0.03700034436754858,0.03700034436754858
283,2.83,-1.0360746302007469,1.1244484276911508,0.05909758859801112,-0.026308578698134882,0.032271161783873965,0.032271161783873965
284,2.84,-0.5696102988071112,2.2925195437608528,-0.11115325387503974,0.003454036957708925,0.03246195787304985,0.03246195787304985
285,2.85,0.41024561680685345,1.7639008120690303,-1.1333660765563387,0.06118271065012735,0.03098152625029852,0.03098152625029852
286,2.86,-0.03958641235559224,0.3826907910176929,-1.134871883676083,0.0708436349411127,0.026490810143326046,0.026490810143326046
287,2.87,-0.7704082488422692,-0.5587918289511551,-0.4470610395132365,0.022510015709275646,0.006341270474810486,0.006341270474810486
288,2.88,0.14299440027680704,-0.6435856329488348,-0.2764097164473208,-0.034543449436390296,-0.006227100683199561,-0.006227100683199561
289,2.89,0.9362859398235917,-0.5081800328757046,0.7452361847663616,-0.06516549150429811,-0.006175958683493219,-0.006175958683493219
290,2.9,0.003929892029948284,-0.43722335060780687,1.2551084867400881,-0.045017119591882086,-0.017235379069735855,-0.017235379069735855
291,2.91,-0.38714091391341987,-0.3919091317504993,1.0119220013523664,0.0011143147476573873,-0.01972573954449331,-0.01972573954449331
292,2.92,0.9373250518619536,0.1444329991079092,0.7015211896514224,0.049101275203421405,-0.026367203820791125,-0.026367203820791125
293,2.93,1.1665469109484103,0.7803942807572373,-0.0959230489721129,0.05820199610229807,-0.03520972377076333,-0.03520972377076333
294,2.94,-0.2532556382089217,0.788177339637412,0.6712441067314048,0.029092284978335006,-0.03997573699766616,-0.03997573699766616
295,2.95,-0.4700998389821791,0.2789158910988928,0.982569940375992,-0.0028982750204195155,-0.046759083256951856,-0.046759083256951856
296,2.96,1.0552232917175037,-0.19882488099157358,0.5883252742122186,-0.027515915639465392,-0.0444318891971449,-0.0444318891971449
297,2.97,1.1050002773194665,-0.6609523033054434,0.3452753040049416,-0.02712948686767971,-0.04076397703475871,-0.04076397703475871
298,2.98,-0.6943545767685582,-0.8709953241940968,0.663011460357135,0.002451457568485177,-0.045301139010151016,-0.045301139010151016
299,2.99,-0.5639031149689493,-0.5784088969284338,0.4662421126943208,0.03091876735286135,-0.04648930137650336,-0.04648930137650336
300,3.0,1.3813279088191606,0.2119961892929128,0.4669813826574384,0.03712934507571795,-0.03884086991303807,-0.03884086991303807
301,3.01,0.8997306464321,0.1510288203067921,0.43903674649460156,0.011683705280715056,-0.0337438214627123,-0.0337438214627123
302,3.02,-1.381492376887338,-0.47770412350073954,0.9433712155175734,-0.028186855455928982,-0.030083128440976024,-0.030083128440976024
303,3.03,-0.8560051390538007,-0.5073247456879908,0.4487792139396469,-0.049635316903169885,-0.0321262309265236,-0.0321262309265236
304,3.04,1.6387963552894773,-0.07682124714957422,-0.4201829420873809,-0.028352256128226394,-0.024877989318486463,-0.024877989318486463
305,3.05,1.370432120054133,-0.5807939862733571,-0.12917029426049273,-0.0015295900015601365,-0.024813132339607788,-0.024813132339607788
306,3.06,-1.1649319718037106,-1.0115765645228616,0.7651914959288021,0.0077282597345589435,-0.02620758804576153,-0.02620758804576153
307,3.07,-0.908602128905811,0.1325181007956533,0.9800947110564064,0.003435521438891833,-0.0281422953723536,-0.0281422953723536
308,3.08,1.9670374333872136,2.1231981491164884,0.28927949466677944,-0.0031941921031363282,-0.02727719904045246,-0.02727719904045246
309,3.09,1.995862500450972,2.043461930982391,-0.20750136872338043,-0.0023516182560965,-0.02363448584716936,-0.02363448584716936
310,3.1,-0.47831310808012506,-0.26962361651747646,-0.0025701982423314007,-0.015414507285061215,-0.019135889892873112,-0.019135889892873112
311,3.11,-0.9612960420384633,-1.9604692841624511,-0.4255344576432887,-0.044557721374446635,-0.015832215322793344,-0.015832215322793344
312,3.12,0.8612266286002304,-1.39626097009364,-0.7253467820487021,-0.06085080234872404,-0.011225036945001087,-0.011225036945001087
313,3.13,0.9687261168902671,0.2715180282935973,-0.7419834400981222,-0.029064423613978468,-0.009897999872530516,-0.009897999872530516
314,3.14,-1.1543327063270359,1.3369277656386729,-0.04367054580058888,0.02738251708286991,-0.0019161997148155934,-0.0019161997148155934
315,3.15,-1.6041024471223215,1.3891398263931327,0.07321559516366483,0.07267338003492442,-0.0018294852175218587,-0.0018294852175218587
316,3.16,0.053768983820598526,0.9643005037229183,-1.0512167804105372,0.05662771119396049,0.00010935777016962038,0.00010935777016962038
317,3.17,0.432681162691937,-0.005435025156990125,-1.2720123626879993,0.012210191405243787,0.002415644217336341,0.002415644217336341
318,3.18,-0.8557863339621716,-0.8137976086631783,-0.7390885730200099,-0.04973637188217833,-0.008778308209856341,-0.008778308209856341
319,3.19,-0.940861463020819,-0.7984044952666183,-0.2328025990267894,-0.0697788234095569,-0.01113920732196764,-0.01113920732196764
320,3.2,-0.11653217323737747,-0.053548333678711146,0.04493067312601545,-0.021962928246837703,-0.007940328720909828,-0.007940328720909828
321,3.21,-0.09672753128997508,0.26366097799028754,-0.3375519963993795,0.032372863069695286,-0.00453343904808322,-0.00453343904808322
322,3.22,-1.003070886538536,0.2337905594639016,-0.1135416654678803,0.06695569148800237,-0.006459967834841164,-0.006459967834841164
323,3.23,-0.7057196239448231,0.567337858121876,-0.7478030619970535,0.05595996609885347,-0.01705865123869842,-0.01705865123869842
324,3.24,0.2754262637487128,0.6700683303378417,-0.6060781793646042,0.02359690642616331,-0.024183838920687085,-0.024183838920687085
325,3.25,-0.24971671251771083,-0.2038195888480261,-0.04669717611794172,-0.023279023173261776,-0.0334114329230608,-0.0334114329230608
326,3.26,-1.1738985311531165,-1.5635187296047444,1.1876067336600211,-0.07713301992435906,-0.03942372497529326,-0.03942372497529326
327,3.27,-0.344358919394107,-1.9584695804273162,0.3402955144883816,-0.0927805093123351,-0.03479068261583814,-0.03479068261583814
328,3.28,0.45585951936329483,-0.7738493453290146,-0.6438810638636958,-0.061769951537362276,-0.03807294682683976,-0.03807294682683976
329,3.29,-0.431372309977635,0.3986665446976859,-0.9342475544086792,-0.012551018035157142,-0.04552101074289743,-0.04552101074289743
330,3.3,-0.7719815677105437,0.12301508943002903,0.015675056653619346,0.01421686592005029,-0.052994289373566886,-0.052994289373566886
331,3.31,0.7043861146538033,-0.9120548718942234,-0.10778288992095564,-0.02507699799119209,-0.05365285643033795,-0.05365285643033795
332,3.32,0.8868947683619768,-0.9305036331628901,-0.780586690698005,-0.07719962797717421,-0.038335091711391885,-0.038335091711391885
333,3.33,-1.0918614732566279,0.5753698919951273,-1.6167000170350616,-0.09047478038401817,-0.023407155617008416,-0.023407155617008416
334,3.34,-2.3829772992626315,1.4856839636186192,-2.0937172962497117,-0.04108051822702307,-0.02353946118529052,-0.02353946118529052
335,3.35,-0.671704624836759,0.8121200169263172,-1.9389930730912528,0.00756701127837757,-0.02834108685620595,-0.02834108685620595
336,3.36,1.0330006525202124,0.15472896367846722,-0.8532285391168211,0.03430926728866166,-0.035926635119022485,-0.035926635119022485
337,3.37,0.2842011713419826,0.7315352870053782,0.9352923216849718,0.010765777209813006,-0.03811766001972832,-0.03811766001972832
338,3.38,-0.5168221377765468,1.5861847226715171,2.539303682801492,-0.02297495975576007,-0.03965151645628987,-0.03965151645628987
339,3.39,0.7521692462865032,1.4646285875151164,1.9468602748840027,-0.032897016516219346,-0.030040991679184295,-0.030040991679184295
340,3.4,1.8768111802714582,0.22164077321399933,0.8713846348711847,-0.020477863782054156,-0.01097383515655869,-0.01097383515655869
341,3.41,0.8031609305409001,-1.1415140931755523,-0.43965487247954194,-0.0156067359583481,-0.0037878291920021108,-0.0037878291920021108
342,3.42,-0.6873292942900706,-1.454807277391055,0.0506773009730499,-0.017697657221516047,-0.010074282211636088,-0.010074282211636088
343,3.43,0.25291775411480355,-0.5426367222562064,0.535212619944569,-0.013653334177333502,-0.014260574526772513,-0.014260574526772513
344,3.44,1.6929904073787831,0.8670298479048585,1.351240899171073,-0.004106281994460049,-0.009704776139968969,-0.009704776139968969
345,3.45,1.046418722916611,1.544883115345085,1.7687650122613305,0.015500501311369168,-0.0008224907526896124,-0.0008224907526896124
346,3.46,-0.12205896658013415,0.37425265585868206,1.6138948133545221,0.013050561070964512,0.00655307391814738,0.00655307391814738
347,3.47,0.6274839225599592,-1.5851270069350307,0.8202407821615466,-0.026478716197851925,0.005300169863654686,0.005300169863654686
348,3.48,1.3318553230282768,-1.7968355416443338,0.3585246528299644,-0.07289147239195552,0.008035393552183648,0.008035393552183648
349,3.49,0.4910405256531729,-0.31587263355402595,0.5154049662688172,-0.06708213912274733,0.010680192725875792,0.010680192725875792
350,3.5,-0.038707480087683765,0.5430766270620677,1.2898745614967615,-0.022583934682044768,0.013676174152848957,0.013676174152848957
351,3.51,0.7949987621693203,-0.47281072511728506,1.2635812212134756,0.01366055594219797,0.01966399684044877,0.01966399684044877
352,3.52,0.9816832229614052,-1.83438213899485,0.7127986511171662,-0.006245677108128858,0.037142484215191236,0.037142484215191236
353,3.53,-0.24573447770052476,-0.9983180476774601,0.05979246809236577,-0.05501754545165144,0.045132018579334805,0.045132018579334805
354,3.54,-0.4755527559791397,0.5409145774751734,-0.6186365071393747,-0.07408914596795732,0.04536049958096814,0.04536049958096814
355,3.55,0.3984702625643163,0.7139258077493673,-0.7092376432166669,-0.04657838897524053,0.04325857154867727,0.04325857154867727
356,3.56,0.034677973961306396,-0.11863423865258049,-0.11745327589336862,-0.0036011151959161524,0.047218081357120516,0.047218081357120516
357,3.57,-1.0802050623250796,-0.23607007158288845,0.34369994591365904,0.011093839849774866,0.05015569038013882,0.05015569038013882
358,3.58,-0.4917130724900001,0.8371896389507669,0.42402306596474737,-0.006590689749215494,0.054097033932981285,0.054097033932981285
359,3.59,0.772518255476678,1.5428787827653572,-0.2844699527747105,-0.025441051085826838,0.0539913426338324,0.0539913426338324
360,3.6,0.5156092537828283,0.8678579943308502,-0.5167618749394804,-0.024344942040992128,0.062160385704574085,0.062160385704574085
361,3.61,-0.8669421529069735,-0.5630646206365679,-0.277885277542429,-0.02812235197391581,0.06284231576293763,0.06284231576293763
362,3.62,-1.1116991043837756,-0.7889485139582338,0.009573944936221546,-0.029765990414245193,0.060383635264591215,0.060383635264591215
363,3.63,-0.19109971585549995,0.6325473798647179,-0.14041725964564278,-0.008302951314423374,0.06731468673482201,0.06731468673482201
364,3.64,0.11681915842513568,1.9826426279107805,-0.4626760520574369,0.0343645948146516,0.07911991709067334,0.07911991709067334
365,3.65,-0.5484534776240666,1.3435853338220904,-1.3640388176918428,0.056414288654865925,0.08795910974927157,0.08795910974927157
366,3.66,-1.052361978335767,-0.7789556082169969,-1.7278997604995816,0.02641988072420565,0.0905548677285408,0.0905548677285408
367,3.67,-0.5213584545947614,-1.8825718599988943,-1.9999488185897736,-0.030459813017491306,0.08750178258964404,0.08750178258964404
368,3.68,-0.4450024192930529,-0.7118385804495067,-1.059185947661875,-0.0644668138787485,0.0905426257933876,0.0905426257933876
369,3.69,-0.8907469730368089,1.0057116910472084,-0.1504885016240558,-0.01808948390663347,0.08670553382061247,0.08670553382061247
370,3.7,-0.5923829027445127,0.672888429853072,-0.4746395854915654,0.05318234373007148,0.09564458517268794,0.09564458517268794
371,3.71,-0.17431754016314063,-0.6329534804973399,-0.6617966589853113,0.08399700692579393,0.09970802980108848,0.09970802980108848
372,3.72,-0.3640353246767333,-1.0594220220022832,-1.5936486519307178,0.052536312134894125,0.09895441709390304,0.09895441709390304
373,3.73,-0.7556850150555752,0.06363805624852745,-0.5682867423863482,0.011962643599662169,0.09368534544679964,0.09368534544679964
374,3.74,-0.031781004100133625,0.7403999055967886,-0.6362591291171655,-0.004833394605161228,0.08198762332442558,0.08198762332442558
375,3.75,0.30171854870368103,0.09294399213760639,0.19228927398145423,0.01993983260429821,0.07991003638346719,0.07991003638346719
376,3.76,-0.043464179347895454,-0.9035645764630302,0.8726974911285328,0.04645674260841176,0.07492042222822254,0.07492042222822254
377,3.77,-0.08929804808777798,-0.5681261097021003,0.4227709937414945,0.06534586436262536,0.070324987521226,0.070324987521226
378,3.78,0.35660901845267534,0.7083124343537787,0.43086800828522287,0.0776692245886257,0.07664798948925791,0.07664798948925791
379,3.79,0.5210195907067002,0.6920552887663695,-0.7047952952700471,0.06605425141644969,0.0682654172795416,0.0682654172795416
380,3.8,-0.4058053357058612,-0.5479474887794377,0.1771442752121436,0.038704380602182425,0.05440530323314242,0.05440530323314242
381,3.81,-0.29037009283739507,-1.2771496660504214,0.5670295943908443,0.009206950680795266,0.04119286282344865,0.04119286282344865
382,3.82,0.7788324025627458,-0.3967584865867415,0.6976457123118893,0.010051388737557409,0.044028334099223035,0.044028334099223035
383,3.83,0.6277534322204357,0.7753120924110615,0.5364624957270225,0.046674638144696745,0.045675362065917664,0.045675362065917664
384,3.84,-0.6034525880763517,0.3891856085309667,-0.6754762620855219,0.09251770732867942,0.04245992546687642,0.04245992546687642
385,3.85,-0.6136277956390341,-0.8483932401386648,-0.005895607396224634,0.08908725158133671,0.03189253090133827,0.03189253090133827
386,3.86,0.8365877846718096,-0.6150081420740818,-0.1275659728886661,0.03355449491020989,0.010110503974623064,0.010110503974623064
387,3.87,1.1741392367799575,1.076290625307387,1.1674149566495062,-0.00021184830811389718,0.001015312668665108,0.001015312668665108
388,3.88,0.3551854430335764,1.385002884210635,1.260331748176502,0.013919851671290551,-0.008234275377786723,-0.008234275377786723
389,3.89,-0.5882189730300307,0.12071264325885656,1.1114581184310834,0.04805090890919991,-0.014617412521406463,-0.014617412521406463
390,3.9,0.08418022454997004,-1.3291307580296627,0.1709140153710998,0.05184720542693035,-0.018492110159563997,-0.018492110159563997
391,3.91,1.0161237760709132,-0.9875804112837446,-0.3249357132698203,0.022726515342565173,-0.026239537497114288,-0.026239537497114288
392,3.92,0.662270269933122,0.4565556758087449,0.058522415174929954,-0.00916341964977624,-0.041075045423679964,-0.041075045423679964
393,3.93,-0.10400707322250546,1.1672197047283648,0.9123015440552955,-0.0026532187935404163,-0.056108241319128,-0.056108241319128
394,3.94,-0.04724437287282646,0.47172864126377856,1.18773856712148,0.02894642309333658,-0.0675488866821183,-0.0675488866821183
395,3.95,0.7910961053429049,-0.5445884643266,0.744055230606642,0.037977769795277935,-0.06408292238274367,-0.06408292238274367
396,3.96,0.7216670522412841,-0.6893837436037451,0.12377019800219469,0.013318055198830274,-0.0734124805247116,-0.0734124805247116
397,3.97,-0.17985918548203828,0.050039053971509984,-0.2400713465089614,-0.010914105416337076,-0.07924378650044547,-0.07924378650044547
398,3.98,-0.45737561543938615,0.7460040223483884,-0.2749286194815893,-0.004063249184252215,-0.08753258355464771,-0.08753258355464771
399,3.99,0.003989016513928939,0.6360875905407707,-0.07076131109742989,0.01657936312967391,-0.10184160797810067,-0.10184160797810067
400,4.0,0.26745154166798324,0.2331373836240594,0.00026781126178204717,0.03482585913895662,-0.10548441895633087,-0.10548441895633087
401,4.01,0.028292255784712714,-0.1818436486429653,0.361430843416378,0.03612263744284188,-0.10579837366554888,-0.10579837366554888
402,4.02,-0.25789379106922145,-0.10308596764704919,0.5443692126217713,0.01667779037495289,-0.11147292284385513,-0.11147292284385513
403,4.03,-0.25168185184168035,0.21689152885114807,-0.18252752282280152,0.011305307788894242,-0.1078186969933512,-0.1078186969933512
404,4.04,-0.24643497240673423,0.23733878558374832,-0.07649263225273367,0.029120396061247663,-0.1075913654938296,-0.1075913654938296
405,4.05,-0.07723415802842248,0.2085243200317598,-0.6111309329893904,0.05380847498400168,-0.1151018882179859,-0.1151018882179859
406,4.06,0.041968084072482675,0.46376766448867757,-0.0777433738087904,0.07124115822668105,-0.11078498373127282,-0.11078498373127282
407,4.07,-0.26914117011020283,0.36156266509822144,0.4199500133840119,0.06673285655743977,-0.10939096483418692,-0.10939096483418692
408,4.08,-0.056176906253334685,-0.23671773970281357,0.03932934365862312,0.04037539344943127,-0.1039263039934056,-0.1039263039934056
409,4.09,0.03175904901712706,-0.8380068915920672,-0.18011365624102132,0.010461616455658334,-0.0964556799128132,-0.0964556799128132
410,4.1,-0.17118995921551267,-1.0376881190969256,-0.5788284115769657,0.00361849622960254,-0.1004229441970078,-0.1004229441970078
411,4.11,0.16917223208745363,-0.34831675426755276,-0.6209401565141228,0.029765862909782705,-0.09819520626272588,-0.09819520626272588
412,4.12,0.4260942238144859,0.33750515505767253,0.1724891822443872,0.06291429741807471,-0.09711495470911546,-0.09711495470911546
413,4.13,0.24486156595394912,0.0077528262689210425,-0.1975743936974853,0.07649682729331758,-0.08701868265539882,-0.08701868265539882
414,4.14,-0.35840591677816563,-0.9579833943803094,-0.004014530480132894,0.04929720079775055,-0.07093266348317029,-0.07093266348317029
415,4.15,-0.41840179943341704,-1.2351511351565996,-0.8156743477703821,-0.0009567607864982736,-0.06928197202496217,-0.06928197202496217
416,4.16,-0.04895844170386701,-0.43743826543823,-0.8764176314545323,-0.03220246007907387,-0.06681710935445008,-0.06681710935445008
417,4.17,-0.02161983201778389,0.22238852612743593,-0.31723838252751485,-0.012445741639148356,-0.06420372922937345,-0.06420372922937345
418,4.18,-0.07005256037291577,0.10849294065077625,0.006501694261698832,0.030146157454889636,-0.057037718286195076,-0.057037718286195076
419,4.19,-0.0486740928936189,-0.4136318008595259,0.03707298975070483,0.04843322268510483,-0.03956856709866111,-0.03956856709866111
420,4.2,-0.003538542681887996,-0.41016001921322864,-0.40084832739793247,0.017718986919609717,-0.03397715014933557,-0.03397715014933557
421,4.21,-0.21442471031932844,-0.099664987392378,-0.7518729195338156,-0.02774946873023653,-0.026127825401957367,-0.026127825401957367
422,4.22,-0.5702574867804797,0.5986542800409582,-0.27091103535517036,-0.04605766744708145,-0.02080654012777495,-0.02080654012777495
423,4.23,-0.13464148231267897,0.651034121825459,-0.2489664315457437,-0.019060708993502568,-0.02440424857829636,-0.02440424857829636
424,4.24,0.24519857805044099,0.027810375122358844,-0.059239533506400294,0.014359221893426772,-0.011701936148260223,-0.011701936148260223
425,4.25,-0.07557897343018506,-0.2594587813088327,0.24934737149878383,0.019830400443430263,-0.009035429840564092,-0.009035429840564092
426,4.26,-0.4211496950551623,0.545238484572394,0.2752531928099917,-0.0074470588499514784,-0.003768602633994504,-0.003768602633994504
427,4.27,-0.12130834781306854,1.8969622057734323,0.6166879020407932,-0.01970389973514125,-0.0007894620257112,-0.0007894620257112
428,4.28,0.2703525017493075,1.998898970888189,0.21777898586427802,-0.0007484484479107741,0.0033153920929694268,0.0033153920929694268
429,4.29,0.03757366732093903,0.536917427198527,-0.005987097460902591,0.011542342808846504,0.01274632498103524,0.01274632498103524
430,4.3,-0.492914852509917,-0.9123267761438352,0.3122129488670284,-0.0052977784332241115,0.007468333591974598,0.007468333591974598
431,4.31,-0.36049596660060756,-0.3674650511600723,0.2784536558663497,-0.028708147917123217,0.006006478026792564,0.006006478026792564
432,4.32,0.3034278629995965,1.0049119975572942,0.4414790685079758,-0.016563213126498003,0.012263143663416996,0.012263143663416996
433,4.33,0.35754179207649767,0.9152375611210517,0.41068112013186103,0.017063391003248513,0.01591545087097607,0.01591545087097607
434,4.34,-0.22323417759101374,-0.7071929124696813,-0.28984944188350065,0.02962558638221162,0.024032893242239024,0.024032893242239024
435,4.35,-0.6508513421776754,-1.2943212664819703,-0.4476451925897821,0.0004261477989007095,0.02368168910741924,0.02368168910741924
436,4.36,-0.2974370372661872,0.21893420587178186,-1.1599051042089221,-0.03167670216908817,0.024559817687968114,0.024559817687968114
437,4.37,0.06950598029079802,1.3315910192483538,-0.6659157411302075,-0.012137141623209214,0.022863089445672398,0.022863089445672398
438,4.38,0.09511763340309201,0.03818718308346411,-0.22552312938694796,0.027710797048785096,0.02188688525095753,0.02188688525095753
439,4.39,-0.10595370066563245,-1.7536601259871298,0.2721800152710075,0.028946001597508705,0.024812715349266986,0.024812715349266986
440,4.4,-0.1212813056878912,-1.4021501072841898,0.36838302413362606,-0.010643237762797029,0.02565872864694976,0.02565872864694976
441,4.41,0.1865082296485232,0.2594496011952193,-0.256329411596007,-0.03209917387869267,0.02794373884275136,0.02794373884275136
442,4.42,0.2411747327419905,0.768085417656969,-0.3166722584881942,-0.008031984726002247,0.02925290237910937,0.02925290237910937
443,4.43,0.0057363234204212965,-0.502079504019625,-0.3119400813075268,0.02498181782518047,0.023102589023640683,0.023102589023640683
444,4.44,-0.0823588928411593,-1.4424410691980851,-0.11656960949886436,0.022926728599092026,0.02319577077246141,0.02319577077246141
445,4.45,0.14086210800965815,-0.753130479344112,0.5062694131444097,-0.004714188457861148,0.021045626380681456,0.021045626380681456
446,4.46,0.4227028167593881,0.23866330715727607,0.4524767313690851,-0.01752245581648186,0.015825432416687178,0.015825432416687178
447,4.47,0.36899836864757696,0.31900732591328057,0.5816298721795309,0.002023532878597161,0.01741007252225086,0.01741007252225086
448,4.48,0.39065701840605427,-0.2762706244619561,0.17262892044870168,0.0255168197624896,0.01318046191918453,0.01318046191918453
449,4.49,0.29440447652045254,-0.4388754464419768,0.1586419916030221,0.027875119272951814,0.00959319100609764,0.00959319100609764
450,4.5,0.16245184408056002,-0.07101501009819286,0.30367292984478345,0.015657198633280852,0.0029860292225206485,0.0029860292225206485
451,4.51,0.18140551444752342,0.22644178688714764,0.5530006464941603,-0.0007838799341746186,-2.456126908402197e-05,-2.456126908402197e-05
452,4.52,0.27273665799609115,0.3083646847797872,0.7089761960813554,-0.008505721292266663,-0.005375560578917049,-0.005375560578917049
453,4.53,0.48676208342383115,0.27013194734279883,0.2673549993686537,-0.004226327554520178,-0.010679068506767454,-0.010679068506767454
454,4.54,0.45343612031835373,0.27026664307235143,0.6132129669787127,0.006404192167642256,-0.01731332779429325,-0.01731332779429325
455,4.55,0.2726709271881187,-0.09637498652173074,0.5931807398772421,0.006856800376014484,-0.02369595903286368,-0.02369595903286368
456,4.56,0.014591884767572172,-0.490466266119148,0.9203673854116179,-0.009088984922514306,-0.02861858334406693,-0.02861858334406693
457,4.57,0.173503447728304,-0.31491438806200656,0.6357481554556338,-0.029612609213713205,-0.030779645563601174,-0.030779645563601174
458,4.58,0.3034315738300298,0.6124312906244322,0.30048431880842613,-0.029864927183527637,-0.03549238002075575,-0.03549238002075575
459,4.59,0.09919416891436866,1.0832911636543996,0.04078520066051128,-0.010159243601336406,-0.03941820039456883,-0.03941820039456883
460,4.6,-0.18463160357402222,0.41123783535676295,0.018779687343571938,0.007756665974709486,-0.04323231563366592,-0.04323231563366592
461,4.61,-0.05293148652392933,-0.4554421052761658,-0.38012171683912965,-0.003637498072329525,-0.043294061269239965,-0.043294061269239965
462,4.62,-0.15414885179345453,-0.2209447920906215,-0.1335598423594731,-0.029123111719348137,-0.04396907736420098,-0.04396907736420098
463,4.63,-0.3467038264075103,0.736809930021824,-0.30650972096933815,-0.04503412860794701,-0.05155561522435584,-0.05155561522435584
464,4.64,-0.21039957050704788,0.859275518063709,-0.0512983826776546,-0.021248587363937442,-0.050874197512241134,-0.050874197512241134
465,4.65,0.048410586149728846,0.1230892609505751,-0.19610768161184708,0.013046755678315248,-0.051175289995972935,-0.051175289995972935
466,4.66,0.04121855851300618,-0.5350440199093895,-0.43878341974038754,0.016567592183732032,-0.05005739812864479,-0.05005739812864479
467,4.67,-0.26061486055779115,-0.2803355585983519,-0.47824418521615847,-0.007698971023196245,-0.04784804092570074,-0.04784804092570074
468,4.68,-0.5036427772296612,0.495252786774316,-0.3946772428988424,-0.02151557268902686,-0.05193180492880889,-0.05193180492880889
469,4.69,-0.25775930530548097,0.9842539152732668,-0.5193006878236428,-0.004801739799100984,-0.04986211804909504,-0.04986211804909504
470,4.7,0.0398522609355213,0.4323554719825948,-0.3380693173485026,0.026493850181164375,-0.049478969440989014,-0.049478969440989014
471,4.71,-0.008303914736761148,-0.6112817125095318,-0.4582986967323607,0.027826574687565032,-0.048945100695535135,-0.048945100695535135
472,4.72,-0.27618905585307246,-0.7189025469930101,-0.29424367886890235,-0.0003613030440044714,-0.04509719686424046,-0.04509719686424046
473,4.73,-0.31338668267392855,0.03940439182873162,-0.5501548242533134,-0.02162777783345015,-0.041155479235849904,-0.041155479235849904
474,4.74,-0.35114253237815923,0.4107670854993263,-0.6240374434980536,-0.004128013352412562,-0.040416906854580034,-0.040416906854580034
475,4.75,0.05350343692053475,-0.29279653370768066,-0.6012825714920227,0.02002332800053488,-0.04083011366678547,-0.04083011366678547
476,4.76,-0.044842593276317094,-0.9270202634202378,-0.16603502381847596,0.022702662295477637,-0.04038957713483494,-0.04038957713483494
477,4.77,-0.2931413608755964,-0.9398640488332177,-0.12047661067948337,-0.00016757368526744334,-0.03606343466372122,-0.03606343466372122
478,4.78,-0.1358627136627273,-0.21260090583740215,-0.04314968552632242,-0.016720299586626828,-0.03503852460707453,-0.03503852460707453
479,4.79,0.012048346362110635,0.10707549578890951,-0.07449739213225559,-0.005584871981026075,-0.03460714116502808,-0.03460714116502808
480,4.8,-0.04372345068758912,-0.3245741785283872,-0.08108336921056367,0.014209290162384043,-0.034593703866131954,-0.034593703866131954
481,4.81,-0.08619759074863947,-0.6360903031696559,0.0824225645237443,0.025427274826710314,-0.03061232644194599,-0.03061232644194599
482,4.82,0.17538158162546505,-0.34280706779295933,-0.2105729042073371,0.014990494592181271,-0.02643733001053952,-0.02643733001053952
483,4.83,-0.07034520626767451,0.29644351198783087,-0.10624432408008093,0.006055332106575456,-0.022080152993514776,-0.022080152993514776
484,4.84,-0.5101464434031421,0.5155641550345542,-0.18100242082177243,0.010942363617353628,-0.0181551993293296,-0.0181551993293296
485,4.85,-0.385973842626844,0.09591578298600811,0.01877088423114523,0.020674516239911983,-0.02134723266248996,-0.02134723266248996
486,4.86,0.3227784689201469,-0.26478652891425725,-0.07538560850209683,0.0182126218169928,-0.01862727675179351,-0.01862727675179351
487,4.87,0.42508433326753825,-0.17407202580857536,0.22635828886635018,0.005888732686745111,-0.0209249692257704,-0.0209249692257704
488,4.88,-0.30674303301857847,0.2865161619563251,0.3929135588318057,0.003443700692637748,-0.018689031923657427,-0.018689031923657427
489,4.89,-0.3942924161843075,0.15976326212309136,0.19763120623722658,0.009534031764872452,-0.01230609872729717,-0.01230609872729717
490,4.9,0.23053838677339852,-0.36439209915068194,0.05469944135729635,0.014506069287405988,-0.011846624923472358,-0.011846624923472358
491,4.91,0.3801460536866652,-0.12786000392070263,-0.20909533561544624,0.014161985809681268,-0.012314589257882714,-0.012314589257882714
492,4.92,-0.23375295656562756,1.063861319100131,0.2961782463670327,0.022653657828947352,-0.010814850189610856,-0.010814850189610856
493,4.93,-0.39402888593017527,1.5855508284335755,0.6353334867912775,0.0387834323351299,-0.00926742129499863,-0.00926742129499863
494,4.94,0.34909928977320925,0.6072634815488551,0.11552205188243131,0.04121358894199635,-0.007615791522170883,-0.007615791522170883
495,4.95,0.5478336950127178,-0.826341887092204,0.08930586429695175,0.017307148160465118,-0.0013433834816416732,-0.0013433834816416732
496,4.96,-0.2036284350486704,-0.9076006566792669,0.17822862980959275,-0.02035974874319459,-0.008841929165372726,-0.008841929165372726
497,4.97,-0.3375323635910353,0.27851222588982655,0.3406600785958568,-0.019252771699363937,-0.00901034347549587,-0.00901034347549587
498,4.98,0.6635963005417567,1.0095721503471715,0.43061762936880976,0.024352486272677824,-0.0012661449098083713,-0.0012661449098083713
499,4.99,0.555559844363655,0.36080631794894524,0.1965744028294722,0.06509894201985238,0.0014428362588553645,0.0014428362588553645
500,5.0,-0.22961971177244533,-0.7918473531023998,-0.14301092736302504,0.05326452301164505,0.005657113241835059,0.005657113241835059
501,5.01,-0.561072243798383,-0.7822045011302468,0.12833881463810085,0.006482256664329011,0.00092299514606725,0.00092299514606725
502,5.02,0.26961878588620064,0.07501719338834623,-0.29467782307997314,-0.03452953219649739,-0.0008009016581983987,-0.0008009016581983987
503,5.03,0.7628260592015947,0.664664736768964,0.1265273783930137,-0.02501633020912857,0.004951230391035925,0.004951230391035925
504,5.04,0.17034951147100913,0.3359495545900216,0.4851772315027117,0.015540921516459432,0.0006038485869573687,0.0006038485869573687
505,5.05,-0.22068532910641692,-0.27713250549330803,0.35636221396074064,0.05048947839242552,0.0069511889833049545,0.0069511889833049545
506,5.06,0.1037705992850273,-0.4934077199637872,0.4249930614155365,0.03874938924213758,0.012703998399100285,0.012703998399100285
507,5.07,0.5121401949219528,-0.3665090206870826,-0.4443240559965279,0.000203215528997637,0.01141689087903352,0.01141689087903352
508,5.08,0.07309986505470092,0.05090200594415292,-0.13937579494912972,-0.03353839790241056,0.016184598751719112,0.016184598751719112
509,5.09,-0.10763228280577519,0.5415520395182419,0.062057395064480825,-0.03033699272934353,0.011824008199484764,0.011824008199484764
510,5.1,0.016080758205239104,0.6387372977270366,0.2695588614385366,0.00793680541309072,0.014317356064651713,0.014317356064651713
511,5.11,0.32996507199355846,-0.18113600270045283,0.19960127443361916,0.036268624871882,0.02158207850569764,0.02158207850569764
512,5.12,0.2276111328827505,-1.0971283645220584,0.1570828552836111,0.01789109802071546,0.01903220729219552,0.01903220729219552
513,5.13,0.15233420349345522,-0.8922741469796588,-0.07971980271705273,-0.024921736172520886,0.01860684312775847,0.01860684312775847
514,5.14,0.029448539035421203,0.18894298815516475,0.1652000957854876,-0.04372468238209591,0.018009510508034874,0.018009510508034874
515,5.15,-0.19134735137380032,0.9630855381226457,-0.047111072472899765,-0.016565879992680978,0.01947932578326869,0.01947932578326869
516,5.16,-0.039227107930739094,0.5360025853257242,-0.065911527929561,0.02513911091624077,0.021115555811825074,0.021115555811825074
517,5.17,0.36455210208919164,-0.4789607324477915,-0.08262698887397607,0.037290163527344766,0.020470780284873168,0.020470780284873168
518,5.18,0.13821666081375084,-0.8737430731134167,0.08036674261380625,0.004365230459596159,0.016645892005246483,0.016645892005246483
519,5.19,-0.1445380807242838,-0.042404010950117005,0.07439937994324569,-0.03329480413838152,0.01716145735046504,0.01716145735046504
520,5.2,-0.21460799403671812,0.8435410812970006,0.12792498429039176,-0.03109424453218409,0.017586688087484956,0.017586688087484956
521,5.21,-0.00705361642625181,0.6560424707273145,-0.1599289295353653,0.0007571116893565003,0.01364219281822443,0.01364219281822443
522,5.22,-0.02578184145897512,-0.3454005935807376,-0.13327855913684095,0.032863580852206586,0.01488115927396016,0.01488115927396016
523,5.23,-0.08035629687540566,-0.6932005757238404,-0.1756798863770177,0.0314484571977627,0.011599603414977469,0.011599603414977469
524,5.24,0.040435348405709226,-0.10013229044814592,-0.29288134146820616,0.003213874636814129,0.00918303082474403,0.00918303082474403
525,5.25,-0.1431707224548347,0.3293635046900687,-0.16735780915683315,-0.021770870275201887,0.008661867229729758,0.008661867229729758
526,5.26,-0.4913250165878452,0.10061712168796233,-0.029931306865877222,-0.021355693564510253,0.005039661595787021,0.005039661595787021
527,5.27,-0.35382616808587103,-0.37408246463779626,-0.2718377799967444,-0.006348229015435285,0.004696331644092158,0.004696331644092158
528,5.28,0.02783217556298373,-0.4107459054857009,-0.41792950061683465,0.007449935448709823,-0.00023486945603907406,-0.00023486945603907406
529,5.29,-0.15961224298707619,-0.35099365720320264,-0.07763811960654488,0.008999388489832292,-0.006718738270405775,-0.006718738270405775
530,5.3,-0.2911625516225438,-0.18181659341071366,0.1531139937447305,-0.001149653045480956,-0.010942511820133274,-0.010942511820133274
531,5.31,-0.16870125527587537,-0.0935044687881938,0.30056789442078324,-0.013268567394949356,-0.01107628367902215,-0.01107628367902215
532,5.32,0.1059769312311099,-0.12707798716528232,-0.33570230341815877,-0.015734623131011087,-0.010768569157753136,-0.010768569157753136
533,5.33,-0.34342658820996985,-0.14205224972204933,-0.4384420735455633,-0.00723495425211977,-0.014248018687512144,-0.014248018687512144
534,5.34,-0.8151766085760176,0.05525546247291957,-0.4426303543992044,0.0052431491067414255,-0.0212312055823966,-0.0212312055823966
535,5.35,-0.22186846845399555,0.4152901683481761,-0.3071352853925139,0.016320056156948044,-0.0259394598422282,-0.0259394598422282
536,5.36,0.5921398582604065,0.5765561592523742,0.008567989552659083,0.016492273598009092,-0.029588142534558482,-0.029588142534558482
537,5.37,0.2610438980819952,0.2605783791181153,0.02107199992927783,-0.001173614650197623,-0.028666728419113673,-0.028666728419113673
538,5.38,-0.7964342439141038,-0.1084404711883801,0.06615039144152399,-0.020593973394151158,-0.026390745567657168,-0.026390745567657168
539,5.39,-0.6206624289376337,-0.30627986604501656,-0.13919177593275678,-0.02876960246295276,-0.03087494253260724,-0.03087494253260724
540,5.4,0.548701801889389,-0.13148117235745438,-0.681947278001453,-0.016677308596260945,-0.0304957300368363,-0.0304957300368363
541,5.41,0.4855085130796409,0.206145017178132,-0.36326951430945575,0.006791987780047238,-0.028130787807462462,-0.028130787807462462
542,5.42,-0.5055633454184244,0.6465373787828363,-0.07093613576978722,0.023625017239119687,-0.029024216631251338,-0.029024216631251338
543,5.43,-0.42330103060057783,0.8970432830326246,0.04128419644410354,0.020425908119794577,-0.028051828332835312,-0.028051828332835312
544,5.44,0.5254882013045385,0.6245034485721797,-0.19768637213520523,0.004095438027297136,-0.028353749628360063,-0.028353749628360063
545,5.45,0.5128757188714956,-0.10368978582083632,-0.20063821706037954,-0.016618157602182573,-0.028221116121827487,-0.028221116121827487
546,5.46,-0.2577988739280868,-0.5749954395918062,0.33762137366042577,-0.036166256767311715,-0.0278534984907871,-0.0278534984907871
547,5.47,-0.04747522157678388,-0.5745211445619481,0.313207520391688,-0.03228895307385216,-0.03137176718474133,-0.03137176718474133
548,5.48,0.5995840642596633,-0.13178377015410642,0.303508374002817,-0.009610093568993457,-0.026155815448478947,-0.026155815448478947
549,5.49,0.19079060181260937,0.5292510166968274,0.2006694663590568,0.01864109445477453,-0.0272931746944383,-0.0272931746944383
550,5.5,-0.30395352785208735,0.6917128163732372,0.160855951120786,0.03362146505065573,-0.023751239828174397,-0.023751239828174397
551,5.51,0.16978260832135178,-0.02493995234628371,0.4916692170980128,0.009682558684976686,-0.02242186072422895,-0.02242186072422895
552,5.52,0.6182052043616557,-0.830316023014529,0.3659168461361084,-0.03212232232052645,-0.028175242365981214,-0.028175242365981214
553,5.53,0.5034394242732031,-0.542683622298228,0.4078822646544565,-0.054771556185906685,-0.022913292206154838,-0.022913292206154838
554,5.54,-0.03809312144004959,0.3377813042295712,0.42364400037681826,-0.02882580389689818,-0.02091292267487873,-0.02091292267487873
555,5.55,-0.2515437004550116,0.4357438414926385,0.12463677107721352,0.02042270892517975,-0.0196020024266368,-0.0196020024266368
556,5.56,0.2656446847798421,-0.47173604235895167,0.1551789852819959,0.04564330134262394,-0.02261148312284853,-0.02261148312284853
557,5.57,0.4166823636935283,-0.7147532591540151,0.41485916743701995,0.017856692402773062,-0.02460943837465935,-0.02460943837465935
558,5.58,-0.09474685356376672,0.22409736971322064,0.3375707994260718,-0.022449208921623668,-0.02285301851805151,-0.02285301851805151
559,5.59,-0.28778579892747536,1.1414869329623625,0.34156171394781476,-0.025744532407632074,-0.020625371051340925,-0.020625371051340925
560,5.6,0.3205903852297264,0.6773728044938581,-0.16849996921502605,0.010177476575568318,-0.022716438041401853,-0.022716438041401853
561,5.61,0.5285795013594067,-0.32227034110828423,-0.14146265770382727,0.045845564128618635,-0.019516488660092757,-0.019516488660092757
562,5.62,0.13438030388822955,-0.8939397448444795,0.1579035818395926,0.044885809862234435,-0.020372368749494784,-0.020372368749494784
563,5.63,-0.15426849113474211,-0.34150058092293023,0.11579645860994847,0.014670571543091437,-0.021267636391502108,-0.021267636391502108
564,5.64,-0.21991961444624392,0.5763055803443486,0.07965881804976575,-0.009370147524285477,-0.01764645338197414,-0.01764645338197414
565,5.65,0.13033018562570137,0.3933771677302902,-0.36655180013642363,-0.0031461469563315234,-0.01363594608995186,-0.01363594608995186
566,5.66,0.13286289662333642,-0.6380261668412193,-0.3273567344774859,0.007515070148399956,-0.012653074768035236,-0.012653074768035236
567,5.67,-0.24831833208307325,-1.2100667838642551,-0.21424118767574576,0.00620470340490811,-0.015015998122992943,-0.015015998122992943
568,5.68,-0.3631051467981113,-0.4925333321048505,-0.017055974411819552,-0.01183606677219534,-0.014378751475579304,-0.014378751475579304
569,5.69,-0.14657899427526802,0.31244117093217005,0.20877672565333696,-0.021563961839823183,-0.014370308634000016,-0.014370308634000016
570,5.7,0.024211797609239527,-0.015880742000418502,-0.019494585644778836,-0.0173599462258399,-0.016396836387815094,-0.016396836387815094
571,5.71,0.060614905568568384,-0.9739404166392538,-0.19746418066542082,-0.020712088958918483,-0.010401176860737335,-0.010401176860737335
572,5.72,-0.13261883024720214,-1.206940228990972,-0.40972485900205885,-0.0323522980444434,-0.008861665310588756,-0.008861665310588756
573,5.73,-0.15131835622937417,-0.3403091556640383,-0.2256826867185589,-0.037387478780381324,-0.00817273384382779,-0.00817273384382779
574,5.74,-0.03599802997009277,0.9516552952137818,0.08224007289503624,-0.013637928038334394,-0.008423007647095703,-0.008423007647095703
575,5.75,-0.25472042602084527,1.50045019736795,0.24180805285248366,0.02917385206429188,-0.003655601538691844,-0.003655601538691844
576,5.76,-0.40978076955406095,0.872055132354253,-0.11057259447544629,0.04847976622611813,-0.0003692906951633772,-0.0003692906951633772
577,5.77,-0.16153369135502096,0.07669083831502752,-0.4611705224343977,0.01903434000149455,0.002520208253925147,0.002520208253925147
578,5.78,-0.08018269081223697,0.1793364430660621,-0.3804526244759425,-0.022574004488740744,-0.0016893821309502473,-0.0016893821309502473
579,5.79,-0.14398264763867832,0.6229337259926944,-0.09951787567174614,-0.03444948187540983,-0.0007567725814315911,-0.0007567725814315911
580,5.8,0.0924561540744118,0.3917811270239624,0.30591827858094806,-0.007215450288633395,0.003606088094199272,0.003606088094199272
581,5.81,-0.09164990066276574,-0.540394825932498,0.12375173552194269,0.024035747906622763,0.0106525447536875,0.0106525447536875
582,5.82,-0.310597427738384,-0.8984337600746448,-0.23100620872354646,0.028683712647908144,0.02098174985139142,0.02098174985139142
583,5.83,0.2074641847168592,-0.3857640076958384,-0.6270400633360185,0.011874354797837805,0.021085629406254074,0.021085629406254074
584,5.84,0.41914868433993113,0.504375017349884,-0.7387992798161933,0.01281941012393984,0.02038519664485058,0.02038519664485058
585,5.85,-0.11610739326227516,1.3306588964950623,-0.31023832936873774,0.04419598322843468,0.0254644323760708,0.0254644323760708
586,5.86,-0.5308740575086017,1.7717659806370314,0.30264391833970017,0.07798866527652401,0.03088408609575212,0.03088408609575212
587,5.87,-0.40559288302120117,0.8271023212419635,0.299784112263566,0.0820359057979898,0.033421593231708194,0.033421593231708194
588,5.88,-0.21464948772043807,-0.858839095520482,0.03502343005559601,0.0448388941014456,0.03354206727634165,0.03354206727634165
589,5.89,-0.02839381722876355,-1.4371892024168942,-0.2904578212395439,-0.0026319027359971584,0.025786481956556053,0.025786481956556053
590,5.9,0.7238609239814939,-0.6889208262079115,-0.26207082229360495,-0.022432700258296814,0.015843471112470975,0.015843471112470975
591,5.91,1.667105327758543,0.18479631419741815,0.39407865247171553,0.004700619983579143,0.008218482919518547,0.008218482919518547
592,5.92,1.212358890244717,0.14582806767660272,1.2575483742569258,0.0482889593941125,0.0118805685597788,0.0118805685597788
593,5.93,-0.9457258094255923,-0.6778442595911812,1.23270479930735,0.054057213895761284,0.028446978330583537,0.028446978330583537
594,5.94,-1.7865727469817463,-1.7494868083869726,0.22148671215271543,0.011820433748333468,0.03674716008501586,0.03674716008501586
595,5.95,-0.26703937991278687,-1.5204984120162603,-0.9252497485611426,-0.040039401776013166,0.023115751363524686,0.023115751363524686
596,5.96,1.4765098466051594,-0.5264147367979553,-1.6235946249858637,-0.0603696672520187,0.010694786446359641,0.010694786446359641
597,5.97,0.9646699039295981,0.41208425688253486,0.181573930848616,-0.038008247237206035,-0.001819271570582784,-0.001819271570582784
598,5.98,-0.6545759167168061,0.6969921575866865,1.260278155781182,0.003507163827996257,-0.009241895137255112,-0.009241895137255112
599,5.99,-0.7104773579045893,0.5364716121290176,1.3732938757834898,0.0320319614263186,-0.0017889560833515754,-0.0017889560833515754
600,6.0,0.14625667669286696,0.1479736947357238,0.49971384413949205,0.004594417405299835,0.0011690823788715167,0.0011690823788715167
601,6.01,0.2536762202979124,-0.1005178457070387,-1.104440291258908,-0.04204102140193761,-0.0008272402599465067,-0.0008272402599465067
602,6.02,-0.24604353997118006,0.2863840436627208,-0.7839908671745079,-0.08434173718888023,-0.012064225589326388,-0.012064225589326388
603,6.03,0.017911810590123672,0.7622413303421534,-0.1005887361347999,-0.07612882510550789,-0.035489517082989495,-0.035489517082989495
604,6.04,0.5038198515902598,0.8302241009674945,0.784188938758829,-0.04046787175302515,-0.03799202781180853,-0.03799202781180853
605,6.05,-0.10469474659277937,0.07683833112044158,1.5620044474836299,-0.0012627311986858568,-0.032320853351704565,-0.032320853351704565
606,6.06,-0.6948677575181389,-0.3898973273319125,0.0606350291532024,0.000490949632365339,-0.029371839215003488,-0.029371839215003488
607,6.07,-0.08674813674618795,0.1992709204465711,-1.1607661589834892,-0.029222304193712075,-0.027013082697276484,-0.027013082697276484
608,6.08,0.4521581931978531,1.0073003510021756,-1.9882059358333795,-0.055904946607387325,-0.04182425440354298,-0.04182425440354298
609,6.09,-0.5672274758451794,1.422835009588817,-0.6962462513855752,-0.05789268847338984,-0.06027128913607626,-0.06027128913607626
610,6.1,-0.7569256154812161,1.341222302307302,0.7026193149279427,-0.023301991784228957,-0.06926037499923966,-0.06926037499923966
611,6.11,0.36480495483431863,0.6977043833238734,1.4135277708441638,0.02023682932826741,-0.06679495680039693,-0.06679495680039693
612,6.12,0.7679851215875304,-0.3886120432837781,1.51968963735635,0.018123745896312028,-0.06657581129848845,-0.06657581129848845
613,6.13,0.32945952986505866,-1.640300011947276,0.45381378355581714,-0.0293638522979448,-0.06242735962912989,-0.06242735962912989
614,6.14,0.22404110585735837,-1.4758909028703675,-1.1913490054750748,-0.07475480623838875,-0.04538660340876216,-0.04538660340876216
615,6.15,-0.02331224005498328,0.5642860305750642,-2.8533585178835956,-0.05880559655525708,-0.040403838763749776,-0.040403838763749776
616,6.16,-1.3415053086622253,2.2392358449487073,-2.6620644200852186,0.01064599599963364,-0.04512300526524509,-0.04512300526524509
617,6.17,-2.2605795382281415,1.047706447465074,0.185383184566416,0.07718108184655653,-0.0623409765137623,-0.0623409765137623
618,6.18,0.1234045691141743,-2.3879740260501956,1.0754379018280302,0.06336216613556704,-0.07763363384889926,-0.07763363384889926
619,6.19,3.0166229475714026,-4.167766619052786,1.3202772006282826,-0.03261969502659162,-0.06355061374304126,-0.06355061374304126
620,6.2,1.8930258595467284,-2.007217921414749,1.6753061741583863,-0.11352922831300165,-0.05142592502867927,-0.05142592502867927
621,6.21,-1.9251487496159028,1.4782793400307392,0.3890744629703656,-0.07893450428542936,-0.03755390881713089,-0.03755390881713089
622,6.22,-2.099536042222679,2.052125217629965,-0.47185032666501825,0.005950232392735413,-0.03873114849671347,-0.03873114849671347
623,6.23,1.194844256754245,-0.4872391346311088,-0.7523791756767011,0.0791577120346243,-0.04532046443658056,-0.04532046443658056
624,6.24,2.1743900403341634,-2.9288592801081434,0.05439805987255192,0.05336826702319938,-0.04132301366074696,-0.04132301366074696
625,6.25,-0.5397093857829958,-1.9548228050881917,1.2163942075837215,-0.024851104350260243,-0.04525080984926657,-0.04525080984926657
626,6.26,-1.779012032397839,1.2764593533789605,1.3508517405665907,-0.08614896947794608,-0.037128561768568415,-0.037128561768568415
627,6.27,0.6439959237895253,2.5472481998166647,-0.25122440747204045,-0.04450705119229862,-0.02369223841412464,-0.02369223841412464
628,6.28,2.2221535063689126,0.6356926451725031,-1.5971310775444767,0.024035833991223873,-0.01536493663829854,-0.01536493663829854
629,6.29,0.15204754531881892,-1.5807403442787753,-0.7969347535946161,0.04058069352838345,-0.016831505557664998,-0.016831505557664998
630,6.3,-1.6848690189059603,-1.6750866592277793,0.8358228291209842,-0.00921649936400211,-0.02808005510875098,-0.02808005510875098
631,6.31,-0.4549524549717605,0.42917054238987873,1.2859645115765885,-0.0567245731148875,-0.01962375290718185,-0.01962375290718185
632,6.32,1.4254586486128624,2.2299645382235025,-0.12808568565159545,-0.04703058336887537,-0.00037135509755016616,-0.00037135509755016616
633,6.33,0.4805330627859973,1.9639673087796945,-0.9887186593425309,0.010467413657635444,0.010055009156355526,0.010055009156355526
634,6.34,-1.0210636585263562,0.1798463788038252,-0.9319923555331715,0.04526949873670976,0.007057672995990628,0.007057672995990628
635,6.35,-0.299541178195362,-0.943350902346036,-0.19086840103948643,0.013721637849375943,-0.00010111733316107813,-0.00010111733316107813
636,6.36,0.885707112154081,-0.23879084707807463,0.5841997807539213,-0.050329594449442835,0.006873389830958062,0.006873389830958062
637,6.37,0.11496193592034071,1.0516098872943753,0.6626069787424816,-0.07391493547953998,0.014189586950638784,0.014189586950638784
638,6.38,-1.1748192608309689,1.3243660150115655,0.2447959216741601,-0.03571626148967695,0.023942161485571867,0.023942161485571867
639,6.39,-0.7825205325018396,0.35273701540625657,-0.2975168307865033,0.01488322263072397,0.025995235307867917,0.025995235307867917
640,6.4,0.5617265457563657,-0.6803420454570697,-0.6223365231982533,0.02300646981099444,0.01974550176599376,0.01974550176599376
641,6.41,0.6759633792785935,-0.35423263095021207,0.16518777301427662,-0.010130123970096648,0.023285316170517045,0.023285316170517045
642,6.42,-0.34612454433589734,0.9952341332041277,0.9300508630944468,-0.03810911380538815,0.01965221663397786,0.01965221663397786
643,6.43,-0.7163717882889116,1.392210229783485,0.7569936448746857,-0.034689064714636605,0.025400520560162336,0.025400520560162336
644,6.44,-0.1273763509433045,0.1329769485869839,-0.47756710547905146,-0.008761562311336516,0.03683600781484963,0.03683600781484963
645,6.45,-0.03309967292820129,-1.190317976686825,-1.046656970644492,0.0030481144248521034,0.03399985990661119,0.03399985990661119
646,6.46,-0.20461384997062268,-0.9510030997628142,-1.0549104723356677,-0.00517857757503257,0.02612902638792341,0.02612902638792341
647,6.47,-0.1593131879600817,0.0871769889443767,0.4666651029114989,-0.0133323325411843,0.015008492091415953,0.015008492091415953
648,6.48,0.22223584190944803,0.34112692371162556,1.0846586180690556,-0.0027456625914827853,0.009166078330592478,0.009166078330592478
649,6.49,0.19369676827231253,-0.1713183063451813,0.7088704196314677,0.007908372716348823,0.02022970911394641,0.02022970911394641
650,6.5,-0.07947711587101058,-0.28218091639820175,-0.34355253153819476,0.013059176359759705,0.029413892215394363,0.029413892215394363
651,6.51,-0.47598374628151535,0.03972438117395438,-1.322784651940501,0.013391480529395991,0.025169764244496903,0.025169764244496903
652,6.52,-0.5412452267484943,-0.05176496877379397,-1.1912946214746434,0.011477035820973557,0.014577715669017171,0.014577715669017171
653,6.53,-0.25130142703902764,-0.6569981500828566,-0.23953496411794978,0.003737574102107376,0.003421481739120871,0.003421481739120871
654,6.54,0.10909172739034814,-0.5769296638787398,0.5114576101797557,-0.00308629243873832,-0.0012985528435440151,-0.0012985528435440151
655,6.55,0.6744019026221598,-0.1213285075772873,0.6178929662574278,0.0008724201408018487,0.0021668104283359326,0.0021668104283359326
656,6.56,0.18470209920997355,-0.18588751362536235,0.022829060022209913,0.008116259973953523,0.006110605099869659,0.006110605099869659
657,6.57,-0.5382347521061444,-0.6648046847871305,-0.5379838888737124,0.014596466411972056,0.0060208095845510025,0.0060208095845510025
658,6.58,-0.2262785300198419,-0.7990500875313602,-0.8536415297001274,0.0036811227998647883,-0.0011035291417711846,-0.0011035291417711846
659,6.59,0.4047754110843203,0.24559917109010282,-0.38850609074525866,-0.00403580302112457,-0.01038184972567733,-0.01038184972567733
660,6.6,0.369158264211908,0.8230732553874031,0.22105342837828718,0.007752198144266377,-0.01382086252969429,-0.01382086252969429
661,6.61,-0.33309415047671287,0.28755935685250733,0.746184341136032,0.01819901697585134,-0.014428376328166369,-0.014428376328166369
662,6.62,-0.37084278050451763,-0.8069467989534657,0.26858892952014773,0.000905978141318188,-0.015041068598479371,-0.015041068598479371
663,6.63,0.5233774147502415,-0.946825180319857,-0.21952936528787254,-0.030969487865151312,-0.017928581714153645,-0.017928581714153645
664,6.64,0.877288124576203,-0.318928566335063,-0.1640788902542155,-0.04013364179493981,-0.02401707092755561,-0.02401707092755561
665,6.65,0.09413156438353404,0.21093677200233285,0.47771239550426714,-0.019376817902966657,-0.03037600267187666,-0.03037600267187666
666,6.66,-0.3151905131890305,0.2402748814374338,1.0310087813188475,0.011730241229030436,-0.02985549111519278,-0.02985549111519278
667,6.67,0.12423942482145761,0.3940237732191577,0.7511000544566835,0.025037997905185468,-0.027174277117046525,-0.027174277117046525
668,6.68,0.6096236094000099,0.4562773726006475,-0.20600701957164236,0.010241793214855036,-0.02292076109052002,-0.02292076109052002
669,6.69,0.3159350252943353,0.12942197642204517,-0.41371981371871946,-0.023514882829843518,-0.023687917801938168,-0.023687917801938168
670,6.7,-0.1971522100631326,-0.24814024227041562,-0.1892798985700941,-0.05157183044974105,-0.03106549620209116,-0.03106549620209116
671,6.71,-0.08146406020179411,-0.08994252739377062,0.3413597074866552,-0.05137388761297144,-0.032731944881279666,-0.032731944881279666
672,6.72,0.2893249976073169,0.6659307995844346,0.670839528756828,-0.02267864234534284,-0.03248679433346744,-0.03248679433346744
673,6.73,0.4234457777429562,0.8309800553404951,0.23667497892194123,0.016448034491712532,-0.028604160470359775,-0.028604160470359775
674,6.74,0.07028625608294259,0.09511970297163724,0.22805299413529972,0.01926419885369212,-0.0274211307674792,-0.0274211307674792
675,6.75,0.06829288886464938,-0.3946988513919736,-0.0152365108330286,-0.02140208160772161,-0.03204012202023816,-0.03204012202023816
676,6.76,0.42173185847939937,0.567700598691693,0.17289844804467036,-0.062104114296566114,-0.03019176421451488,-0.03019176421451488
677,6.77,0.30740770894675784,1.6948938255627748,0.5299987425947704,-0.053307535347648385,-0.025292920904865103,-0.025292920904865103
678,6.78,-0.46840141578735495,0.7551882238416754,0.3062204739090144,-0.01851669738186117,-0.02001199514037406,-0.02001199514037406
679,6.79,-0.2592850703889528,-1.5123550060710442,-0.2963205820445437,-0.010694372562444276,-0.011390299089929263,-0.011390299089929263
680,6.8,0.2814793834676765,-1.7551947961767662,-0.7511490532331335,-0.052030525319298304,-0.009510800884088812,-0.009510800884088812
681,6.81,-0.21958919339836397,0.26251328527611245,-0.4888802542226897,-0.08309035651357759,-0.014217436828012044,-0.014217436828012044
682,6.82,-0.6907261254421819,1.4697627416222547,0.5821946427744564,-0.06347488036294043,-0.013053427505615514,-0.013053427505615514
683,6.83,-0.11881375844568269,0.22213832131176242,0.6520501263672336,-0.015064084485737478,-0.01337007103255397,-0.01337007103255397
684,6.84,0.5920087689852472,-1.5201467087020777,0.08981182497791373,-0.011836254070122478,-0.0026237849477053782,-0.0026237849477053782
685,6.85,2.413563215095116e-05,-1.1310068850004156,-0.41937181169787785,-0.04460287096745071,0.0011034347432338166,0.0011034347432338166
686,6.86,-0.813389198090082,0.4620957336443975,-0.6669828124895071,-0.062396509888078974,-0.003950605767373629,-0.003950605767373629
687,6.87,-0.5823235441426745,1.1931828922212393,-0.17708861845288373,-0.029140693804719627,-0.0058021976067555575,-0.0058021976067555575
688,6.88,0.4475741214544927,0.4046804901237803,-0.2216736559002293,0.015825032111531308,-0.009633551439973688,-0.009633551439973688
689,6.89,0.9741868945779045,-0.2013079458927186,-0.20389427887250305,0.04390128968056285,-0.0028863106787269284,-0.0028863106787269284
690,6.9,-0.09516348792977847,0.34953044251467974,0.1345183904583797,0.03032670156895225,-0.005431605484288469,-0.005431605484288469
691,6.91,-0.870516859199687,1.047260504481067,-0.03356845709620232,0.006769863783309084,-0.003525272940644525,-0.003525272940644525
692,6.92,-0.38868396473773903,0.622661313101237,-0.0992329668496158,-0.0054249484195065464,-0.0004570790584578213,-0.0004570790584578213
693,6.93,0.36516470284730684,-0.5306640853744313,-0.7110257347480419,0.0009419861886267137,-0.0009393173528228463,-0.0009393173528228463
694,6.94,-0.10910689487959224,-1.22069506297403,-0.4862788359846189,-0.0008756944311380566,0.0004845677886431581,0.0004845677886431581
695,6.95,-0.7386543992315537,-1.2456652401583912,-0.05966116492700149,-0.0052094234640789215,-0.006575098360917001,-0.006575098360917001
696,6.96,-0.35672186755337887,-0.6929260643043446,-0.03662606152769235,-0.0058160536331195115,-0.0035687621025757453,-0.0035687621025757453
697,6.97,0.08279119807896487,-0.0425491169319166,0.06262872270718875,0.0060279938587981035,0.0027976842334496268,0.0027976842334496268
698,6.98,-0.2632557107137824,0.13831501784766728,-0.5789193342896146,0.015190099247929297,0.003556908533088382,0.003556908533088382
699,6.99,-0.5895027903855588,-0.4568242255209042,-0.5425850699976322,0.008730371054972805,0.0028687248731915525,0.0028687248731915525
700,7.0,-0.41416596212943546,-0.9590069784275963,-0.475991215512784,-0.024112561736981345,-0.000259526237981492,-0.000259526237981492
701,7.01,-0.19288761002898727,-0.5346726733254866,-0.5238251659679936,-0.051721188063542915,0.0019782465195297932,0.0019782465195297932
702,7.02,-0.3199897741620805,0.319456832428961,0.30083406987582784,-0.03482089339807625,0.0012812300071322095,0.0012812300071322095
703,7.03,-0.1686425339490795,0.20188679877471333,0.4327435105018487,0.01128116369048607,-0.006466808567454002,-0.006466808567454002
704,7.04,0.666219218327089,-0.6309205065155705,0.3544012304010887,0.02661680235648817,-0.005188419035866375,-0.005188419035866375
705,7.05,0.9544806341343535,-0.5549466213030156,0.041560310385934274,-0.005340121027829306,-0.005474574414079622,-0.005474574414079622
706,7.06,-0.01784756114746136,0.9742207700119692,0.059701072192680366,-0.026261671349581538,-0.005515025365668275,-0.005515025365668275
707,7.07,-0.6806146354819953,1.873854046744561,0.25831324199439504,-0.005343974702691864,-0.005932293037646328,-0.005932293037646328
708,7.08,0.28136547180202415,0.7677422964230338,0.24390876062310018,0.02598193906823379,-0.007288207512556074,-0.007288207512556074
709,7.09,1.1734394608659247,-0.9570453981927309,0.10324495510435747,0.025668038254715458,-0.005578949506582671,-0.005578949506582671
710,7.1,0.26656149934308127,-0.7402565198404387,0.162469755530524,-0.004851045868321595,-0.00184329632508208,-0.00184329632508208
711,7.11,-0.6694369845465598,1.2049535083520908,0.28922805848881916,-0.014622866078322519,-0.0018724648110270226,-0.0018724648110270226
712,7.12,-0.047328747538603194,2.265103120463892,0.09527609599517126,0.026738258616840583,-0.00016633169805069237,-0.00016633169805069237
713,7.13,1.0936280232106352,0.9471364028623702,-0.6631954799174676,0.0607468437888677,0.0071718075009347656,0.0071718075009347656
714,7.14,0.6091153145926127,-0.6170421285440659,-0.9553875121986686,0.0317111952881445,0.017633125288760904,0.017633125288760904
715,7.15,-1.1203843766426078,0.0036779458524324737,-0.34351864184623804,-0.012062819399295762,0.010981599900406869,0.010981599900406869
716,7.16,-1.18270573453937,1.3633631585858197,0.4312896255227381,-0.01808925225884922,0.0017768012249386113,0.0017768012249386113
717,7.17,0.7147960668897002,0.72777940414918,0.6317397456728941,0.01139963251908122,0.002166756880655592,0.002166756880655592
718,7.18,1.6459372582830691,-1.552714355325331,0.7836290078766974,0.024536689115234836,0.008850137036719805,0.008850137036719805
719,7.19,0.3614370698648162,-2.2638853531658416,0.893340401690603,0.0027414119229579787,0.00805976638747312,0.00805976638747312
720,7.2,-0.6700348173545415,-0.34700471657967197,0.69644884353822,-0.02361032928898608,0.008399866540447446,0.008399866540447446
721,7.21,0.08738778071774919,1.5842438758014323,0.3985017178791421,-0.00759089133541957,0.010000308795866265,0.010000308795866265
722,7.22,0.7740929669372599,0.7535551321689082,0.14074631399697327,0.033549112107988506,0.010436702964048273,0.010436702964048273
723,7.23,0.27941113241492177,-1.4975126414247755,0.38526190788096626,0.018132427788641256,0.005564041666179138,0.005564041666179138
724,7.24,-0.08082977719676737,-2.2001871392158856,0.6376285933953851,-0.04237838621666734,0.001154566292139168,0.001154566292139168
725,7.25,0.34075012487298195,-0.7077280880578461,0.8448193742254406,-0.07484412504976015,-0.004229647960547225,-0.004229647960547225
726,7.26,0.31048318084881815,0.7463508626438933,0.48003754012781064,-0.043815021057752514,-0.0008352817932108505,-0.0008352817932108505
727,7.27,0.09710102617280975,0.2809353767961614,-0.05450800976604653,0.008933118581990744,0.0077859198243055705,0.0077859198243055705
728,7.28,-0.0268785304296605,-0.9553011537649216,-0.23721135715073072,0.0297981338807896,0.005133623182661829,0.005133623182661829
729,7.29,-0.036865150026995544,-0.8890793266723465,-0.7358014118072295,-0.01341104945326344,0.0017841630220165074,0.0017841630220165074
730,7.3,-0.2693971473068286,0.45198528395662896,-0.2977059825095604,-0.06500024946796082,0.0006104914789982331,0.0006104914789982331
731,7.31,-0.5125709016202655,1.3162674314476037,-0.19947196323141175,-0.07081132705161261,0.003019957994023882,0.003019957994023882
732,7.32,-0.5144286222947418,0.595799343372359,-0.2715360643102501,-0.03400637125835113,0.0022786973454891877,0.0022786973454891877
733,7.33,-0.09224403828612729,-0.7651252644349161,-0.39997380650783376,-0.006656472256782804,-0.0006772630244027919,-0.0006772630244027919
734,7.34,0.007274355129690907,-0.7765914436481303,-0.5189120857372254,-0.005166755096750174,-0.006950890994600866,-0.006950890994600866
735,7.35,-0.13482368885064122,0.7359564780614625,-0.16650473690943882,-0.012316174148782291,-0.00799362874751815,-0.00799362874751815
736,7.36,-0.14950398071299792,1.7513136850093978,0.09067263258012898,-0.015096698859643338,-0.010585023227912115,-0.010585023227912115
737,7.37,-0.2646114401088556,0.8238901068664,-0.11651573799531278,-0.012620324650604385,-0.008378824277665911,-0.008378824277665911
738,7.38,-0.42973793173331853,-0.6869355666262872,-0.47226197653971214,-0.01995936621435958,-0.004991924434119228,-0.004991924434119228
739,7.39,-0.3936711945273015,-0.9141894172249235,-0.5834813554361435,-0.041030167045845486,-0.013638949141390086,-0.013638949141390086
740,7.4,-0.18968728108308822,0.10300652953361028,-0.3068811963270765,-0.043619844997262125,-0.024030246420867717,-0.024030246420867717
741,7.41,0.05732581567621592,0.7229299417619451,-0.02685996075361083,-0.011059698746862865,-0.023703346207431475,-0.023703346207431475
742,7.42,-0.0025901614610316925,-0.04307710202244305,0.19901283630602518,0.015089140325748616,-0.022309611232383068,-0.022309611232383068
743,7.43,-0.1559887846050591,-0.9774663584220898,-0.22901956940364557,-0.006385573967661762,-0.022724003809747567,-0.022724003809747567
744,7.44,-0.3333803023421424,-0.5607847124445915,-0.27776978735712987,-0.038156358350168035,-0.02280149477357836,-0.02280149477357836
745,7.45,-0.12429950011277005,0.5138207112501108,-0.5166916614907334,-0.04250670665335659,-0.025313192492542002,-0.025313192492542002
746,7.46,0.17638312281779245,0.8016909907867716,-0.21382071533072317,-0.016735760630258632,-0.028943673419135237,-0.028943673419135237
747,7.47,-0.1890377683407845,-0.0006544185823552096,0.03327877623674719,0.0122559847067539,-0.029317603800816064,-0.029317603800816064
748,7.48,-0.510424079607751,-0.6718379285045717,-0.10381158652812561,0.01379833062590858,-0.02644140666674742,-0.02644140666674742
749,7.49,-0.10853126492018113,-0.22920464593758325,-0.3389677248844488,-0.016855918205325133,-0.02496620877614375,-0.02496620877614375
750,7.5,0.441773035127284,0.3490014215393324,-0.643825156326517,-0.0366195721830408,-0.026197733099626464,-0.026197733099626464
751,7.51,-0.019609204490006013,-0.25359679737833074,-0.2645650920934568,-0.03478917818973643,-0.027056775404767718,-0.027056775404767718
752,7.52,-0.6589612063870542,-0.9785456697445672,0.5296267903621665,-0.023173135344062682,-0.030324963670689323,-0.030324963670689323
753,7.53,0.016039685975954038,-0.3033165543247388,0.43221062325930204,-0.009021541916291335,-0.029980321458940494,-0.029980321458940494
754,7.54,1.1204968729766593,0.8814770197069132,-0.00882432937306682,0.01389296274016462,-0.020493929621864387,-0.020493929621864387
755,7.55,0.6091419181243501,0.47876976478154837,-0.30627063881209615,0.02287621555077704,-0.015542370566638118,-0.015542370566638118
756,7.56,-0.9875360161116075,-0.7726647955497906,-0.039114443680939,-0.0030697857507344106,-0.01842494047866936,-0.01842494047866936
757,7.57,-0.8513544291150882,-0.778497186597964,0.25244539584605374,-0.038879149324709684,-0.02375651568577704,-0.02375651568577704
758,7.58,0.9324808217618132,0.8512142861869573,0.4202089131513283,-0.04225079300347942,-0.024170640685862717,-0.024170640685862717
759,7.59,1.5993659306657586,1.703736527643414,0.18604598914112933,-0.000951941221989704,-0.02230584879290053,-0.02230584879290053
760,7.6,0.18580333513842442,0.3178769967547918,0.5307796394051763,0.03726745515584319,-0.017892664327839425,-0.017892664327839425
761,7.61,-0.9303753043792613,-1.286700992551216,0.47984880715184125,0.01755359787032179,-0.013181512767571108,-0.013181512767571108
762,7.62,-0.2572110957208882,-0.7378102983712094,0.267186428152443,-0.032453749443432024,-0.009957121510274076,-0.009957121510274076
763,7.63,1.0024680387812468,0.954768597772987,-0.08474537750217359,-0.05522711368879298,-0.008657264719169763,-0.008657264719169763
764,7.64,0.9599376448835654,1.3991728986770897,-0.0511099588451957,-0.01802913736984794,-0.011090837835221013,-0.011090837835221013
765,7.65,-0.21242113929845713,0.29224360265297444,0.5350743820165957,0.026665897186606627,-0.010360359808915743,-0.010360359808915743
766,7.66,-0.6207972959675472,-0.4069301579547543,0.683839971896264,0.03351232560938247,-0.007241618865917024,-0.007241618865917024
767,7.67,0.09284466369773015,0.053669789428091155,0.4849943184672134,0.009252816879655531,0.00179668399774945,0.00179668399774945
768,7.68,0.8477275190228232,0.42662837598840275,-0.2614317436128769,-0.022625821290024342,0.005467201013406678,0.005467201013406678
769,7.69,0.3254930180838457,-0.12125014997584616,-0.31717148451346,-0.04268196467885037,0.001962453486499728,0.001962453486499728
770,7.7,-0.6118779480925342,-0.6857126590130942,0.07067213243347154,-0.03540921332286876,0.00024351606354012836,0.00024351606354012836
771,7.71,-0.55740053242464,-0.2492231510207017,0.43423074087374663,-0.006492297893278431,0.002952626866544932,0.002952626866544932
772,7.72,0.35356780546628186,0.43337584088979353,0.39320887166204355,0.02429307754457343,0.008360217963516494,0.008360217963516494
773,7.73,0.6249362779370025,0.13832493893526474,0.037485525398692,0.02705740102191454,0.010520857576250112,0.010520857576250112
774,7.74,-0.2960834778393056,-0.6435169189077901,-0.12517600500216503,-0.004859170665675647,0.013773091607893969,0.013773091607893969
775,7.75,-0.7782836305956407,-0.3989183731901754,-0.051801372384139566,-0.039246119796218365,0.010612174540593522,0.010612174540593522
776,7.76,-0.0749252303312036,0.42010638703903236,0.004935670414253704,-0.040317686253254506,0.00823473869690947,0.00823473869690947
777,7.77,0.5552396310000928,0.22233200459091518,0.16209291319889724,-0.010235514770870173,0.01173927391229435,0.01173927391229435
778,7.78,0.2746522369108773,-0.8593464227424662,0.0246394900877758,0.010616008580756462,0.008934991363484345,0.008934991363484345
779,7.79,-0.26007045766325354,-0.9043032558962245,-0.1422257565919145,0.00041814469100609134,0.011802628275928349,0.011802628275928349
780,7.8,-0.38288408871827495,0.2822183539314182,-0.4241976974785812,-0.020428617636368555,0.008303953792014422,0.008303953792014422
781,7.81,-0.10418836254645603,0.9410860991341792,-0.28154405438054303,-0.029043143957003605,0.004097041980047028,0.004097041980047028
782,7.82,0.14390213113040884,0.09130594222854316,-0.08665920615337948,-0.02412628894205443,-0.001167115127061715,-0.001167115127061715
783,7.83,-0.026301873954823918,-0.7765786029323645,0.08912042454331409,-0.02316741021657134,-0.0001016797280542082,-0.0001016797280542082
784,7.84,-0.5904201285792191,-0.3554842473893919,-0.13370206849708538,-0.026393547511956172,0.002152044914482247,0.002152044914482247
785,7.85,-0.7376819589841654,0.30020939601316354,-0.42599409812388633,-0.020701445133985502,0.0013509119682178182,0.0013509119682178182
786,7.86,0.06674905136512882,0.028274949761153856,-0.7265492532748599,-0.01507424005296808,-0.004554915691765179,-0.004554915691765179
787,7.87,0.58110260464421,-0.6827774988641299,-0.253623207594321,-0.020896236189814444,-0.009073487206381422,-0.009073487206381422
788,7.88,0.10765707583240902,-0.5464711940700734,0.15232928481539432,-0.04199883007908816,-0.009120900783009908,-0.009120900783009908
789,7.89,-0.6426595436042308,0.22578060202189917,0.36153915347602145,-0.0416318067796227,-0.0051207641550952135,-0.0051207641550952135
790,7.9,-0.46345609844066177,0.5748372090928704,-0.5086087400728339,-0.02319136316936833,-0.001970850080323926,-0.001970850080323926
791,7.91,-0.030365785257993105,0.26271629427138565,-1.0141499580606468,-0.004824974294791353,-0.0047486646978360724,-0.0047486646978360724
792,7.92,0.032807278849951965,-0.007514442780639813,-0.9177020979628885,-0.007859696023657534,-0.015634082086246642,-0.015634082086246642
793,7.93,-0.06942540552949704,0.1931654796011657,0.10194704536872173,-0.021373122298870603,-0.020049517506994262,-0.020049517506994262
794,7.94,-0.011490156808301226,0.007266009370458543,0.6300484029212293,-0.03757470510199013,-0.022481600182134333,-0.022481600182134333
795,7.95,0.07429640263049407,-0.6268053461300231,0.6383756577887696,-0.04546822836878647,-0.01984257122201557,-0.01984257122201557
796,7.96,0.011229239617903286,-0.6095018947949774,0.016840814608047427,-0.0369658740881635,-0.019207961745332385,-0.019207961745332385
797,7.97,0.07378241796987192,0.2952897937200743,-0.43347603248399563,-0.004211008048942295,-0.020822022051832742,-0.020822022051832742
798,7.98,0.07949614849455833,1.1086425925458543,-0.16336277598516102,0.026874194907295014,-0.02744314706517713,-0.02744314706517713
799,7.99,-0.058099253485555905,0.9480855911097276,0.4227854342447023,0.038498832102862215,-0.029938836830403787,-0.029938836830403787
800,8.0,0.0808692147334723,0.16432927212382337,0.6693054306036572,0.010462664721533321,-0.02859631293989865,-0.02859631293989865
801,8.01,0.23801318800843624,-0.05198401816580006,0.3195577273322304,-0.021834508467601328,-0.021057966648151703,-0.021057966648151703
802,8.02,0.051359859443054004,0.1226237167160555,-0.45200644867519,-0.03177205269044251,-0.020456052692418798,-0.020456052692418798
803,8.03,0.037477891019381246,-0.20931495633553476,-0.6098838639493257,-0.007042555123597922,-0.023245291483543748,-0.023245291483543748
804,8.04,0.2517138071506605,-0.750330552143877,-0.007546311994246879,0.018454368037201213,-0.028497319091816825,-0.028497319091816825
805,8.05,0.3476514357272265,-0.447064158752148,0.5681817919367629,0.03020577245364325,-0.028443215698840136,-0.028443215698840136
806,8.06,0.17150817311081362,0.4654997504369322,0.7827294325308171,0.02620278323757444,-0.02062912221570353,-0.02062912221570353
807,8.07,-0.2103242621208893,0.6438891441961301,0.0027143650972164812,0.020593574524153058,-0.014465728944386696,-0.014465728944386696
808,8.08,-0.21359930691081938,-0.2678583767923427,-0.3880353140408891,0.005216099797800601,-0.01263994087938584,-0.01263994087938584
809,8.09,0.2536183328375323,-0.9560206808839715,-0.17686197146815974,-0.01463711031123822,-0.019056185393439302,-0.019056185393439302
810,8.1,0.4585382852435723,-0.5517365707464572,0.5805688611692097,-0.01785436278667805,-0.023873632543158326,-0.023873632543158326
811,8.11,0.4264325365605389,0.31402531763787456,0.7124717184413976,0.0023203055176638943,-0.014579369770860403,-0.014579369770860403
812,8.12,-0.028651056406905406,0.4227797809736552,0.40094204131741235,0.03151284422784939,-0.005980554881649238,-0.005980554881649238
813,8.13,-0.30496740798007055,-0.3052096019891921,-0.32820698516414154,0.030617985713955912,-0.002130825196607928,-0.002130825196607928
814,8.14,-0.2501289575343706,-0.5822996544389472,-0.19542490800021928,-0.0013873862690265224,-0.006782108583311265,-0.006782108583311265
815,8.15,0.37294658300521377,0.07091402866266233,0.08463723706976573,-0.03156945533737533,-0.009840696331806537,-0.009840696331806537
816,8.16,0.8094043673562006,0.8999156816122772,0.6752731399966262,-0.025100716580703158,-0.010555522980225615,-0.010555522980225615
817,8.17,0.27613635402394926,0.6610233175499843,0.4482812635599864,0.005390727824044845,-0.0024645566000636647,-0.0024645566000636647
818,8.18,-0.613778005958359,-0.19857741488906777,0.08173315315126023,0.02327314375191517,0.007296384548355524,0.007296384548355524
819,8.19,-0.6220962334750861,-0.5679916979792303,-0.44052040586751484,0.005287418821069912,0.006216434537029302,0.006216434537029302
820,8.2,0.25296523664800247,-0.13205824260201104,-0.6643450385328936,-0.025020824615316583,0.004363051664463876,0.004363051664463876
821,8.21,0.47567217710194426,0.44576036017725784,-0.17481825828196373,-0.031331467480611434,0.003884512501314726,0.003884512501314726
822,8.22,-0.25682921525136626,0.4903717804539066,0.36060539057635654,-0.011656820436552386,0.0044575578674898265,0.0044575578674898265
823,8.23,-0.5896983094383415,0.4461051502539293,0.4669238362274492,0.015487164179364932,0.009293713940151958,0.009293713940151958
824,8.24,-0.04692116695893185,0.526171409330346,-0.04374415165447071,0.029190325280200945,0.011727490324759941,0.011727490324759941
825,8.25,0.34362525080346795,0.4032859650436374,-0.6637314767590341,0.02144577850729078,0.013561009488982305,0.013561009488982305
826,8.26,-0.2670594536590235,-0.06777553856005587,-0.3461093370925036,-0.006453154645768158,0.01144880800893258,0.01144880800893258
827,8.27,-0.51843174570917,-0.26160075759179935,-0.049771269396850726,-0.029030429315220558,0.0083758699451572,0.0083758699451572
828,8.28,0.09442135435491772,0.3099620732305602,0.20312597710866004,-0.01735570506921691,0.011261180723687586,0.011261180723687586
829,8.29,0.4053610468899636,0.6069731691963293,-0.13608225937444768,0.015837006166047378,0.017015958422992694,0.017015958422992694
830,8.3,-0.3385586761843744,-0.22134702049791302,-0.27444697673113133,0.04056945197150503,0.024364408994920008,0.024364408994920008
831,8.31,-0.8775831326210413,-0.9746921271166062,-0.3441933157134832,0.02232219821127649,0.02156548366158827,0.02156548366158827
832,8.32,-0.1952269093103445,-0.6575737381817972,-0.4050161941736512,-0.014856660826659847,0.020502366579357195,0.020502366579357195
833,8.33,0.3508924828866814,0.42428807409549607,-0.1818667717185694,-0.03189124306267285,0.021690574950083637,0.021690574950083637
834,8.34,-0.1587817041110424,0.5338237384642859,0.09932231155285176,-0.0004390868918560352,0.022130663970161658,0.022130663970161658
835,8.35,-0.2884391082138285,-0.952580781793803,0.12881836404736152,0.0318235728756012,0.02396507354443691,0.02396507354443691
836,8.36,-0.03807736093172175,-1.9635611756812161,0.03729919148508021,0.022174759493277844,0.027449696989422928,0.027449696989422928
837,8.37,-0.021416121107638464,-0.6008335354099206,-0.4005940870940699,0.0017489995094433215,0.03071017235266213,0.03071017235266213
838,8.38,-0.1526984652578709,1.3534086717686917,-0.3298027625293931,0.012198325317201287,0.03105710393144762,0.03105710393144762
839,8.39,-0.20183346648695072,1.589350906549317,-0.01565755963304541,0.05183616367726242,0.024641759396035717,0.024641759396035717
840,8.4,0.06580595730493727,-0.3373796215780823,0.18176809697887183,0.0713564491498277,0.025118364722092487,0.025118364722092487
841,8.41,0.2219659103938945,-1.6486578339480915,0.217132375038311,0.036548279973355934,0.028234451400358664,0.028234451400358664
842,8.42,0.19109495662587472,-0.7332612984552764,-0.36578184028483557,-0.0119145003912377,0.03334477191769214,0.03334477191769214
843,8.43,0.023457672981851987,0.40836519881594574,-0.39358695534247723,-0.01578981302700287,0.030435789228574074,0.030435789228574074
844,8.44,-0.010555393436072993,0.11524153129644465,-0.2680891881013861,0.02039701802218053,0.024529651392916237,0.024529651392916237
845,8.45,0.0688829407627137,-0.8691037572263709,0.28841879569916407,0.05622450969702296,0.02809401904552691,0.02809401904552691
846,8.46,0.11339191336270008,-0.668807730860969,0.49695281751830256,0.052676941832731666,0.027105696574673325,0.027105696574673325
847,8.47,0.1437829514561155,0.6787469901889298,0.211816219884505,0.03466702586770678,0.02521984867312016,0.02521984867312016
848,8.48,0.3078709484867445,1.3780725357564905,-0.056158060208011396,0.029157002559780158,0.023773278933277315,0.023773278933277315
849,8.49,0.2689360599337727,0.3691699012773628,0.0018998636328086405,0.031304973698249826,0.021077285337944358,0.021077285337944358
850,8.5,0.14081052872343053,-0.973020999573611,0.21561080214555917,0.014081015699902581,0.017243410707949918,0.017243410707949918
851,8.51,0.18000349125096188,-0.913854976016347,0.44219820467696325,-0.002352195258198334,0.01603477385353927,0.01603477385353927
852,8.52,0.33281580942454203,0.3842867214272274,0.2715567924089538,0.0004824175327804419,0.012377050413242822,0.012377050413242822
853,8.53,0.15342221064220768,1.36108136006167,-0.05600601770959446,0.035619053695387135,0.011684795489618337,0.011684795489618337
854,8.54,0.008536899157259581,0.6571721494617765,-0.13836635550930967,0.05778885906317899,0.008990500549422334,0.008990500549422334
855,8.55,0.05936222405678236,-0.40599806279229966,-0.036046268622376754,0.0373544615238393,0.004585071424889086,0.004585071424889086
856,8.56,0.21502031562192256,-0.3821738501683887,0.45003478863911683,-0.00797405021889162,-0.0012913124308766848,-0.0012913124308766848
857,8.57,0.21052532245520628,0.732608173693788,0.6189488433592167,-0.029442776535482537,-0.003597067520737667,-0.003597067520737667
858,8.58,-0.29767186029056764,1.1511510922773112,0.5039202361190149,-0.010557119386940176,-0.0019810435599520093,-0.0019810435599520093
859,8.59,-0.36347784594648436,0.0834079434038017,0.09088512457011277,0.019321782523020827,-0.002471548929045095,-0.002471548929045095
860,8.6,0.3903934064810253,-1.3312849579090393,-0.5145223381924929,0.016347299145131847,-0.010167351160112187,-0.010167351160112187
861,8.61,0.3298079311072817,-1.4785997788457719,-0.31779882011297644,-0.029744365382046577,-0.014743672986450755,-0.014743672986450755
862,8.62,-0.560562153878932,-0.28520143972287704,0.356354936433597,-0.07096963713897014,-0.02717708448339006,-0.02717708448339006
863,8.63,-0.33732186665280195,1.2015288124290981,0.7816618580867578,-0.05517979164690494,-0.031570365054275844,-0.031570365054275844
864,8.64,0.630800003278811,1.8133697994061295,0.4224582044876968,0.01614458027468893,-0.029820502577416686,-0.029820502577416686
865,8.65,0.4448208229565436,0.7118237539179394,-0.24740710703266905,0.06571447456956002,-0.023982936979197858,-0.023982936979197858
866,8.66,-0.9360011890845518,-0.527215744508335,-0.2657170811742235,0.042590734033256285,-0.02728251112688591,-0.02728251112688591
867,8.67,-0.8346688856459608,-0.19989964303823432,-0.4286841579238181,-0.009920077005843908,-0.03971224639846347,-0.03971224639846347
868,8.68,0.6247634242605764,1.3573517350042206,-0.2696227041248983,-0.029524827887347175,-0.039800272537260616,-0.039800272537260616
869,8.69,0.7654478608570362,1.7151645263254456,-0.40501354416390767,0.00740103608246042,-0.041968689866678205,-0.041968689866678205
870,8.7,-0.5054006441485657,-0.21674645670291398,-0.14249184188673036,0.05464604443193725,-0.040082365316314456,-0.040082365316314456
871,8.71,-1.0833373204567671,-2.0185305426801925,0.16534867049764473,0.05603063890829165,-0.04325227805420085,-0.04325227805420085
872,8.72,0.17500088103044176,-1.158912990130194,-0.09521027857815785,0.014467916550796924,-0.0449399651119646,-0.0449399651119646
873,8.73,0.9415339170638323,1.1632109535716704,-0.15466385197981503,-0.0012303874610070948,-0.04459067045638958,-0.04459067045638958
874,8.74,-0.3226437325304831,1.6074169252456065,-0.10511065240658049,0.043485976939868345,-0.0448405857167712,-0.0448405857167712
875,8.75,-1.4617667806625432,-0.21577668836336983,0.02669294921826329,0.08534310585019565,-0.04247758160862658,-0.04247758160862658
876,8.76,-0.7309486815188126,-2.2806237218438317,-0.21593901880285982,0.06315132179628047,-0.04398396835234327,-0.04398396835234327
877,8.77,0.19291493000788984,-2.0106546013597004,-0.47810295775760864,-0.0016832905140314169,-0.049114041638206936,-0.049114041638206936
878,8.78,0.41274810763946607,-0.11215794957223885,-0.5391049784994022,-0.029616928680594123,-0.06061870339994821,-0.06061870339994821
879,8.79,1.0551865129510067,0.7263646159173733,-0.4184769244090719,0.0002518524030703534,-0.07039827419901709,-0.07039827419901709
880,8.8,0.9710391185821993,-0.6641599646024877,0.03322229562679857,0.04628637444510675,-0.07147099665050931,-0.07147099665050931
881,8.81,-0.25313996781236126,-2.2998505050571625,0.5675457714764436,0.04057215516629376,-0.06580726011340565,-0.06580726011340565
882,8.82,-1.2714251762781554,-1.621390732826045,0.60814947867622,-0.009077344687103531,-0.06338676797422065,-0.06338676797422065
883,8.83,-0.24669782614446317,0.9326536402948737,-0.10412503597255085,-0.03834540607517585,-0.06272400535284542,-0.06272400535284542
884,8.84,0.9104305460257919,2.277444602443051,-0.43770578223474954,-0.0026852864432811148,-0.07409907111843843,-0.07409907111843843
885,8.85,0.672001974600865,0.8275618031885942,-0.2779378002879669,0.050885821477215584,-0.07692460461525441,-0.07692460461525441
886,8.86,-0.14669054416725924,-1.8423296923585308,0.635525076146717,0.03952095515574534,-0.0777951011601631,-0.0777951011601631
887,8.87,-0.39206362246329773,-2.46839265493691,1.0940872161267108,-0.03291334085778181,-0.07491828165307042,-0.07491828165307042
888,8.88,0.21115219982999536,-0.25312286743780943,0.16158143648897078,-0.0776269917198052,-0.06517964013706715,-0.06517964013706715
889,8.89,0.00025263060851282715,2.4476575614020764,-0.7690696155368789,-0.03614046944392621,-0.05405205297278018,-0.05405205297278018
890,8.9,-1.0444213489111238,2.517099819494883,-1.3085093445826421,0.03967789749185599,-0.056651961748289265,-0.056651961748289265
891,8.91,-0.9545016377336362,0.4117005309414353,-0.6909340727398285,0.0790455094573404,-0.0644932172212207,-0.0644932172212207
892,8.92,0.6605256262869548,-1.063862737837732,0.29714988730395264,0.03199189672963386,-0.06999347693124719,-0.06999347693124719
893,8.93,1.3636934512470016,0.11400802119223741,1.1095951407803128,-0.036295161204793334,-0.06865350289115074,-0.06865350289115074
894,8.94,0.04478300464304469,2.065462635222185,0.9598742871573679,-0.06008816853690729,-0.0514693753758562,-0.0514693753758562
895,8.95,-1.0361026821543593,1.5860811293615904,-0.07758153040377447,-0.018094755639148655,-0.04264068717249369,-0.04264068717249369
896,8.96,-0.4326670260576051,-0.5594272350931225,-1.2026024484242765,0.015558722217191031,-0.04046240625910864,-0.04046240625910864
897,8.97,0.43165332979715443,-1.1125530179252516,-1.2154706831454305,0.024884624925625945,-0.0470803514845103,-0.0470803514845103
898,8.98,0.15428685070445114,0.607629363169109,-0.01551577956885597,0.011212331906155414,-0.05541495663000872,-0.05541495663000872
899,8.99,-0.11009066348860735,1.9235113138252489,1.3510292987852512,0.000203808572015399,-0.05577474156471225,-0.05577474156471225
900,9.0,0.42344593273472964,0.7520804690696441,1.829532784057493,-0.007104313124159636,-0.05370079110139234,-0.05370079110139234
901,9.01,0.8736143294155605,-1.5003633300817,0.996467759118008,-0.02438579649063688,-0.038736337862391966,-0.038736337862391966
902,9.02,0.5167401933387876,-1.6641367225554446,0.44133787625512166,-0.052145726619262686,-0.027941782268648515,-0.027941782268648515
903,9.03,-0.1606891478025314,-0.03457140586867835,0.15289024072497526,-0.042357663594705136,-0.030367177662678223,-0.030367177662678223
904,9.04,0.4773515549317485,0.7546186700566685,-0.7968493000794843,0.008368357423371607,-0.018167603638788936,-0.018167603638788936
905,9.05,0.689389276200614,-0.18653264270707068,-1.9303749131302448,0.04793723546809039,0.00490178538397325,0.00490178538397325
906,9.06,-1.517885910165896,-1.1997276871754419,-1.9102276662334048,0.017767786201980818,0.010195508325058021,0.010195508325058021
907,9.07,-2.7407911438530745,-0.8737184400484077,-1.0819292669147278,-0.04097531378794048,-0.0008133172037566281,-0.0008133172037566281
908,9.08,-0.2299356972433244,0.29333911872793583,0.05188681354259872,-0.07427450754200009,-0.0075992052984363324,-0.0075992052984363324
909,9.09,2.9139774577807507,0.7006837358636578,0.6924387216300838,-0.04090472553060178,-0.003630388677297201,-0.003630388677297201
910,9.1,1.3639569314058582,-0.5589392102814057,1.1495275983038873,0.005913250963552846,-0.0009863774690074339,-0.0009863774690074339
