,ts,ax,ay,az,wx,wy,wz
0,0.0,0.023283,0.07155299999999999,-0.0033469999999999997,0.015259,-0.032913,-0.0026089999999999998
1,0.01,0.014847,0.054411,-0.07493999999999999,0.01738,-0.036101999999999995,-0.003677
2,0.02,0.000378,0.07777200000000001,-0.084097,0.018448,-0.031845,-0.0026089999999999998
3,0.03,0.0068980000000000005,0.049444999999999996,-0.12294100000000001,0.015259,-0.01799,0.004852
4,0.04,-0.005279,0.038827,-0.185629,0.009932999999999999,-0.007339,0.014435
5,0.05,-0.0018340000000000008,0.012092,-0.171995,0.006729000000000001,0.003311,0.018692
6,0.06,-0.041048,-0.042745999999999985,-0.171237,0.0014040000000000005,0.016097999999999998,0.01976
7,0.07,-0.018583000000000002,0.006623999999999998,-0.10248199999999999,-0.011382999999999999,0.037399,0.014435
8,0.08,-0.031561,0.04212,-0.021041000000000004,-0.022034,0.041656,0.002716
9,0.09,-0.030097000000000002,0.05305599999999999,0.047289,-0.027358999999999998,0.04805,-0.005797999999999999
10,0.1,-0.060001,0.081711,0.13963599999999998,-0.036942,0.051239,-0.006866
11,0.11,-0.118346,0.120295,0.168952,-0.036942,0.026749000000000002,-0.0004730000000000003
12,0.12,-0.14192000000000002,0.09743099999999999,0.216171,-0.032684,-0.0062710000000000005,0.015503
13,0.13,-0.143034,0.055638,0.172873,-0.023087,-0.040359,0.032547
14,0.14,-0.086002,0.026982,0.149583,-0.01564,-0.06274400000000001,0.051712
15,0.15,-0.05821900000000001,0.010534,0.09925,-0.0060420000000000005,-0.069122,0.060242
16,0.16,0.01329,-0.0456,0.041253,-0.002853,-0.06274400000000001,0.06131
17,0.17,0.008648999999999999,-0.039316000000000004,-0.028814,-0.003922,-0.054214,0.06131
18,0.18,-0.002487000000000003,-0.088374,-0.055761,-0.010315000000000001,-0.031845,0.057053
19,0.19,0.030998,-0.030032000000000007,-0.017125999999999995,-0.022034,-0.007339,0.052779999999999994
20,0.2,0.102251,-0.022705,0.043599000000000006,-0.023087,0.010773,0.046387
21,0.21,0.11835,-0.012822,0.054810000000000005,-0.012436,0.031006,0.038939999999999995
22,0.22,0.081238,-0.024096,0.0682,-0.0060420000000000005,0.043793,0.032547
23,0.23,0.03757,-0.039810000000000005,0.10683699999999999,0.0056760000000000005,0.046981999999999996,0.02829
24,0.24,0.034076999999999996,-0.091784,0.115915,0.013123,0.038467,0.02829
25,0.25,0.022559000000000003,-0.098659,0.088912,0.022719999999999997,0.022491,0.030411
26,0.26,0.025095,-0.056327999999999996,0.067872,0.025908999999999998,0.003311,0.031479
27,0.27,0.038271,-0.053827,-0.0003840000000000024,0.026978,-0.025452000000000002,0.033615
28,0.28,0.073117,-0.022034,-0.061059,0.019516,-0.051025,0.033615
29,0.29,0.085241,-0.032978,-0.11954400000000001,0.007797,-0.058472,0.032547
30,0.3,0.139301,0.023068,-0.102065,-0.010315000000000001,-0.0457,0.030411
31,0.31,0.183327,0.005261,-0.023365,-0.025223,-0.015869,0.021896000000000002
32,0.32,0.144242,-0.015631999999999997,0.030628,-0.029480000000000003,0.008635999999999998,0.009109
33,0.33,0.074906,-0.044619,0.163076,-0.022034,0.020355,-0.0015409999999999998
34,0.34,0.069655,-0.065759,0.197562,-0.011382999999999999,0.027817,-0.006866
35,0.35,0.058079,-0.048665,0.240852,0.005676,0.013962,-0.015396
36,0.36,0.047864,-0.035468,0.197499,0.025908999999999998,-0.014801,-0.026047000000000004
37,0.37,0.09389199999999999,-0.01684,0.192801,0.044022000000000006,-0.042496,-0.035629
38,0.38,0.11593800000000001,0.012685999999999998,0.107652,0.06425499999999999,-0.060608,-0.04628
39,0.39,0.112147,0.008554,0.042533999999999995,0.082367,-0.063797,-0.059066999999999995
40,0.4,0.078105,0.023135,-0.040565,0.091949,-0.046752999999999996,-0.069717
41,0.41,0.041823,0.033229,-0.119646,0.08876,-0.01799,-0.067596
42,0.42,0.020247,0.024315,-0.124465,0.080231,0.0065,-0.067596
43,0.43,-0.035261,-0.011915,-0.177402,0.06639099999999999,0.027817,-0.060135
44,0.44,-0.042959,-0.03532,-0.185325,0.04509,0.032074,-0.050552
45,0.45,-0.06976399999999999,-0.070504,-0.182916,0.026978,0.020355,-0.042023000000000005
46,0.46,-0.074538,-0.068067,-0.161824,0.021652,0.00010699999999999946,-0.042023000000000005
47,0.47,-0.022521,-0.090771,-0.167021,0.024841,-0.009476,-0.048416
48,0.48,0.0019630000000000003,-0.011637,-0.174375,0.031235000000000002,-0.002014,-0.054810000000000005
49,0.49,-0.024446000000000002,-0.009229,-0.161578,0.031235000000000002,0.013962,-0.056930999999999995
50,0.5,-0.06196,0.022286,-0.17773699999999998,0.020584,0.02887,-0.050552
51,0.51,-0.09488200000000001,0.006756999999999999,-0.151421,0.0003359999999999995,0.049118,-0.045226999999999996
52,0.52,-0.13531700000000002,-0.0005480000000000003,-0.055408000000000006,-0.024155000000000003,0.066162,-0.029236
53,0.53,-0.151345,-0.006501000000000001,0.042253000000000006,-0.050797,0.062958,-0.015396
54,0.54,-0.10946700000000001,-0.040421,0.145204,-0.061447,0.033142000000000005,-0.0026089999999999998
55,0.55,-0.102977,-0.046958,0.21333200000000002,-0.060378999999999995,-0.008408000000000002,0.002716
56,0.56,-0.072047,-0.076538,0.218944,-0.049727999999999994,-0.052078,0.002716
57,0.57,-0.029084,-0.08535,0.167005,-0.031616000000000005,-0.08616599999999999,-0.004744999999999999
58,0.58,0.05569099999999999,-0.072578,0.063055,-0.006042,-0.089371,-0.015396
59,0.59,0.06450800000000001,-0.019932,-0.002723999999999999,0.013123,-0.058472,-0.023911
60,0.6,0.052177999999999995,0.035116,-0.07066900000000001,0.022719999999999997,-0.010543999999999998,-0.03244
61,0.61,-0.011004,0.059608,-0.135046,0.022719999999999997,0.037399,-0.036697
62,0.62,-0.072017,0.016534,-0.106279,0.011002,0.069351,-0.027114999999999997
63,0.63,-0.095441,0.02368,-0.09665499999999999,-0.001785,0.080002,-0.012192
64,0.64,-0.11989200000000001,0.007094,-0.076359,-0.019897,0.065094,0.012299
65,0.65,-0.06613,-0.049235,-0.0069110000000000005,-0.042267,0.035263,0.032547
66,0.66,0.027833999999999998,-0.036088,-0.022109999999999998,-0.060378999999999995,-0.007339,0.04213
67,0.67,0.101922,0.00044299999999999895,-0.005197,-0.07635499999999999,-0.043564,0.032547
68,0.68,0.110247,0.0041670000000000006,-0.013850999999999999,-0.091263,-0.061676,0.017624
69,0.69,0.08476399999999999,0.033798,0.031945,-0.096603,-0.069122,-0.006866
70,0.7,0.063441,0.063323,0.078081,-0.09979199999999999,-0.053146000000000006,-0.022841999999999998
71,0.71,0.032511,0.091807,0.14330299999999999,-0.089142,-0.022262999999999998,-0.028183
72,0.72,-0.042402999999999996,0.114477,0.233026,-0.059311,0.004378999999999999,-0.034561
73,0.73,-0.08058799999999999,0.035549000000000004,0.22703,-0.023087,0.026749000000000002,-0.028183
74,0.74,-0.089541,0.055446,0.263696,0.012054,0.050186,-0.017516999999999998
75,0.75,-0.040926,0.032967,0.23568499999999998,0.05146799999999999,0.057632,-0.014328
76,0.76,-0.01431,-0.032273,0.130928,0.08769199999999999,0.040588,-0.015396
77,0.77,-0.00027500000000000007,-0.049993,0.015996999999999997,0.105804,0.023544,-0.023911
78,0.78,0.024559,-0.007002,-0.042055,0.105804,0.007568000000000002,-0.029236
79,0.79,-0.02356,-0.029366000000000003,-0.126001,0.08876,-0.0009459999999999998,-0.035629
80,0.8,-0.038329,0.030505,-0.187401,0.059998,-0.013733,-0.036697
81,0.81,-0.04426,0.082835,-0.209517,0.028045999999999998,-0.032913,-0.029236
82,0.82,-0.065326,0.11035299999999999,-0.201322,-0.003922,-0.038238999999999995,-0.01326
83,0.83,-0.068728,0.044989999999999995,-0.183843,-0.028426999999999997,-0.0457,0.004852
84,0.84,-0.036239999999999994,0.017116,-0.155836,-0.042267,-0.044632,0.024017
85,0.85,0.014453000000000002,0.014771000000000001,-0.11923199999999999,-0.043335000000000005,-0.029708999999999996,0.031479
86,0.86,0.039148,0.012321,-0.050677999999999994,-0.027358999999999998,-0.013733,0.030411
87,0.87,0.007560999999999998,-0.04019,-0.0474,0.0003359999999999995,-0.002014,0.018692
88,0.88,-0.010447,-0.057469000000000006,-0.089461,0.032303,0.010773,0.006973
89,0.89,-0.033245,-0.051432000000000005,-0.144525,0.054672000000000005,0.018219,0.002716
90,0.9,-0.05919,0.018102,-0.23125700000000002,0.053604,0.024612000000000002,0.0037840000000000005
91,0.91,-0.07968,0.028856,-0.287292,0.032303,0.027817,0.012299
92,0.92,-0.128147,0.005829000000000001,-0.26364,-0.011383,0.040588,0.024017
93,0.93,-0.14145,-0.017537,-0.206719,-0.055054,0.039536,0.038939999999999995
94,0.94,-0.149276,-0.045420999999999996,-0.129678,-0.098724,0.018219,0.058105
95,0.95,-0.10716700000000001,-0.044594999999999996,-0.066308,-0.130692,-0.016937,0.068756
96,0.96,-0.10548900000000001,-0.095553,0.026438999999999997,-0.149857,-0.059539999999999996,0.073029
97,0.97,-0.07687100000000001,-0.110374,0.066771,-0.15199300000000002,-0.08404500000000001,0.07515
98,0.98,-0.010828999999999998,-0.083083,0.083826,-0.14773599999999998,-0.09149199999999999,0.069824
99,0.99,0.06966,-0.027545999999999998,0.08229199999999999,-0.125366,-0.080841,0.058105
100,1.0,0.07682699999999999,0.011286,0.13091,-0.094467,-0.058472,0.044266
101,1.01,0.056798,0.056504,0.087604,-0.061447,-0.019058000000000002,0.034668
102,1.02,0.011313999999999994,-0.009151000000000001,0.089399,-0.031616000000000005,0.025681,0.032547
103,1.03,0.022823,0.002895,0.043342,-0.017761000000000002,0.074677,0.033615
104,1.04,0.015205000000000002,0.009064000000000001,0.021658000000000004,-0.017761000000000002,0.105576,0.034668
105,1.05,0.029494,0.001085000000000001,0.034074,-0.028426999999999997,0.10771199999999999,0.034668
106,1.06,0.023451,-0.044992000000000004,0.072952,-0.039077999999999995,0.086395,0.035736000000000004
107,1.07,0.034684,-0.049216,0.12556099999999998,-0.055054,0.053375,0.032547
108,1.08,0.109979,-0.047091,0.182594,-0.061447,0.009704999999999998,0.018692
109,1.09,0.109286,-0.039228,0.15823099999999998,-0.053986,-0.033981,-0.0015410000000000007
110,1.1,0.069114,0.064062,0.157297,-0.034805,-0.053146000000000006,-0.016464
111,1.11,0.081036,0.033472,0.128435,-0.013503999999999999,-0.039307,-0.024978999999999998
112,1.12,0.049532000000000014,0.093179,0.072524,0.015259,-0.005218999999999998,-0.029236
113,1.13,0.007625,0.09301799999999999,0.018555,0.037627999999999995,0.036331,-0.020721
114,1.14,-0.033674,0.062479999999999994,-0.0048259999999999996,0.049347,0.06828300000000001,-0.014328
115,1.15,-0.04724,0.038856,-0.022548,0.044022000000000006,0.092789,-0.004745
116,1.16,-0.046803,0.054467999999999996,-0.06264199999999999,0.024841,0.09811399999999999,0.006972999999999999
117,1.17,-0.015486000000000002,0.041025,0.010633000000000005,0.004608000000000001,0.076813,0.014435
118,1.18,-0.003716000000000001,0.055652999999999994,0.022466,-0.013503999999999999,0.02887,0.017624
119,1.19,0.001879,0.043828,0.033364,-0.027358999999999998,-0.014800999999999996,0.017624
120,1.2,0.049925,0.046887,0.03247,-0.043335000000000005,-0.042496,0.021896000000000002
121,1.21,0.108251,0.053815999999999996,0.075599,-0.053986,-0.047820999999999995,0.020828
122,1.22,0.090227,0.054738,0.08885,-0.049727999999999994,-0.038238999999999995,0.021896000000000002
123,1.23,0.055039,0.008045999999999998,0.156549,-0.036942,-0.015869,0.021896000000000002
124,1.24,0.074272,-0.019728,0.181897,-0.017761000000000002,0.010773,0.02829
125,1.25,0.130677,0.003716000000000001,0.138577,0.004608,0.033142000000000005,0.017624
126,1.26,0.097591,0.011646,0.150503,0.025908999999999998,0.046981999999999996,0.00592
127,1.27,0.059585,-0.04713,0.0986,0.039764,0.052307000000000006,-0.001541
128,1.28,0.043706,-0.028587,0.066586,0.044022000000000006,0.04805,-0.011139
129,1.29,0.019632,0.003831,0.077577,0.044022000000000006,0.015030000000000003,-0.01326
130,1.3,0.055513,0.017619,0.05975,0.039764,-0.010543999999999998,-0.015396
131,1.31,0.057379,0.030279,0.031067,0.03656,-0.031845,-0.015396
132,1.32,0.041578,0.001791,-0.032526,0.031235000000000002,-0.046752999999999996,-0.01326
133,1.33,0.03660999999999999,-0.01942,-0.053683,0.023773,-0.035033999999999996,-0.012192
134,1.34,0.007889,0.00042600000000000016,-0.088374,0.014191,-0.009476,-0.007935
135,1.35,0.00511,-0.015982,-0.068686,0.006729000000000001,0.006500000000000001,-0.0026089999999999998
136,1.36,-0.056736000000000016,-0.05432000000000001,-0.05139199999999999,0.00033599999999999993,0.020355,-0.005797999999999999
137,1.37,-0.022614,-0.065829,-0.015618,-0.009247,0.023544,-0.007935
138,1.38,-0.0045590000000000006,-0.037388,0.025659000000000008,-0.010315000000000001,0.007568000000000001,-0.014328
139,1.39,-0.056215,-0.039652999999999994,0.03055,-0.008179,-0.01799,-0.019653
140,1.4,-0.080808,-0.048871,-0.0006190000000000015,-0.002853,-0.041428,-0.02179
141,1.41,-0.035328,-0.012093000000000001,-0.018626,0.006729000000000001,-0.054214,-0.018585
142,1.42,-0.026193,-0.0122,-0.049592000000000004,0.016327,-0.048889,-0.017516999999999998
143,1.43,0.021407,-0.018667,-0.071187,0.023773,-0.01799,-0.012192
144,1.44,-0.042911000000000005,-0.011863,-0.10513399999999999,0.030167000000000003,0.023543999999999995,-0.011139
145,1.45,-0.03733,-0.039749,-0.0474,0.032303,0.055511000000000005,-0.012192
146,1.46,-0.044015,-0.006998999999999999,-0.080139,0.033371,0.07041900000000001,-0.010071
147,1.47,-0.062876,-0.037899,-0.033676,0.032303,0.071487,-0.011139
148,1.48,-0.100344,-0.05310499999999999,-0.04063,0.034424,0.053375,-0.0026089999999999998
149,1.49,-0.098353,-0.053467999999999995,-0.08278200000000001,0.026978,0.025681,0.002716
150,1.5,-0.048718,-0.024265000000000002,-0.069272,0.016327,0.009705,0.010178
151,1.51,0.007669000000000001,0.014609000000000004,-0.101121,-0.003921999999999999,0.00010700000000000032,0.011245999999999999
152,1.52,0.027833000000000004,0.008206000000000001,-0.049621,-0.020966,0.00010700000000000012,0.015503
153,1.53,0.04165,0.036688,-0.016731,-0.033752,0.005447,0.020828
154,1.54,0.001808,0.008267,0.014416,-0.039077999999999995,0.005447,0.027222000000000003
155,1.55,0.020229,0.01819,0.04873799999999999,-0.036942,-0.011612,0.029343
156,1.56,0.080979,0.02932,0.051577,-0.028426999999999997,-0.01799,0.034668
157,1.57,0.07311799999999999,-0.014686000000000001,0.020475999999999998,-0.018829,-0.015869,0.032547
158,1.58,0.08101699999999999,-0.036279,0.019642,-0.010315000000000001,-0.003082,0.02829
159,1.59,0.086766,-0.027083000000000003,0.011427,-0.0007169999999999998,0.019287000000000002,0.013366999999999999
160,1.6,0.041366,-0.025148,0.087407,0.006729000000000001,0.057632,0.0037840000000000005
161,1.61,0.032826,-0.011806999999999998,0.088184,0.012054,0.087463,-0.0004730000000000001
162,1.62,-0.005938000000000001,-0.007556,0.075722,0.022719999999999997,0.076813,-0.001541
163,1.63,0.002679,-0.006761,0.109903,0.025908999999999998,0.053375,0.00058
164,1.64,0.003948,0.044312,0.102293,0.025908999999999998,0.038467,0.002716
165,1.65,0.043607,0.067884,0.080887,0.031235000000000002,0.035263,0.004852
166,1.66,0.018524000000000002,0.010367,0.040422,0.039764,0.038467,0.004852
167,1.67,0.058023000000000005,0.024124000000000003,0.047612,0.04509,0.053375,0.0005800000000000003
168,1.68,0.07746,0.076894,0.016124,0.049347,0.046981999999999996,0.001648
169,1.69,0.035135,0.04108,-0.007890999999999999,0.050414999999999995,0.032074,-0.005797999999999999
170,1.7,0.023859,0.046337,-0.039711,0.047211,0.031006,-0.006866
171,1.71,0.047735,0.052578,-0.053545,0.046143,0.038467,-0.007935
172,1.72,0.054444000000000006,0.027347000000000003,-0.071149,0.035492,0.039536,-0.0015410000000000005
173,1.73,0.028843999999999998,0.000782999999999999,-0.095876,0.022719999999999997,0.026749000000000002,0.0016479999999999995
174,1.74,0.034934,0.039353,-0.057152999999999995,0.0003359999999999995,0.009705,0.004852
175,1.75,0.06806,0.001849,-0.037807,-0.019897,-0.023315,0.0037840000000000005
176,1.76,0.049547,-0.039655,-0.013384,-0.031616000000000005,-0.047820999999999995,-0.0026089999999999998
177,1.77,0.076437,-0.059036,0.02972,-0.03801,-0.067001,-0.017516999999999998
178,1.78,0.102605,-0.017495,0.011604000000000001,-0.030548000000000002,-0.075516,-0.03244
179,1.79,0.06452000000000001,-0.027167,0.03349,-0.013503999999999999,-0.060608,-0.048416
180,1.8,0.008684,-0.029987,-0.00033199999999999983,0.009932999999999999,-0.028656,-0.052673000000000005
181,1.81,-0.054310000000000004,-0.051923000000000004,-0.010740999999999999,0.032303,0.012894,-0.052673000000000005
182,1.82,-0.09363099999999999,-0.021307,-0.038133999999999994,0.047211,0.055511000000000005,-0.047348
183,1.83,-0.12971,-0.007422,-0.061395999999999985,0.056808000000000004,0.075745,-0.042023000000000005
184,1.84,-0.169979,-0.06085599999999999,-0.07959,0.05146799999999999,0.074677,-0.029236
185,1.85,-0.154803,-0.046147,-0.112349,0.032303,0.053375,-0.015396
186,1.86,-0.107949,-0.034033,-0.095948,0.00354,0.015030000000000003,-0.002609000000000001
187,1.87,-0.050779000000000005,-0.030250000000000006,-0.095574,-0.025223,-0.02652,0.00592
188,1.88,-0.026794,-0.016902,-0.05268200000000001,-0.046524,-0.061676,0.010178
189,1.89,-0.014543999999999996,-0.043871,-0.035306,-0.057175,-0.075516,0.009109
190,1.9,-0.037897,-0.047918,-0.039108,-0.058242999999999996,-0.079788,0.010178
191,1.91,-0.06110199999999999,-0.089684,0.023649,-0.053986,-0.055283000000000006,0.010178
192,1.92,-0.071973,-0.10775699999999999,0.017866,-0.046524,-0.029708999999999996,0.008041
193,1.93,-0.124827,-0.10745999999999999,0.00987,-0.03801,-0.002014,0.011245999999999999
194,1.94,-0.077276,-0.09938999999999999,0.015462,-0.030548000000000002,0.020355,0.013366999999999999
195,1.95,-0.04883,-0.09499400000000001,0.022553999999999998,-0.028426999999999997,0.027817,0.017624
196,1.96,-0.0005750000000000009,-0.062192,0.017349,-0.026291000000000002,0.026749000000000002,0.022964
197,1.97,0.046768000000000004,-0.089023,0.0037230000000000006,-0.023087,0.0022429999999999998,0.015503
198,1.98,0.076132,-0.085874,-0.030345,-0.023087,-0.015869,0.00592
199,1.99,0.071466,-0.059211,-0.058521000000000004,-0.023087,-0.028656,-0.003677
200,2.0,0.041523000000000004,-0.025253,-0.035439,-0.027358999999999998,-0.030777,-0.016464
201,2.01,-0.0028750000000000026,0.005550000000000003,-0.008025999999999998,-0.031616000000000005,-0.024384,-0.018585
202,2.02,-0.029568999999999998,0.045387000000000004,0.017649,-0.033752,-0.010544,-0.017516999999999998
203,2.03,-0.095447,0.050261,0.014806999999999999,-0.031616000000000005,-0.005219,-0.007935
204,2.04,-0.104572,0.015063,-0.002873000000000001,-0.026291000000000002,-0.006271,0.00592
205,2.05,-0.07187,0.07216399999999999,0.02348,-0.030548000000000002,0.0011750000000000005,0.021896000000000002
206,2.06,-0.009615,0.090699,0.012440000000000001,-0.033752,0.0065,0.029343
207,2.07,0.004814000000000001,0.074051,0.010547999999999998,-0.041199,0.003311,0.035736000000000004
208,2.08,0.031771999999999995,0.063863,0.00019699999999999929,-0.042267,-0.011612,0.040008999999999996
209,2.09,0.10448099999999999,0.010559,-0.02603,-0.040131,-0.029708999999999996,0.033615
210,2.1,0.10888900000000001,0.006465,0.021606,-0.039077999999999995,-0.044632,0.021896000000000002
211,2.11,0.14036600000000002,0.023698,0.014349999999999996,-0.030548000000000002,-0.042496,0.003783999999999999
212,2.12,0.086293,0.020411000000000002,-0.013938999999999998,-0.018829,-0.030777,-0.015396
213,2.13,0.08974,0.039144,-0.032824,-0.006042,-0.005219,-0.024978999999999998
214,2.14,0.013372000000000002,0.06702000000000001,-0.046002999999999995,0.0003360000000000004,0.025680999999999995,-0.031372000000000004
215,2.15,-0.034571,0.08341900000000001,-0.058633000000000005,0.002472,0.050186,-0.026047000000000004
216,2.16,-0.048407,0.095051,-0.11177800000000003,-0.000717,0.060837,-0.014328
217,2.17,-0.060283,0.10319300000000001,-0.096553,-0.017761000000000002,0.069351,0.004852
218,2.18,-0.071018,0.108509,-0.06478899999999999,-0.041199,0.07041900000000001,0.017624
219,2.19,-0.069395,0.094186,-0.038335,-0.063568,0.05658,0.030411
220,2.2,-0.078296,0.028881000000000007,0.034709,-0.083817,0.038467,0.037872
221,2.21,-0.06535099999999999,0.027532,0.152142,-0.098724,0.017151,0.041061
222,2.22,-0.054941,0.023127,0.220984,-0.100861,-0.014800999999999996,0.034668
223,2.23,-0.041932,0.011901000000000002,0.27704,-0.085938,-0.052078,0.029343
224,2.24,-0.047175999999999996,0.005505999999999997,0.238414,-0.058242999999999996,-0.07872,0.025085
225,2.25,-0.0491,0.011809999999999998,0.217,-0.030548000000000002,-0.080841,0.021896000000000002
226,2.26,-0.051188,-0.027335,0.137203,-0.003922,-0.06274400000000001,0.01976
227,2.27,-0.027194,0.00027700000000000294,0.056426999999999984,0.014191,-0.022263,0.021896000000000002
228,2.28,-0.001584,0.034995,0.045711,0.021652,0.017151,0.025085
229,2.29,0.027313999999999998,0.002189,0.029619,0.025908999999999998,0.050186,0.030411
230,2.3,0.038004,-0.029735,-0.011505,0.025908999999999998,0.06723,0.024017
231,2.31,0.055463,-0.041527999999999995,0.0019,0.028045999999999998,0.064026,0.012299
232,2.32,0.005107999999999998,-0.022491,0.014259,0.024841,0.039536,0.00592
233,2.33,-0.013897999999999999,-0.083347,0.017991,0.022719999999999997,0.022491,0.00592
234,2.34,0.011255,-0.033227,0.003779,0.018448,0.006500000000000001,0.008041
235,2.35,0.006867,-0.022816000000000003,0.04884,0.014191,-0.006271,0.0037840000000000005
236,2.36,-0.002671,-0.005056999999999999,0.024942,0.004608,0.0022429999999999998,-0.001541
237,2.37,-0.012309000000000004,0.015249999999999996,0.09487199999999997,-0.0028530000000000005,0.020355,-0.0026089999999999998
238,2.38,-0.012866999999999998,0.015762,0.0966,-0.0060420000000000005,0.029938,-0.004745
239,2.39,-0.016378999999999998,0.0014049999999999965,0.131414,-0.002853,0.018219,-0.0026089999999999998
240,2.4,-0.036395,0.013772999999999999,0.07795099999999999,0.0035399999999999997,0.003311000000000001,-0.0004730000000000001
241,2.41,0.022423,0.016481,0.046069999999999986,0.008865000000000001,-0.013733,0.002716
242,2.42,0.0027649999999999997,0.059139,0.016685,0.011002,-0.024384,0.001648
243,2.43,0.009015000000000002,0.033269,-0.023434,0.009932999999999999,-0.021194,0.0037840000000000005
244,2.44,0.0026429999999999995,0.028177999999999998,-0.010874,0.005676,-0.004150000000000001,0.004852
245,2.45,0.016715,0.040401,-0.036697,0.0035399999999999997,0.00010700000000000012,0.010178
246,2.46,0.040957,0.054920000000000004,-0.06251,0.002472,0.009705,0.013366999999999999
247,2.47,0.036996,0.03572,-0.053485000000000005,-0.002853,0.015030000000000002,0.018692
248,2.48,0.008046999999999999,0.026701,-0.052246,-0.007111,0.016097999999999998,0.021896000000000002
249,2.49,0.032873,-0.0018080000000000008,-0.049255,-0.014572,0.009705,0.024017
250,2.5,0.059065,-0.050822000000000006,0.022920000000000003,-0.017761000000000002,-0.002014,0.025085
251,2.51,0.05350800000000001,-0.034102,-0.026957,-0.020966,-0.014801,0.01976
252,2.52,0.032010000000000004,-0.053855999999999994,0.016603,-0.023087,-0.021194,0.011246000000000004
253,2.53,0.007377999999999996,-0.062791,0.039202999999999995,-0.018829,-0.02652,0.004852
254,2.54,-0.003994,-0.054162,-0.007529000000000001,-0.016708,-0.031845,-0.004745
255,2.55,0.010033,0.008236,0.012121999999999999,-0.007111,-0.02652,-0.003677
256,2.56,-0.010216,-0.017927000000000002,-0.007613,0.0014040000000000005,-0.01799,-0.0015410000000000005
257,2.57,0.007899,0.003924,0.010443000000000001,0.006729000000000001,-0.004150000000000001,0.008041
258,2.58,0.028837,0.004241000000000001,-0.004478000000000003,0.015259,0.007568000000000001,0.009109
259,2.59,-0.007221000000000002,-0.026789999999999998,0.046697,0.022719999999999997,0.011826,0.011245999999999999
260,2.6,-0.020054,-0.029793,0.010849,0.022719999999999997,0.012894,0.010178
261,2.61,-0.021789,-0.06751900000000001,-0.020442,0.020584,0.0011750000000000007,0.00592
262,2.62,-0.051108999999999995,0.021113999999999997,0.013605,0.009932999999999999,-0.015869,0.006973
263,2.63,-0.004477000000000003,-0.015517,-0.055238,-0.0017849999999999997,-0.030777,0.002716
264,2.64,0.035041,-0.035794,-0.072673,-0.012436,-0.049957,0.00058
265,2.65,0.056434000000000005,-0.012713000000000002,-0.043970999999999996,-0.022034,-0.041428,-0.0004730000000000001
266,2.66,0.078823,0.013335,-0.013883000000000001,-0.028426999999999997,-0.024384,-0.004745
267,2.67,0.054312,0.011984999999999999,0.006849999999999999,-0.027358999999999998,-0.010544,-0.011139
268,2.68,0.031457,-0.044497,0.026535000000000003,-0.024155000000000003,0.008636,-0.010071
269,2.69,0.008130000000000002,-0.038708,0.039381,-0.018829,0.023544,-0.010071
270,2.7,-0.011457,-0.038966,0.068253,-0.014572,0.025681,-0.010071
271,2.71,-0.078669,-0.06474099999999999,0.044823,-0.009247,0.012894,-0.006866
272,2.72,-0.057005999999999994,-0.075665,0.08987200000000001,-0.003922,-0.009476,-0.007935
273,2.73,0.027808,-0.06583,0.152153,0.009932999999999999,-0.024384,-0.010071
274,2.74,0.027141000000000002,0.01985,0.148808,0.028045999999999998,-0.023315,-0.009003
275,2.75,-0.048597,-0.093852,0.144054,0.049347,-0.030777,-0.005797999999999999
276,2.76,-0.018444,-0.061461,0.13309300000000002,0.067459,-0.023315,-0.0004729999999999999
277,2.77,0.045699000000000004,0.009156,0.033405000000000004,0.077042,0.0022429999999999998,-0.0004730000000000001
278,2.78,0.015057,-0.031406,-0.001249,0.075974,0.024612000000000002,-0.0026089999999999998
279,2.79,0.083369,-0.027226999999999998,-0.085345,0.06957999999999999,0.037399,-0.01326
280,2.8,0.053236,0.012471,-0.10314100000000001,0.057861,0.029938,-0.024978999999999998
281,2.81,0.087167,0.001525,-0.11273299999999999,0.042953,0.033142000000000005,-0.037766
282,2.82,0.073857,0.031885000000000004,-0.091209,0.033371,0.017151,-0.047348
283,2.83,0.045752999999999995,0.041319999999999996,-0.037978,0.026978,0.0022429999999999998,-0.053741
284,2.84,-0.046074000000000004,0.024159,-0.045326,0.026978,-0.019058000000000002,-0.048416
285,2.85,-0.166366,-0.015323,-0.046682,0.030167000000000003,-0.043564,-0.028183
286,2.86,-0.20800500000000002,0.017876000000000003,-0.06367,0.032303,-0.057404,0.0005799999999999988
287,2.87,-0.17042000000000002,0.00642,-0.090874,0.025908999999999998,-0.054214,0.035736000000000004
288,2.88,-0.118533,0.055635000000000004,-0.14271199999999998,0.018448,-0.049957,0.060242
289,2.89,-0.052872,0.07524600000000001,-0.17913199999999999,-0.0007170000000000006,-0.043564,0.074097
290,2.9,-0.009986,0.056117999999999994,-0.225098,-0.029480000000000003,-0.035033999999999996,0.07728600000000001
291,2.91,0.073934,0.067946,-0.17901,-0.04866,-0.038238999999999995,0.074097
292,2.92,0.060014,0.090768,-0.123849,-0.066772,-0.046752999999999996,0.068756
293,2.93,0.058534,0.05216900000000001,-0.02547,-0.075287,-0.049957,0.06131
294,2.94,0.049557,0.020368999999999998,0.016035,-0.067841,-0.044632,0.057053
295,2.95,0.028005000000000002,-0.021781000000000002,0.11873399999999999,-0.049727999999999994,-0.030777,0.047455000000000004
296,2.96,0.037592,-0.062452999999999995,0.115668,-0.025223,-0.003082000000000001,0.040008999999999996
297,2.97,0.004049999999999998,-0.030126,0.103496,-0.001785,0.027817,0.040008999999999996
298,2.98,-0.0010860000000000002,-0.014500999999999998,0.12410399999999999,0.020584,0.046981999999999996,0.031479
299,2.99,-0.059618,-0.06651499999999999,0.108377,0.034424,0.045913999999999996,0.025085
300,3.0,-0.001334,-0.08228200000000001,0.050491,0.041885000000000006,0.024612000000000002,0.027222000000000003
301,3.01,0.028149,-0.052591,0.020219,0.035492,-0.010544,0.026154000000000004
302,3.02,0.090443,-0.0071519999999999995,0.0059770000000000005,0.023773,-0.036101999999999995,0.020828
303,3.03,0.099983,0.025174000000000002,0.041297,0.009932999999999999,-0.041428,0.009109
304,3.04,0.063979,0.021234,0.045921,0.005676,-0.043564,0.0005800000000000003
305,3.05,0.023758,-0.078562,0.06585,0.013123,-0.044632,-0.006866
306,3.06,-0.011391999999999998,-0.096468,0.05347999999999999,0.026978,-0.027587999999999998,-0.009003
307,3.07,0.005798000000000003,-0.061908000000000005,0.045146,0.040817,-0.0009460000000000008,-0.014328
308,3.08,0.048648000000000004,-0.076574,0.028945,0.053604,0.019287000000000002,-0.018585
309,3.09,0.023797,-0.051465,-0.031598,0.06639099999999999,0.033142000000000005,-0.027114999999999997
310,3.1,0.032878,-0.040419,-0.076159,0.070648,0.034194999999999996,-0.037766
311,3.11,0.057936,0.027712999999999998,-0.112376,0.061065999999999995,0.037399,-0.040955
312,3.12,-0.011735999999999995,0.066756,-0.168014,0.044022000000000006,0.036331,-0.039886000000000005
313,3.13,-0.041634,0.073435,-0.14063900000000001,0.018448,0.027817,-0.031372000000000004
314,3.14,-0.040481,-0.003328,-0.11729300000000001,-0.003922000000000001,0.007568000000000001,-0.023911
315,3.15,-0.011343,0.029849,-0.052326,-0.026291000000000002,-0.007339000000000002,-0.015396
316,3.16,-0.007631999999999999,0.063056,-0.003838999999999999,-0.039077999999999995,-0.020125999999999998,-0.014328
317,3.17,0.013123,0.008808000000000003,0.079201,-0.034805,-0.015869,-0.014328
318,3.18,-0.008584999999999999,-0.003526000000000001,0.137638,-0.019897,-0.010544,-0.017516999999999998
319,3.19,-7.800000000000168e-05,0.008125999999999998,0.154531,0.005676,-0.0009459999999999998,-0.018585
320,3.2,0.010136,-0.023893,0.130922,0.033371,0.012894,-0.017516999999999998
321,3.21,-0.036922,0.044893,0.058005999999999995,0.050414999999999995,0.026749000000000002,-0.016464
322,3.22,-0.048774,0.01865,0.022306,0.061065999999999995,0.024612000000000002,-0.007935
323,3.23,-0.039845,0.032307999999999996,-0.088613,0.054672000000000005,0.022491,0.002715999999999999
324,3.24,-0.007495999999999999,0.044507,-0.11741199999999999,0.035492,0.006500000000000001,0.011245999999999999
325,3.25,0.029586,0.040320999999999996,-0.135947,0.011002,-0.0030820000000000005,0.012299
326,3.26,0.031695999999999995,0.034692,-0.094898,-0.020966,-0.011612,0.011245999999999999
327,3.27,0.024435,0.022316,-0.042972,-0.044403,-0.019058000000000002,0.011245999999999999
328,3.28,0.021634999999999998,0.058438,0.09525299999999999,-0.050797,-0.027587999999999998,0.013366999999999999
329,3.29,0.085667,0.029695999999999997,0.165192,-0.031616000000000005,-0.044632,0.014435
330,3.3,0.115157,0.032831,0.17603,-0.0007169999999999988,-0.049957,0.011245999999999999
331,3.31,0.138956,0.024003,0.11962300000000001,0.038696,-0.042496,0.002716
332,3.32,0.128938,0.016285,0.037755000000000004,0.073853,-0.025452000000000002,-0.01326
333,3.33,0.096954,0.0013379999999999998,-0.064323,0.094086,-0.0009459999999999988,-0.029236
334,3.34,0.06741699999999999,0.017612999999999997,-0.157797,0.101547,0.023544,-0.03244
335,3.35,0.016755000000000003,0.028283999999999997,-0.20432899999999998,0.09301799999999999,0.029938,-0.030304
336,3.36,-0.010918,0.020017,-0.276864,0.06957999999999999,0.029938,-0.02179
337,3.37,-0.04821,0.056105999999999996,-0.25678,0.033371,0.022491,-0.012192
338,3.38,-0.034747,0.048469,-0.22871,-0.010314999999999998,0.007568000000000001,-0.0026089999999999998
339,3.39,-0.008627,0.059641,-0.20915300000000003,-0.051849,-0.012665000000000001,0.0016479999999999995
340,3.4,-0.002429000000000001,0.023641,-0.1216,-0.077423,-0.036101999999999995,0.0005800000000000003
341,3.41,0.043605,0.009807999999999999,-0.02393,-0.09553500000000001,-0.053146000000000006,-0.003677
342,3.42,0.030223000000000003,-0.010695,0.129363,-0.083817,-0.041428,-0.003677
343,3.43,-0.013635,-0.030080000000000003,0.14795999999999998,-0.055054,-0.025452000000000002,-0.007935
344,3.44,-0.047751999999999996,-0.080074,0.173429,-0.013504,-0.01799,-0.012192
345,3.45,-0.040125,-0.099945,0.163671,0.029099,0.013962,-0.017516999999999998
346,3.46,0.006063000000000001,-0.053689999999999995,0.08186900000000001,0.057861,0.054443,-0.020721
347,3.47,-0.034351,-0.001332,0.004505000000000002,0.073853,0.073624,-0.027114999999999997
348,3.48,-0.083341,-0.028341,-0.051422,0.079178,0.07041900000000001,-0.027114999999999997
349,3.49,-0.059598000000000005,0.0017050000000000017,-0.090211,0.06957999999999999,0.054443,-0.018585
350,3.5,-0.048826999999999995,0.006745,-0.18675899999999998,0.044022000000000006,0.032074,-0.011139
351,3.51,-0.015552000000000002,0.022732,-0.191921,0.007796999999999998,0.007568000000000001,-0.011139
352,3.52,-0.042526,0.017819999999999996,-0.211125,-0.025222999999999995,-0.013733,-0.004745
353,3.53,-0.030913,0.012193,-0.154901,-0.053986,-0.021194,0.0037840000000000005
354,3.54,-0.049861,0.0006389999999999997,-0.136463,-0.077423,-0.020125999999999998,0.006973
355,3.55,-0.029276999999999997,0.020818000000000003,-0.021276000000000003,-0.093399,-0.010544,0.010178
356,3.56,-0.016106,0.045346,0.061016999999999995,-0.091263,-0.002014,0.009109
357,3.57,-0.053666,0.029684,0.14566099999999998,-0.075287,0.004379,0.0037840000000000005
358,3.58,-0.07443999999999999,0.047493,0.176829,-0.050797,0.011826,0.008041
359,3.59,-0.06783600000000001,0.07678099999999999,0.18843,-0.025223,0.015030000000000002,0.014435
360,3.6,-0.057977,0.076859,0.164347,0.002472,0.009705,0.022964
361,3.61,-0.0021260000000000033,0.067775,0.11033299999999999,0.024841,0.005447,0.033615
362,3.62,0.005186000000000003,0.037381,0.015849000000000002,0.037627999999999995,0.0022429999999999998,0.035736000000000004
363,3.63,0.001698,0.025596999999999998,-0.061128999999999996,0.032303,0.0065,0.032547
364,3.64,0.004584999999999999,0.05329,-0.094997,0.020584,0.0022429999999999998,0.024017
365,3.65,0.014252,0.037218,-0.111228,0.00354,0.00010699999999999988,0.011245999999999999
366,3.66,-0.037754,0.083389,-0.10392699999999999,-0.014571999999999996,-0.00415,0.010178
367,3.67,-0.090632,0.065868,-0.07253899999999999,-0.026291000000000002,-0.013733,0.014435
368,3.68,-0.068632,0.070885,-0.076903,-0.032684,-0.023315,0.024017
369,3.69,-0.08665199999999999,0.064461,-0.066824,-0.042267,-0.021194,0.037872
370,3.7,-0.07911499999999999,0.058887,-0.060788,-0.051849,-0.011612,0.055984000000000006
371,3.71,-0.039847,0.050797,-0.024773,-0.053986,-0.015869,0.070892
372,3.72,0.008048999999999999,0.012192,0.005212,-0.044403,-0.02652,0.079422
373,3.73,0.055597,-0.027993999999999998,0.001358999999999999,-0.035873,-0.02652,0.07515
374,3.74,0.067992,-0.01133,0.018086999999999995,-0.030548000000000002,-0.006270999999999999,0.063431
375,3.75,0.08555499999999999,0.005906000000000001,0.041732,-0.025223,0.011826,0.045334
376,3.76,0.053916,0.001029,0.117249,-0.01564,0.034194999999999996,0.029343
377,3.77,0.025548000000000005,0.05579099999999999,0.139945,-0.016708,0.064026,0.018692
378,3.78,-0.003324,0.102601,0.21369000000000002,-0.017761000000000002,0.074677,0.017624
379,3.79,-0.061665,0.111455,0.288657,-0.026291000000000002,0.09704600000000001,0.025085
380,3.8,-0.035879,0.13842100000000002,0.361055,-0.040131,0.121552,0.041061
381,3.81,-0.068987,0.122,0.464542,-0.050797,0.136475,0.050658999999999996
382,3.82,-0.06996799999999999,0.16742100000000001,0.591444,-0.058242999999999996,0.135406,0.057053
383,3.83,-0.047224,0.162614,0.673924,-0.053986,0.09704600000000001,0.064499
384,3.84,0.021100999999999998,0.157588,0.684941,-0.031616000000000005,0.02142299999999999,0.070892
385,3.85,0.06669,0.126244,0.6156659999999999,0.011002,-0.076584,0.073029
386,3.86,0.10351199999999999,0.077146,0.44299399999999994,0.068512,-0.160736,0.067703
387,3.87,0.193656,0.007803000000000002,0.161464,0.132431,-0.204422,0.053848
388,3.88,0.257762,0.017093999999999998,-0.125052,0.179306,-0.178848,0.037872
389,3.89,0.243619,-0.037045,-0.378303,0.201675,-0.098953,0.022964
390,3.9,0.24377100000000002,0.008676999999999999,-0.585044,0.19528199999999998,-0.004150000000000001,0.014435
391,3.91,0.18984700000000002,0.039721,-0.669341,0.165451,0.059769,0.01976
392,3.92,0.101703,-0.010504000000000001,-0.7204,0.11538699999999999,0.090668,0.038939999999999995
393,3.93,0.056077999999999996,-0.059004999999999995,-0.756714,0.050414999999999995,0.07788099999999999,0.063431
394,3.94,0.09400399999999999,-0.079319,-0.7438239999999999,-0.010314999999999998,0.045913999999999996,0.086868
395,3.95,0.132768,-0.012925999999999998,-0.693762,-0.049727999999999994,0.031006,0.10497999999999999
396,3.96,0.189443,-0.08920700000000001,-0.623394,-0.080612,0.003311000000000001,0.124161
397,3.97,0.235945,-0.073276,-0.56457,-0.092331,-0.040359,0.132675
398,3.98,0.331654,-0.06873,-0.604445,-0.091263,-0.067001,0.130554
399,3.99,0.402454,-0.004992999999999997,-0.598169,-0.077423,-0.057404,0.12309300000000001
400,4.0,0.408722,0.036371,-0.5892350000000001,-0.058242999999999996,-0.020125999999999998,0.11456300000000001
401,4.01,0.39362199999999997,0.035541,-0.672678,-0.046524,0.050186000000000015,0.11350999999999999
402,4.02,0.363833,0.094611,-0.643204,-0.041199,0.119431,0.118835
403,4.03,0.321965,0.098571,-0.596627,-0.043335000000000005,0.183334,0.133743
404,4.04,0.283641,0.026822000000000002,-0.520022,-0.057175,0.219559,0.15078699999999998
405,4.05,0.315337,0.017977,-0.41081899999999993,-0.061447,0.248322,0.157181
406,4.06,0.313397,0.069154,-0.352306,-0.053986,0.25151100000000004,0.15931700000000001
407,4.07,0.326678,0.054338,-0.23453400000000002,-0.041199,0.228073,0.15399200000000002
408,4.08,0.314483,0.089689,-0.271568,-0.020966,0.187607,0.152924
409,4.09,0.338124,0.15613,-0.29517,0.004608,0.156708,0.156113
410,4.1,0.360509,0.125711,-0.362199,0.018448,0.123688,0.158249
411,4.11,0.390017,0.124767,-0.45052700000000007,0.025908999999999998,0.09811399999999999,0.16037
412,4.12,0.41031599999999996,0.072969,-0.579146,0.035492,0.07041900000000001,0.147598
413,4.13,0.382364,0.089034,-0.6840069999999999,0.037627999999999995,0.072556,0.125229
414,4.14,0.266921,0.062582,-0.7354890000000001,0.01738,0.116226,0.107117
415,4.15,0.20687600000000003,0.172735,-0.676623,-0.011382999999999999,0.18866,0.10072300000000001
416,4.16,0.071564,0.177017,-0.53678,-0.023087,0.25151100000000004,0.106049
417,4.17,-0.018551,0.11238499999999998,-0.393005,-0.024155000000000003,0.29731799999999997,0.132675
418,4.18,-0.045079,0.062556,-0.23948000000000003,-0.017761000000000002,0.321823,0.163574
419,4.19,-0.09977799999999999,0.019344999999999998,-0.13407,-0.0060420000000000005,0.314362,0.185944
420,4.2,-0.12883699999999998,-0.101911,-0.084489,-0.003922,0.281342,0.20192000000000002
421,4.21,-0.101038,-0.149837,-0.035054,-0.007111,0.245117,0.19873
422,4.22,-0.17202,-0.22316399999999997,-0.024627,0.002472,0.187607,0.194458
423,4.23,-0.22145700000000001,-0.257344,-0.041662,0.007797,0.115158,0.185944
424,4.24,-0.18934600000000001,-0.052623,-0.07431499999999999,0.023773,0.042725,0.181686
425,4.25,-0.19955499999999998,0.0077879999999999954,-0.17485,0.05146799999999999,-0.012664999999999996,0.17955
426,4.26,-0.24059499999999998,0.108203,-0.278564,0.077042,-0.053146000000000006,0.178482
427,4.27,-0.269125,0.16132,-0.43494799999999995,0.100479,-0.07872,0.18808
428,4.28,-0.230679,0.233779,-0.57191,0.110062,-0.067001,0.19766199999999998
429,4.29,-0.224663,0.35381799999999997,-0.692505,0.100479,-0.024384,0.206177
430,4.3,-0.22201300000000002,0.361691,-0.712501,0.081299,0.013962,0.21044899999999997
431,4.31,-0.286591,0.432447,-0.787816,0.047211,0.04805,0.21363800000000002
432,4.32,-0.254803,0.466117,-0.750725,-0.0028530000000000014,0.064026,0.215775
433,4.33,-0.254414,0.527857,-0.594767,-0.049728000000000015,0.073624,0.20938099999999998
434,4.34,-0.187915,0.5568069999999999,-0.473308,-0.084885,0.075745,0.19766199999999998
435,4.35,-0.263777,0.567292,-0.341688,-0.10405,0.05658,0.176361
436,4.36,-0.305838,0.555511,-0.28028200000000003,-0.110443,0.021422999999999998,0.144394
437,4.37,-0.338561,0.612621,-0.345842,-0.113647,-0.006271,0.11350999999999999
438,4.38,-0.431119,0.635038,-0.358293,-0.128555,-0.014801,0.09219400000000001
439,4.39,-0.464789,0.657285,-0.45324,-0.148788,-0.011612,0.076218
440,4.4,-0.5100399999999999,0.6612399999999999,-0.495857,-0.169037,-0.008408,0.07196
441,4.41,-0.47021999999999997,0.6927399999999999,-0.540964,-0.190338,-0.003082,0.07515
442,4.42,-0.394916,0.672492,-0.606822,-0.21377600000000002,0.005447,0.076218
443,4.43,-0.34663299999999997,0.6517,-0.60452,-0.24147,0.012894,0.076218
444,4.44,-0.321835,0.659147,-0.64241,-0.256393,-0.006271,0.07196
445,4.45,-0.308646,0.635672,-0.633602,-0.255325,-0.040359,0.06131
446,4.46,-0.303358,0.6625270000000001,-0.643824,-0.24572800000000003,-0.075516,0.044266
447,4.47,-0.32227100000000003,0.6619970000000001,-0.66352,-0.229752,-0.098953,0.026154000000000004
448,4.48,-0.348004,0.734823,-0.750933,-0.20845,-0.109604,0.010178
449,4.49,-0.31800500000000004,0.8447540000000001,-0.780284,-0.183945,-0.107483,-0.0004730000000000003
450,4.5,-0.39818899999999996,0.806053,-0.796722,-0.148788,-0.098953,-0.0004730000000000001
451,4.51,-0.458261,0.760727,-0.876408,-0.118973,-0.069122,0.0037840000000000005
452,4.52,-0.432205,0.828818,-0.891749,-0.09979199999999999,-0.041428,0.00592
453,4.53,-0.435176,0.892868,-0.816198,-0.093399,-0.013733,0.015503
454,4.54,-0.511101,0.8148270000000001,-0.680739,-0.089142,-0.003082,0.020828
455,4.55,-0.610375,0.7004560000000001,-0.537139,-0.08167999999999999,-0.019058000000000002,0.025085
456,4.56,-0.693893,0.6780619999999999,-0.30587600000000004,-0.07103,-0.069122,0.031479
457,4.57,-0.746632,0.566103,-0.120298,-0.042267,-0.139435,0.036804
458,4.58,-0.799495,0.535837,0.028448,0.0003359999999999995,-0.184174,0.035736000000000004
459,4.59,-0.80332,0.43882,0.127795,0.06425499999999999,-0.22358699999999998,0.031479
460,4.6,-0.7994439999999999,0.440279,0.130403,0.13563499999999998,-0.20761100000000002,0.024017
461,4.61,-0.6920609999999999,0.435191,0.065804,0.219788,-0.146896,0.010178
462,4.62,-0.603564,0.5339109999999999,-0.016266999999999997,0.291153,-0.040359,-0.014328
463,4.63,-0.5702020000000001,0.5874119999999999,-0.133865,0.342285,0.043793,-0.044159
464,4.64,-0.53487,0.674675,-0.120652,0.362534,0.10450699999999999,-0.061203
465,4.65,-0.440933,0.777485,-0.118598,0.351883,0.163101,-0.073975
466,4.66,-0.42979700000000004,0.794667,-0.049311,0.319916,0.17161600000000002,-0.08569299999999999
467,4.67,-0.471128,0.631337,0.029869,0.284775,0.135406,-0.104874
468,4.68,-0.485874,0.652596,0.12648299999999998,0.241089,0.069351,-0.127243
469,4.69,-0.359793,0.672401,0.227665,0.199554,0.004379000000000001,-0.147491
470,4.7,-0.268144,0.660778,0.287393,0.16758699999999999,-0.049957,-0.174118
471,4.71,-0.192277,0.66447,0.34057,0.143082,-0.097885,-0.199677
472,4.72,-0.135576,0.773594,0.36854899999999996,0.106873,-0.11813399999999999,-0.22311399999999998
473,4.73,-0.064937,0.749948,0.383351,0.079178,-0.124527,-0.242294
474,4.74,0.026292000000000003,0.706032,0.40027199999999996,0.050414999999999995,-0.11280799999999999,-0.25827
475,4.75,0.09296,0.701049,0.374052,0.008864999999999998,-0.068069,-0.277451
476,4.76,0.162632,0.7053189999999999,0.443716,-0.032684,-0.028656,-0.310471
477,4.77,0.10712200000000001,0.624458,0.6019899999999999,-0.065704,-0.025452000000000002,-0.358414
478,4.78,9.200000000000179e-05,0.567353,0.7522270000000001,-0.085938,-0.036101999999999995,-0.399948
479,4.79,-0.036588999999999997,0.5308609999999999,0.886912,-0.091263,-0.053146000000000006,-0.423386
480,4.8,-0.035685,0.49492700000000006,0.9123979999999999,-0.07421900000000001,-0.08830299999999999,-0.44149799999999995
481,4.81,-0.014486,0.470365,0.873684,-0.051849,-0.11174,-0.45428500000000005
482,4.82,-0.009259999999999996,0.461642,0.745525,-0.03801,-0.104279,-0.457474
483,4.83,-0.0007479999999999988,0.361556,0.672784,-0.027358999999999998,-0.087234,-0.45214799999999994
484,4.84,-0.056902,0.13635800000000006,0.5860569999999999,-0.016708,-0.07872,-0.42658999999999997
485,4.85,-0.113685,-0.11551600000000001,0.53475,-0.011382999999999999,-0.069122,-0.392502
486,4.86,-0.046443999999999985,-0.41566899999999996,0.46924499999999997,-0.010315000000000001,-0.073395,-0.353088
487,4.87,0.072744,-0.6215109999999999,0.476579,-0.00499,-0.10321,-0.323257
488,4.88,0.194652,-0.8299129999999999,0.518965,0.035492,-0.15329,-0.300888
489,4.89,0.328268,-1.0316100000000001,0.468524,0.104736,-0.23851,-0.29023699999999997
490,4.9,0.499404,-1.155823,0.282898,0.183563,-0.312012,-0.289169
491,4.91,0.700009,-1.1733790000000002,0.01874400000000001,0.267731,-0.336517,-0.300888
492,4.92,0.8974530000000001,-1.103618,-0.184799,0.327377,-0.302429,-0.33284
493,4.93,0.997949,-1.0418209999999999,-0.4499190000000001,0.36146500000000004,-0.222534,-0.377579
494,4.94,1.054042,-0.955024,-0.589747,0.365723,-0.108551,-0.425522
495,4.95,1.125621,-0.72554,-0.665164,0.352951,-0.015869,-0.457474
496,4.96,1.135705,-0.580994,-0.7163149999999999,0.325241,0.046981999999999996,-0.46493500000000004
497,4.97,1.056548,-0.435569,-0.711424,0.27731300000000003,0.082138,-0.45428500000000005
498,4.98,0.98862,-0.378533,-0.714727,0.21232600000000001,0.078949,-0.434036
499,4.99,0.838031,-0.388911,-0.707901,0.140961,0.026749000000000002,-0.404221
500,5.0,0.69228,-0.469761,-0.618632,0.062134,-0.027587999999999998,-0.36692800000000003
501,5.01,0.58306,-0.5257970000000001,-0.562665,-0.016708000000000004,-0.06274400000000001,-0.324326
502,5.02,0.414487,-0.609969,-0.515649,-0.09021,-0.08190900000000001,-0.29982
503,5.03,0.29628699999999997,-0.680442,-0.379887,-0.162643,-0.082977,-0.281708
504,5.04,0.24356399999999997,-0.616258,-0.283698,-0.21696500000000002,-0.071259,-0.257202
505,5.05,0.143468,-0.5576409999999999,-0.12006099999999999,-0.251053,-0.060608,-0.239105
506,5.06,0.074374,-0.478404,-0.020329,-0.27449,-0.040359,-0.208206
507,5.07,0.080592,-0.45396800000000004,0.118122,-0.27555799999999997,-0.049957,-0.165588
508,5.08,0.125027,-0.37993000000000005,0.16359,-0.255325,-0.08404500000000001,-0.11766099999999999
509,5.09,0.251132,-0.31090500000000004,0.130883,-0.223358,-0.13092,-0.068649
510,5.1,0.401658,-0.276607,0.073255,-0.18927,-0.16394,-0.024978999999999998
511,5.11,0.590757,-0.271328,-0.011227999999999998,-0.161575,-0.19056700000000001,-0.0026089999999999998
512,5.12,0.739246,-0.200561,-0.090838,-0.140274,-0.20654299999999998,0.004852
513,5.13,0.8492540000000001,-0.21476900000000002,-0.128222,-0.120026,-0.220398,-0.006865999999999999
514,5.14,0.8764719999999999,-0.242556,-0.144931,-0.091263,-0.227859,-0.03244
515,5.15,0.8671260000000001,-0.214633,-0.144457,-0.050797,-0.220398,-0.061203
516,5.16,0.790778,-0.16326300000000002,-0.184091,-0.003922000000000003,-0.19696,-0.088898
517,5.17,0.6740659999999999,-0.094448,-0.192651,0.038696,-0.14582799999999999,-0.10594200000000001
518,5.18,0.5840420000000001,0.033237,-0.287202,0.075974,-0.089371,-0.103806
519,5.19,0.488993,0.213394,-0.34421399999999996,0.106873,-0.055283000000000006,-0.091019
520,5.2,0.395438,0.287491,-0.45898999999999995,0.11965899999999999,-0.041428,-0.06546
521,5.21,0.26222199999999996,0.372581,-0.5292180000000001,0.105804,-0.043564,-0.031372000000000004
522,5.22,0.20690999999999998,0.393312,-0.602491,0.073853,-0.06486499999999999,0.013366999999999999
523,5.23,0.067485,0.35704400000000003,-0.5775859999999999,0.023773,-0.08616599999999999,0.06131
524,5.24,0.023978,0.317758,-0.5474220000000001,-0.035873,-0.09256,0.10497999999999999
525,5.25,-0.026149000000000002,0.264308,-0.45956,-0.08167999999999999,-0.105347,0.14546199999999998
526,5.26,0.047830000000000004,0.204771,-0.35843600000000003,-0.110443,-0.121323,0.184875
527,5.27,0.170959,0.19538,-0.278378,-0.109375,-0.13304100000000002,0.211502
528,5.28,0.224598,0.116225,-0.260422,-0.07635499999999999,-0.13410899999999998,0.23068200000000003
529,5.29,0.29791999999999996,0.066606,-0.29686799999999997,-0.035873,-0.115997,0.237076
530,5.3,0.293197,-0.025912,-0.37803400000000004,0.012054,-0.098953,0.237076
531,5.31,0.278181,-0.036019,-0.40860599999999997,0.041885000000000006,-0.058472,0.23388699999999998
532,5.32,0.25251999999999997,-0.033125,-0.406968,0.059998,-0.011611999999999996,0.23494
533,5.33,0.220333,-0.092395,-0.311224,0.068512,0.035263,0.232819
534,5.34,0.294243,-0.036445,-0.220241,0.071716,0.082138,0.23068200000000003
535,5.35,0.318554,0.014084000000000001,-0.064965,0.072784,0.119431,0.22749299999999997
536,5.36,0.34363499999999997,0.072179,0.008827999999999999,0.084503,0.139664,0.223221
537,5.37,0.348624,0.05809500000000001,0.063335,0.100479,0.148178,0.228546
538,5.38,0.38571700000000003,0.062901,0.114418,0.10261500000000001,0.157776,0.22749299999999997
539,5.39,0.388917,0.049246,0.164171,0.098343,0.181213,0.224289
540,5.4,0.333825,0.053665,0.252388,0.086624,0.200378,0.21363800000000002
541,5.41,0.316161,0.05818400000000001,0.410689,0.077042,0.20144700000000001,0.20724499999999998
542,5.42,0.305163,0.020087,0.569952,0.085556,0.184402,0.195526
543,5.43,0.344698,0.06626900000000001,0.6120180000000001,0.106873,0.152451,0.180618
544,5.44,0.5796359999999999,0.23988,0.712605,0.133499,0.137527,0.161438
545,5.45,0.841305,0.503628,0.824965,0.16758699999999999,0.1418,0.13694800000000001
546,5.46,0.8557239999999999,0.56645,0.81825,0.21020500000000003,0.157776,0.09219400000000001
547,5.47,0.804559,0.542867,0.754134,0.225113,0.195053,0.046387
548,5.48,0.786354,0.728997,0.788928,0.22192399999999998,0.24725300000000003,0.010178
549,5.49,0.649275,0.887906,0.829385,0.20700100000000002,0.322891,-0.006866
550,5.5,0.39747,0.90979,0.934894,0.169724,0.411301,0.012299
551,5.51,0.049873,0.809813,0.9823360000000001,0.131363,0.483749,0.052779999999999994
552,5.52,-0.235907,0.609727,1.0906129999999998,0.08982799999999999,0.511444,0.111374
553,5.53,-0.47801000000000005,0.445011,1.209216,0.047211,0.524231,0.19233699999999998
554,5.54,-0.613698,0.221786,1.218651,0.016327,0.49758900000000006,0.27116399999999996
555,5.55,-0.704288,-0.093298,1.252546,0.006729000000000001,0.4422,0.34786999999999996
556,5.56,-0.746779,-0.45483500000000004,1.104171,0.023773,0.34419299999999997,0.40538
557,5.57,-0.7454390000000001,-0.740509,0.932377,0.06318700000000001,0.20677199999999998,0.451187
558,5.58,-0.6300319999999999,-0.879129,0.5959840000000001,0.08876,0.069351,0.46929899999999997
559,5.59,-0.41276499999999994,-0.8815200000000001,0.200803,0.104736,-0.06274400000000001,0.46078500000000006
560,5.6,-0.173056,-0.7495649999999999,-0.111839,0.10261500000000001,-0.150085,0.43414300000000006
561,5.61,-0.098365,-0.635456,-0.338123,0.08769199999999999,-0.139435,0.401123
562,5.62,-0.03715,-0.546804,-0.47298,0.071716,-0.074448,0.379822
563,5.63,-0.053748000000000004,-0.407538,-0.509675,0.06425499999999999,0.010772999999999998,0.359573
564,5.64,0.0006849999999999981,-0.24722199999999997,-0.414228,0.058928999999999995,0.111969,0.357452
565,5.65,-0.005873999999999999,-0.11061099999999999,-0.286892,0.06318700000000001,0.235535,0.363846
566,5.66,-0.092877,-0.10179400000000001,-0.14109100000000002,0.077042,0.319687,0.358521
567,5.67,-0.17103800000000002,-0.17938099999999998,-0.029966000000000003,0.082367,0.383606,0.354248
568,5.68,-0.237196,-0.220108,0.015954,0.073853,0.41876199999999997,0.340408
569,5.69,-0.323833,-0.298564,0.071008,0.039764,0.435806,0.32016
570,5.7,-0.49831800000000004,-0.384017,0.093507,-0.013503999999999999,0.41557299999999997,0.290344
571,5.71,-0.6283449999999999,-0.46240299999999995,0.14456,-0.079559,0.370819,0.263702
572,5.72,-0.697041,-0.41431899999999994,0.117584,-0.154114,0.30052199999999996,0.24559
573,5.73,-0.812268,-0.47118699999999997,0.23716500000000001,-0.214844,0.218491,0.24240100000000003
574,5.74,-0.867294,-0.5115460000000001,0.23437600000000003,-0.261719,0.151382,0.259445
575,5.75,-0.9224120000000001,-0.6374029999999999,0.26265,-0.27876300000000004,0.090668,0.288208
576,5.76,-0.80669,-0.755023,0.238378,-0.271301,0.04805,0.321228
577,5.77,-0.596129,-0.808291,0.149697,-0.235077,0.017151,0.344666
578,5.78,-0.35402,-0.8620399999999999,0.051939,-0.181824,0.016097999999999998,0.342529
579,5.79,-0.162973,-0.861402,-0.14373,-0.120026,0.026749000000000002,0.32016
580,5.8,0.033817,-0.8800870000000001,-0.28775,-0.061447,0.049118,0.277557
581,5.81,0.190355,-0.7229180000000001,-0.468246,-0.022034,0.086395,0.22216799999999998
582,5.82,0.279679,-0.63765,-0.564623,0.008865000000000001,0.106644,0.15931700000000001
583,5.83,0.301716,-0.5278930000000001,-0.6746810000000001,0.029099,0.127945,0.10391199999999999
584,5.84,0.277124,-0.395448,-0.68014,0.040817,0.157776,0.067703
585,5.85,0.17449899999999996,-0.28824099999999997,-0.7086600000000001,0.041885000000000006,0.191864,0.036804
586,5.86,0.065727,-0.207096,-0.6529560000000001,0.030167000000000003,0.22701999999999997,0.020828
587,5.87,-0.03704,-0.099195,-0.622801,0.018448,0.24725300000000003,0.025085
588,5.88,-0.093319,-0.077123,-0.501995,0.002472,0.25364699999999996,0.029343
589,5.89,-0.131294,-0.070924,-0.462012,-0.013503999999999999,0.232346,0.030411
590,5.9,-0.241882,-0.046354,-0.46216999999999997,-0.030548000000000002,0.183334,0.024017
591,5.91,-0.27542,-0.09193,-0.51474,-0.047592,0.119431,0.027222000000000003
592,5.92,-0.294163,-0.098419,-0.588925,-0.069962,0.058700999999999996,0.035736000000000004
593,5.93,-0.307107,-0.10117899999999999,-0.671074,-0.10192899999999999,0.016097999999999998,0.047455000000000004
594,5.94,-0.197985,-0.137471,-0.7628689999999999,-0.139206,-0.00415,0.064499
595,5.95,-0.104844,-0.219217,-0.811144,-0.173294,-0.011612,0.080475
596,5.96,0.03248199999999999,-0.225706,-0.714795,-0.20951799999999998,0.010773,0.078354
597,5.97,0.13458599999999998,-0.18474300000000002,-0.6110399999999999,-0.23934899999999998,0.037399,0.060242
598,5.98,0.11704300000000001,-0.179477,-0.353171,-0.235077,0.038467,0.020828
599,5.99,0.024243,-0.221306,-0.169363,-0.215912,0.024612000000000002,-0.016464
600,6.0,0.06925,-0.170471,0.11190300000000003,-0.170105,-0.004149999999999999,-0.048416
601,6.01,0.079124,-0.055854999999999995,0.24863200000000002,-0.09765599999999999,-0.03717,-0.091019
602,6.02,0.08013200000000001,-0.0052840000000000005,0.310708,-0.003922000000000003,-0.082977,-0.136826
603,6.03,0.036693,0.15145300000000006,0.265504,0.08982799999999999,-0.121323,-0.183701
604,6.04,0.019965,0.363631,0.16910799999999998,0.16333,-0.135178,-0.22950700000000002
605,6.05,-0.012435999999999996,0.586084,0.050210000000000005,0.211258,-0.127716,-0.26040599999999997
606,6.06,-0.159997,0.743063,-0.088088,0.22724899999999998,-0.094696,-0.271057
607,6.07,-0.28330500000000003,0.8596280000000001,-0.097629,0.213394,-0.051025,-0.250809
608,6.08,-0.408403,1.0110540000000001,-0.090567,0.172913,-0.023315,-0.20606999999999998
609,6.09,-0.500909,0.9362010000000001,-0.029019999999999997,0.128174,-0.015869,-0.143219
610,6.1,-0.47597799999999996,0.8990889999999999,0.055243000000000014,0.074905,-0.028656,-0.080368
611,6.11,-0.516284,0.7977310000000001,0.197133,0.021652,-0.061676,-0.022841999999999998
612,6.12,-0.49926899999999996,0.642124,0.28922600000000004,-0.030548000000000002,-0.13410899999999998,0.022964
613,6.13,-0.42213900000000004,0.5202359999999999,0.333059,-0.072098,-0.24809299999999998,0.038939999999999995
614,6.14,-0.33059,0.387497,0.338854,-0.09979199999999999,-0.386581,0.036804
615,6.15,-0.23572800000000002,0.264805,0.318335,-0.107254,-0.50589,0.016571000000000002
616,6.16,-0.16559300000000002,0.154803,0.262716,-0.088074,-0.588974,-0.011139
617,6.17,-0.070387,0.08223999999999998,0.149847,-0.049727999999999994,-0.618805,-0.026047000000000004
618,6.18,0.035424000000000004,0.030360000000000005,-0.0026700000000000053,0.008864999999999998,-0.592178,-0.022841999999999998
619,6.19,0.399138,0.13302900000000006,-0.09943300000000001,0.058928999999999995,-0.49523900000000004,-0.031372000000000004
620,6.2,0.821464,0.370141,0.10182999999999999,0.099411,-0.291763,-0.045226999999999996
621,6.21,1.016095,0.489171,0.456067,0.1548,-0.067001,-0.102737
622,6.22,0.976986,0.39622199999999996,0.729012,0.220856,0.035263,-0.232712
623,6.23,0.8652290000000001,0.48369799999999996,1.010083,0.269852,0.071487,-0.37651100000000004
624,6.24,0.725292,0.669345,1.351038,0.289032,0.09811399999999999,-0.50116
625,6.25,0.327022,0.722441,1.6414939999999998,0.271988,0.136475,-0.601288
626,6.26,-0.198219,0.636633,1.8946919999999998,0.23257399999999998,0.1418,-0.648163
627,6.27,-0.62551,0.50284,2.083065,0.189957,0.092789,-0.6321869999999999
628,6.28,-0.8669209999999999,0.37701999999999997,2.139751,0.164398,-0.002013999999999995,-0.5501560000000001
629,6.29,-1.029923,0.0466,2.04793,0.165451,-0.162872,-0.424454
630,6.3,-0.9657049999999999,-0.40683600000000003,1.789768,0.18676800000000002,-0.35675,-0.289169
631,6.31,-0.7056439999999999,-0.6876720000000001,1.374609,0.219788,-0.5687409999999999,-0.177307
632,6.32,-0.328927,-0.969051,0.866609,0.26239,-0.770065,-0.12831099999999998
633,6.33,0.008421000000000012,-1.200687,0.41797399999999996,0.269852,-0.870209,-0.16026300000000002
634,6.34,0.437089,-1.059883,0.087338,0.250687,-0.853165,-0.252945
635,6.35,0.7011310000000001,-0.792098,-0.153451,0.234695,-0.729599,-0.372253
636,6.36,0.8292790000000001,-0.593298,-0.296612,0.228302,-0.548492,-0.483047
637,6.37,0.716972,-0.405161,-0.310103,0.23896799999999999,-0.351425,-0.560806
638,6.38,0.523231,-0.28829099999999996,-0.35925,0.245346,-0.16713,-0.5853119999999999
639,6.39,0.297511,-0.24231100000000003,-0.393896,0.23683200000000001,-0.053146000000000006,-0.5640109999999999
640,6.4,0.126603,-0.178979,-0.5757909999999999,0.202744,-0.022262999999999998,-0.500092
641,6.41,0.031889,-0.186281,-0.6463949999999999,0.127106,-0.027587999999999998,-0.405273
642,6.42,0.014752000000000001,-0.278468,-0.7849,0.021652000000000005,-0.063797,-0.30728099999999997
643,6.43,0.014024000000000002,-0.43976499999999996,-0.8439639999999999,-0.100861,-0.140503,-0.219925
644,6.44,0.119332,-0.531196,-0.8588600000000001,-0.236145,-0.21614099999999997,-0.151749
645,6.45,0.181608,-0.6104390000000001,-0.729767,-0.366104,-0.276855,-0.10594200000000001
646,6.46,0.270572,-0.670802,-0.592804,-0.46624799999999994,-0.298157,-0.080368
647,6.47,0.310818,-0.668921,-0.359796,-0.535492,-0.2939,-0.069717
648,6.48,0.338252,-0.598461,-0.122629,-0.56105,-0.268326,-0.060135
649,6.49,0.308628,-0.48968900000000004,0.093187,-0.5504,-0.263,-0.047348
650,6.5,0.29186100000000004,-0.469055,0.24738200000000002,-0.507782,-0.266205,-0.018585
651,6.51,0.300518,-0.47333000000000003,0.374305,-0.435349,-0.28536999999999996,0.020828
652,6.52,0.36096999999999996,-0.476401,0.356656,-0.354385,-0.299225,0.053848
653,6.53,0.48003100000000004,-0.502648,0.273834,-0.28941300000000003,-0.308807,0.065567
654,6.54,0.528989,-0.514717,0.253361,-0.227631,-0.305618,0.045334
655,6.55,0.506602,-0.46509700000000004,0.25998699999999997,-0.163712,-0.288574,0.010178
656,6.56,0.447867,-0.447738,0.208706,-0.098724,-0.268326,-0.030304
657,6.57,0.415444,-0.370023,0.08252200000000001,-0.022034,-0.254486,-0.059066999999999995
658,6.58,0.386022,-0.290195,-0.034676,0.052536,-0.221466,-0.071854
659,6.59,0.389884,-0.21042199999999997,-0.251938,0.114319,-0.161804,-0.067596
660,6.6,0.357619,-0.147293,-0.369298,0.149475,-0.096832,-0.055878
661,6.61,0.302372,-0.15291,-0.502488,0.162262,-0.032913,-0.033507999999999996
662,6.62,0.291486,-0.159691,-0.5588989999999999,0.160126,0.006499999999999999,-0.0015410000000000007
663,6.63,0.257632,-0.12072100000000001,-0.584485,0.145218,0.020355,0.033615
664,6.64,0.229604,-0.085708,-0.578924,0.118591,0.037399,0.066635
665,6.65,0.220953,-0.11631199999999998,-0.5523100000000001,0.090897,0.036331,0.098587
666,6.66,0.325401,-0.109601,-0.512466,0.070648,0.022491,0.125229
667,6.67,0.372897,-0.055145000000000007,-0.473473,0.05146799999999999,0.015030000000000002,0.143326
668,6.68,0.478041,-0.002655,-0.397714,0.034424,0.02887,0.15078699999999998
669,6.69,0.54411,-0.0028870000000000002,-0.29658,0.030167000000000003,0.055511000000000005,0.15078699999999998
670,6.7,0.5058819999999999,-0.001794,-0.22096,0.040817,0.094925,0.144394
671,6.71,0.451895,-0.046655,-0.140163,0.048279,0.125809,0.13588
672,6.72,0.40663,-0.010292999999999998,-0.11023699999999999,0.061065999999999995,0.16629000000000002,0.130554
673,6.73,0.32662199999999997,0.054613,-0.026561,0.06957999999999999,0.198257,0.12309300000000001
674,6.74,0.254875,0.07091,-0.00554,0.08343500000000001,0.196121,0.119904
675,6.75,0.212723,0.11723599999999999,0.003536000000000001,0.099411,0.16203299999999998,0.120956
676,6.76,0.203848,0.136071,-0.068405,0.11645499999999999,0.143921,0.128418
677,6.77,0.216675,0.151382,-0.11309300000000001,0.12178,0.150314,0.143326
678,6.78,0.34810399999999997,0.189159,-0.13194,0.114319,0.172684,0.151855
679,6.79,0.407516,0.221906,0.06016900000000001,0.10794100000000001,0.193985,0.151855
680,6.8,0.47268000000000004,0.24799699999999997,0.291171,0.110062,0.218491,0.158249
681,6.81,0.48303599999999997,0.23044,0.48180500000000004,0.13563499999999998,0.223816,0.16250599999999998
682,6.82,0.484984,0.20858800000000002,0.617123,0.168655,0.20144700000000001,0.161438
683,6.83,0.525982,0.250218,0.7770630000000001,0.19635,0.195053,0.158249
684,6.84,0.49169799999999997,0.242358,0.883193,0.23576399999999997,0.191864,0.15078699999999998
685,6.85,0.453183,0.19662000000000002,0.937551,0.279434,0.173752,0.142273
686,6.86,0.45908000000000004,0.29678499999999997,0.97472,0.318863,0.152451,0.130554
687,6.87,0.556041,0.539981,0.941091,0.36039699999999997,0.119431,0.119904
688,6.88,0.606259,0.728337,0.8837889999999999,0.39769,0.082138,0.118835
689,6.89,0.551107,0.780465,0.8339690000000001,0.41792299999999993,0.11409000000000001,0.13588
690,6.9,0.432992,0.7620279999999999,0.725284,0.414734,0.17694100000000001,0.16250599999999998
691,6.91,0.369638,0.746803,0.722676,0.37744099999999997,0.239792,0.193405
692,6.92,0.374841,0.835225,0.746053,0.306076,0.33461,0.23068200000000003
693,6.93,0.217569,0.755918,0.863333,0.21659899999999999,0.423019,0.257309
694,6.94,-0.03123499999999998,0.46922200000000003,0.955125,0.10794100000000001,0.476288,0.28927600000000003
695,6.95,-0.31600100000000003,0.207222,1.1364370000000001,-0.0049900000000000005,0.493332,0.327621
696,6.96,-0.647281,-0.174702,1.331789,-0.11683699999999998,0.46138,0.375565
697,6.97,-0.851023,-0.504881,1.494646,-0.210587,0.37295500000000004,0.409653
698,6.98,-1.022808,-0.763371,1.6688209999999999,-0.24679600000000002,0.222748,0.430954
699,6.99,-1.0666129999999998,-0.982492,1.584249,-0.227631,0.015030000000000003,0.42881800000000003
700,7.0,-1.0447170000000001,-1.055636,1.4237469999999999,-0.144531,-0.22465500000000002,0.407516
701,7.01,-0.850844,-0.9390040000000001,1.12122,-0.031616000000000005,-0.380188,0.375565
702,7.02,-0.586389,-0.719113,0.710064,0.086624,-0.389771,0.33934000000000003
703,7.03,-0.30108,-0.532701,0.288116,0.192093,-0.267273,0.303116
704,7.04,-0.14391199999999998,-0.36641599999999996,-0.030709999999999973,0.26239,-0.082977,0.265839
705,7.05,-0.007970999999999999,-0.232875,-0.241889,0.30714400000000003,0.120483,0.236008
706,7.06,0.060698,-0.07309600000000001,-0.34119,0.325241,0.312241,0.218964
707,7.07,0.051108999999999995,-0.039177,-0.381302,0.320984,0.460312,0.218964
708,7.08,0.008337999999999998,-0.096952,-0.37901,0.285828,0.541275,0.22749299999999997
709,7.09,-0.076519,-0.169074,-0.389773,0.219788,0.5540470000000001,0.226425
710,7.1,-0.20479,-0.23415300000000003,-0.347431,0.127106,0.514633,0.21684299999999998
711,7.11,-0.312248,-0.275411,-0.265058,0.023773,0.46138,0.206177
712,7.12,-0.421408,-0.311187,-0.192602,-0.08167999999999999,0.39106799999999997,0.180618
713,7.13,-0.607418,-0.379717,-0.142657,-0.185013,0.336731,0.161438
714,7.14,-0.785868,-0.36244699999999996,0.027075,-0.281952,0.287735,0.143326
715,7.15,-0.9798450000000001,-0.45968400000000004,0.193448,-0.359711,0.266434,0.14013699999999998
716,7.16,-1.138468,-0.494199,0.34751,-0.405518,0.25151100000000004,0.158249
717,7.17,-1.194307,-0.632411,0.45249700000000004,-0.40126,0.191864,0.194458
718,7.18,-1.207859,-0.767098,0.45525699999999997,-0.346939,0.106644,0.23494
719,7.19,-1.0041579999999999,-0.865555,0.316279,-0.267044,0.024612,0.276489
720,7.2,-0.7010149999999999,-0.908308,0.11668099999999999,-0.16583299999999998,-0.044631999999999984,0.304184
721,7.21,-0.374342,-0.879475,-0.204096,-0.058242999999999996,-0.090439,0.307388
722,7.22,-0.082876,-0.8812200000000001,-0.5537890000000001,0.037627999999999995,-0.101089,0.281815
723,7.23,0.194208,-0.798433,-0.821148,0.113266,-0.063797,0.23068200000000003
724,7.24,0.393597,-0.725858,-1.070455,0.155869,0.020355,0.171036
725,7.25,0.47109300000000004,-0.616861,-1.1749129999999999,0.170792,0.1418,0.10072300000000001
726,7.26,0.439576,-0.526714,-1.192971,0.158005,0.254715,0.032547
727,7.27,0.277643,-0.481072,-1.0951520000000001,0.129242,0.332474,-0.02179
728,7.28,0.073281,-0.45899700000000004,-1.048502,0.099411,0.329285,-0.050552
729,7.29,-0.07528,-0.432374,-0.983959,0.072784,0.25364699999999996,-0.056930999999999995
730,7.3,-0.154008,-0.35427,-0.9573379999999999,0.037627999999999995,0.15351900000000002,-0.040955
731,7.31,-0.176281,-0.23916300000000001,-0.926789,-0.0049900000000000005,0.059769,-0.016464
732,7.32,-0.205627,-0.159065,-0.9752870000000001,-0.040131,-0.030777,0.005920000000000001
733,7.33,-0.17233800000000002,-0.178029,-0.9647870000000001,-0.07103,-0.09149199999999999,0.031479
734,7.34,-0.080852,-0.11845699999999999,-0.9585959999999999,-0.107254,-0.105347,0.043198
735,7.35,0.081022,-0.031473999999999995,-0.9514790000000001,-0.149857,-0.090439,0.034668
736,7.36,0.07107999999999999,0.024018,-0.8351559999999999,-0.182877,-0.069122,0.016571000000000002
737,7.37,0.06740400000000002,0.045655,-0.746441,-0.210587,-0.058472,-0.006866
738,7.38,-0.04154999999999999,0.074437,-0.485818,-0.232956,-0.053146000000000006,-0.042023000000000005
739,7.39,-0.175059,0.12101700000000001,-0.24827800000000003,-0.23934899999999998,-0.051025,-0.072922
740,7.4,-0.330871,0.16208399999999998,0.0004259999999999958,-0.211639,-0.08190900000000001,-0.096359
741,7.41,-0.404015,0.177118,0.134951,-0.163712,-0.125595,-0.108078
742,7.42,-0.364618,0.328825,0.22145900000000002,-0.100861,-0.16713,-0.119781
743,7.43,-0.344625,0.418083,0.28326599999999996,-0.032684,-0.183105,-0.12831099999999998
744,7.44,-0.255103,0.509109,0.232242,0.031235000000000002,-0.182053,-0.144287
745,7.45,-0.190107,0.600338,0.11429,0.090897,-0.17778,-0.158142
746,7.46,-0.268714,0.679197,-0.02588,0.12391700000000001,-0.17778,-0.16986099999999998
747,7.47,-0.24045100000000003,0.7885909999999999,-0.153971,0.12071199999999999,-0.161804,-0.178375
748,7.48,-0.297705,0.842575,-0.249914,0.082367,-0.137299,-0.185837
749,7.49,-0.39671300000000004,0.865806,-0.24794000000000002,-0.019897,-0.110672,-0.19222999999999998
750,7.5,-0.593635,0.96693,-0.06342300000000001,-0.150925,-0.089371,-0.194351
751,7.51,-0.802743,0.948751,0.216583,-0.28302,-0.107483,-0.186905
752,7.52,-0.9427479999999999,0.9126629999999999,0.567515,-0.379959,-0.187378,-0.17305
753,7.53,-0.981088,0.9016639999999999,0.9144530000000001,-0.42788699999999996,-0.297089,-0.149612
754,7.54,-0.9016930000000001,0.9542370000000001,1.172957,-0.412979,-0.432388,-0.118729
755,7.55,-0.690354,1.001602,1.260591,-0.328827,-0.5932310000000001,-0.104874
756,7.56,-0.419853,1.022849,1.194583,-0.20845,-0.7157439999999999,-0.113403
757,7.57,-0.23237399999999997,1.08243,0.88285,-0.079559,-0.725327,-0.147491
758,7.58,-0.080178,1.0721040000000002,0.551172,0.021652,-0.6113430000000001,-0.203949
759,7.59,0.05097299999999999,1.056751,0.260993,0.10366800000000001,-0.39616399999999996,-0.25614899999999996
760,7.6,0.114097,1.142066,0.098163,0.165451,-0.120255,-0.29129
761,7.61,0.074278,1.080099,-0.06046,0.185699,0.11303699999999997,-0.30300900000000003
762,7.62,-0.012023000000000006,0.962354,-0.10276199999999999,0.164398,0.24086,-0.293427
763,7.63,-0.071893,0.792856,-0.084021,0.114319,0.280273,-0.272125
764,7.64,0.020346,0.694127,0.020797,0.049347,0.283478,-0.239105
765,7.65,0.060874,0.550573,0.152391,-0.020966,0.23873899999999998,-0.212463
766,7.66,0.07093300000000001,0.367514,0.22440300000000002,-0.091263,0.16629000000000002,-0.2146
767,7.67,0.045801,0.257836,0.38671300000000003,-0.174362,0.082138,-0.239105
768,7.68,-0.080437,0.077184,0.601057,-0.24679600000000002,-0.0009460000000000024,-0.282776
769,7.69,-0.305608,-0.190549,0.811767,-0.279816,-0.08830299999999999,-0.325378
770,7.7,-0.50752,-0.441115,1.00779,-0.26384,-0.17778,-0.336044
771,7.71,-0.567894,-0.669682,1.095232,-0.195663,-0.261948,-0.322189
772,7.72,-0.405989,-0.858793,1.045875,-0.064636,-0.338638,-0.298752
773,7.73,-0.101301,-0.9500040000000001,0.754737,0.096222,-0.380188,-0.277451
774,7.74,0.273612,-0.945781,0.388072,0.23896799999999999,-0.365265,-0.274246
775,7.75,0.652834,-0.901358,-0.06764400000000001,0.355072,-0.309875,-0.289169
776,7.76,0.939243,-0.853712,-0.487421,0.42431599999999997,-0.235306,-0.323257
777,7.77,1.162495,-0.706613,-0.857138,0.44668599999999997,-0.161804,-0.371185
778,7.78,1.263526,-0.560335,-1.089551,0.425385,-0.096832,-0.429779
779,7.79,1.157638,-0.440409,-1.194012,0.373184,-0.02652,-0.478775
780,7.8,1.046218,-0.3309,-1.2320309999999999,0.291153,0.043793,-0.500092
781,7.81,0.828451,-0.29831599999999997,-1.137759,0.208069,0.072556,-0.48516800000000004
782,7.82,0.558337,-0.204783,-0.9822790000000001,0.12178,0.082138,-0.429779
783,7.83,0.34336700000000003,-0.171677,-0.872108,0.047211,0.061904999999999995,-0.33177199999999996
784,7.84,0.207715,-0.261425,-0.738804,-0.008178999999999999,0.026749000000000002,-0.20181300000000002
785,7.85,0.205227,-0.375163,-0.743069,-0.059311,-0.030777,-0.077179
786,7.86,0.307535,-0.5482739999999999,-0.8420719999999999,-0.124298,-0.107483,0.013367000000000004
787,7.87,0.356679,-0.706812,-0.879792,-0.215912,-0.183105,0.06131
788,7.88,0.383625,-0.801037,-0.880764,-0.31604,-0.233185,0.069824
789,7.89,0.373021,-0.8582489999999999,-0.7710670000000001,-0.406586,-0.266205,0.060242
790,7.9,0.379839,-0.8141970000000001,-0.640556,-0.469437,-0.302429,0.046387
791,7.91,0.480365,-0.68029,-0.460743,-0.490738,-0.327988,0.041061
792,7.92,0.45867600000000003,-0.5903189999999999,-0.307728,-0.479019,-0.331177,0.051712
793,7.93,0.44351499999999994,-0.559088,-0.20847600000000002,-0.431091,-0.32373,0.067703
794,7.94,0.44615900000000003,-0.623102,-0.213707,-0.359711,-0.334381,0.07728600000000001
795,7.95,0.43632,-0.579072,-0.209648,-0.28941300000000003,-0.315201,0.079422
796,7.96,0.416314,-0.507916,-0.28926399999999997,-0.229752,-0.268326,0.073029
797,7.97,0.407391,-0.439445,-0.301692,-0.181824,-0.210815,0.059174000000000004
798,7.98,0.318793,-0.39367800000000003,-0.31146,-0.136017,-0.173523,0.041061
799,7.99,0.24621300000000002,-0.33467800000000003,-0.400316,-0.09553500000000001,-0.165009,0.027222000000000003
800,8.0,0.257601,-0.261265,-0.453718,-0.07635499999999999,-0.14369200000000001,0.016571000000000002
801,8.01,0.287592,-0.062976,-0.504745,-0.07421900000000001,-0.13304100000000002,0.013366999999999999
802,8.02,0.277536,0.011225,-0.569438,-0.075287,-0.14582799999999999,0.022964
803,8.03,0.21693099999999998,0.07058400000000001,-0.567222,-0.079559,-0.14476,0.036804
804,8.04,0.223102,0.14918299999999998,-0.460268,-0.093399,-0.12878399999999998,0.060242
805,8.05,0.146004,0.165376,-0.399972,-0.083817,-0.137299,0.074097
806,8.06,0.139307,0.113686,-0.39410500000000004,-0.066772,-0.135178,0.082611
807,8.07,0.199863,0.1505,-0.392448,-0.061447,-0.089371,0.080475
808,8.08,0.21631399999999998,0.20980500000000002,-0.404661,-0.059311,-0.029708999999999996,0.064499
809,8.09,0.178625,0.23978899999999997,-0.1957,-0.051849,0.041656,0.040008999999999996
810,8.1,0.082411,0.290867,-0.06068099999999999,-0.033752,0.115158,0.02829
811,8.11,-0.028051999999999997,0.37736,0.187919,0.002471999999999995,0.137527,0.032547
812,8.12,-0.091041,0.443805,0.421432,0.071716,0.121552,0.053848
813,8.13,-0.028007000000000004,0.458345,0.549499,0.14840699999999998,0.091721,0.09433
814,8.14,0.14385599999999998,0.5630390000000001,0.551367,0.225113,0.065094,0.125229
815,8.15,0.402091,0.648713,0.46348999999999996,0.282639,0.07788099999999999,0.134811
816,8.16,0.575646,0.77999,0.37935599999999997,0.306076,0.132202,0.120956
817,8.17,0.76022,0.862218,0.331205,0.29328899999999997,0.20677199999999998,0.098587
818,8.18,0.769368,0.9834290000000001,0.360381,0.261337,0.28241,0.069824
819,8.19,0.624893,1.0500690000000001,0.5257109999999999,0.20488,0.336731,0.053848
820,8.2,0.523335,1.087952,0.722038,0.14735399999999998,0.356979,0.059174000000000004
821,8.21,0.582137,1.180091,0.984924,0.105804,0.32501199999999997,0.076218
822,8.22,0.638037,1.378204,1.207834,0.08343500000000001,0.239792,0.07728600000000001
823,8.23,0.5620729999999999,1.308951,1.4670100000000001,0.072784,0.18866,0.065567
824,8.24,0.43049499999999996,1.198572,1.6324940000000001,0.074905,0.165222,0.055984000000000006
825,8.25,0.30578,1.113688,1.6616099999999998,0.098343,0.172684,0.058105
826,8.26,0.156915,1.055079,1.73875,0.10794100000000001,0.231277,0.074097
827,8.27,0.048623,0.9184899999999999,1.750013,0.100479,0.343124,0.099655
828,8.28,-0.31857800000000003,0.51961,1.791722,0.091949,0.449661,0.147598
829,8.29,-0.614182,0.0019649999999999945,1.807897,0.081299,0.482681,0.204056
830,8.3,-0.716992,-0.34063000000000004,1.788657,0.08982799999999999,0.423019,0.24453699999999998
831,8.31,-0.706708,-0.647912,1.655989,0.13030999999999998,0.281342,0.256256
832,8.32,-0.585522,-0.717579,1.351725,0.203812,0.10876500000000001,0.24453699999999998
833,8.33,-0.37655,-0.656143,0.904101,0.275177,-0.041428000000000006,0.226425
834,8.34,-0.118211,-0.460125,0.38800500000000004,0.309265,-0.127716,0.202988
835,8.35,0.15758700000000006,-0.25109000000000004,-0.029043000000000013,0.30075100000000005,-0.124527,0.173157
836,8.36,0.281525,-0.061415,-0.397856,0.24855,-0.048889,0.14653
837,8.37,0.302991,0.011569,-0.6542319999999999,0.16758699999999999,0.065094,0.130554
838,8.38,0.218059,-0.03679799999999999,-0.6889109999999999,0.057861,0.189728,0.133743
839,8.39,0.025321,-0.142405,-0.631656,-0.073166,0.27920500000000004,0.15078699999999998
840,8.4,-0.226048,-0.336142,-0.44600500000000004,-0.1978,0.296265,0.17208900000000002
841,8.41,-0.468318,-0.540975,-0.337931,-0.30538899999999997,0.21742199999999998,0.191269
842,8.42,-0.623418,-0.702631,-0.267002,-0.387421,0.082138,0.19873
843,8.43,-0.707693,-0.875925,-0.168233,-0.447067,-0.040359,0.20724499999999998
844,8.44,-0.766556,-0.914559,-0.140183,-0.45878599999999997,-0.137299,0.20938099999999998
845,8.45,-0.725376,-1.025862,-0.20738800000000002,-0.425766,-0.21614099999999997,0.21044899999999997
846,8.46,-0.729525,-1.027284,-0.431963,-0.347992,-0.265137,0.217896
847,8.47,-0.636748,-1.037209,-0.683485,-0.257446,-0.267273,0.23388699999999998
848,8.48,-0.55199,-1.084907,-1.0189290000000002,-0.173294,-0.21614099999999997,0.250931
849,8.49,-0.482038,-1.1862469999999998,-1.277065,-0.110443,-0.120255,0.263702
850,8.5,-0.367661,-1.212854,-1.386628,-0.061447,-0.008407999999999992,0.266907
851,8.51,-0.21333000000000002,-1.247371,-1.434992,-0.020966,0.118362,0.261581
852,8.52,-0.029917000000000003,-1.198157,-1.316668,0.013123,0.26004,0.236008
853,8.53,0.051412,-1.123216,-1.2952350000000001,0.056808000000000004,0.310104,0.19233699999999998
854,8.54,0.08794099999999999,-1.0432,-1.2160229999999999,0.100479,0.28241,0.14013699999999998
855,8.55,0.075163,-0.8861959999999999,-1.3152780000000002,0.13030999999999998,0.220627,0.10391199999999999
856,8.56,0.107873,-0.7510819999999999,-1.3408579999999999,0.138824,0.148178,0.082611
857,8.57,0.051213999999999996,-0.553747,-1.372783,0.113266,0.111969,0.065567
858,8.58,-0.025011000000000002,-0.410231,-1.339956,0.056808000000000004,0.09385700000000001,0.046387
859,8.59,-0.14962899999999998,-0.204062,-1.186717,-0.01989700000000001,0.115158,0.036804
860,8.6,-0.237114,-0.055144000000000006,-0.8211959999999999,-0.09553500000000001,0.148178,0.035736000000000004
861,8.61,-0.338215,0.072745,-0.479358,-0.149857,0.156708,0.036804
862,8.62,-0.437138,0.152852,-0.14242599999999994,-0.16583299999999998,0.121552,0.036804
863,8.63,-0.463175,0.164935,0.132895,-0.155182,0.052307000000000006,0.031479
864,8.64,-0.45149799999999995,0.19245,0.283029,-0.117905,-0.022263,0.020828
865,8.65,-0.34172800000000003,0.22249899999999997,0.293082,-0.063568,-0.095764,-0.009003
866,8.66,-0.314737,0.286551,0.301071,0.002472000000000002,-0.156479,-0.047348
867,8.67,-0.266354,0.382133,0.270968,0.074905,-0.17033399999999999,-0.096359
868,8.68,-0.253264,0.598784,0.298078,0.146286,-0.127716,-0.15493800000000002
869,8.69,-0.26465500000000003,0.7171960000000001,0.250377,0.220856,-0.07019,-0.21885700000000002
870,8.7,-0.29484,0.982237,0.198536,0.297546,-0.020125999999999998,-0.262527
871,8.71,-0.324405,1.200588,0.140258,0.35720799999999997,0.02887,-0.282776
872,8.72,-0.32973,1.410141,0.033636,0.38916,0.054443,-0.281708
873,8.73,-0.34566199999999997,1.537497,-0.047294,0.392365,0.065094,-0.264664
874,8.74,-0.41210699999999995,1.572363,-0.100256,0.36467,0.057632,-0.234833
875,8.75,-0.48894099999999996,1.595327,-0.095479,0.31140100000000004,0.04805,-0.196487
876,8.76,-0.442197,1.5949870000000002,0.035640000000000005,0.231506,0.059769,-0.15921
877,8.77,-0.460412,1.560447,0.169648,0.14840699999999998,0.051239,-0.126175
878,8.78,-0.569566,1.548469,0.496543,0.067459,0.055511000000000005,-0.091019
879,8.79,-0.662993,1.4456149999999999,0.8755569999999999,0.009932999999999999,0.037399,-0.047348
880,8.8,-0.712972,1.302103,1.282734,0.000336,-0.041428,-0.010071
881,8.81,-0.640508,1.2385709999999999,1.405276,0.030167000000000003,-0.165009,0.01976
882,8.82,-0.253945,1.353525,1.3324690000000001,0.09301799999999999,-0.3461,0.037872
883,8.83,0.16033400000000006,1.441423,1.008437,0.160126,-0.49203500000000006,0.037872
884,8.84,0.487638,1.41639,0.474896,0.19635,-0.535721,0.020828
885,8.85,0.730593,1.27074,-0.09733600000000003,0.18144200000000002,-0.501633,0.011245999999999999
886,8.86,1.023198,1.131947,-0.46098500000000003,0.10794099999999998,-0.363144,0.011245999999999999
887,8.87,1.268234,0.957916,-0.625551,-0.032684,-0.11174,0.0037840000000000005
888,8.88,1.359828,0.56682,-0.28529299999999996,-0.225494,0.21636999999999998,-0.023911
889,8.89,1.086532,0.06758099999999999,0.373539,-0.405518,0.489075,-0.119781
890,8.9,0.829931,-0.30357199999999995,1.215072,-0.5045930000000001,0.565765,-0.259338
891,8.91,0.360665,-0.582063,2.060066,-0.482224,0.495468,-0.394623
892,8.92,-0.134186,-0.871958,2.500732,-0.318176,0.23020900000000002,-0.505417
893,8.93,-0.522626,-1.073577,2.4119490000000003,-0.050797000000000016,-0.194824,-0.579987
894,8.94,-0.5064270000000001,-1.162442,1.753255,0.217651,-0.6060180000000001,-0.5938260000000001
895,8.95,-0.17205000000000004,-0.920158,0.957937,0.401947,-0.8201450000000001,-0.565063
896,8.96,0.223158,-0.6143930000000001,0.217923,0.480774,-0.778595,-0.541626
897,8.97,0.531053,-0.427777,-0.37551599999999996,0.47758500000000004,-0.5932310000000001,-0.526718
898,8.98,0.802663,-0.268871,-0.634409,0.420059,-0.335449,-0.494766
899,8.99,1.024468,-0.11993599999999999,-0.689601,0.34123200000000004,-0.053146000000000006,-0.444687
900,9.0,0.9751209999999999,-0.286407,-0.6608430000000001,0.261337,0.152451,-0.380783
901,9.01,0.8894770000000001,-0.539888,-0.47247,0.18249500000000002,0.232346,-0.321121
902,9.02,0.735712,-0.706906,-0.37689,0.11112999999999999,0.185471,-0.305145
903,9.03,0.422134,-0.8886040000000001,-0.243331,0.057861,0.071487,-0.315796
904,9.04,0.07144199999999998,-1.046522,-0.295254,0.022719999999999997,-0.051025,-0.304077
905,9.05,-0.197716,-1.196053,-0.446038,-0.007111000000000002,-0.162872,-0.254013
906,9.06,-0.406455,-1.2209370000000002,-0.6203380000000001,-0.050797,-0.23851,-0.185837
907,9.07,-0.472803,-1.280116,-0.8092189999999999,-0.12109400000000001,-0.259811,-0.110199
908,9.08,-0.48458199999999996,-1.301858,-0.924082,-0.206314,-0.23744200000000001,-0.028183
909,9.09,-0.398983,-1.385076,-0.887654,-0.280884,-0.21186799999999997,0.060242
910,9.1,-0.285936,-1.464799,-0.8727280000000001,-0.339478,-0.187378,0.134811
911,9.11,0.007898999999999991,-1.426156,-0.795497,-0.377823,-0.189499,0.18701199999999998
912,9.12,0.22378499999999998,-1.454242,-0.711358,-0.377823,-0.222534,0.21363800000000002
913,9.13,0.43416499999999997,-1.4678149999999999,-0.6607689999999999,-0.35226399999999997,-0.243835,0.21363800000000002
914,9.14,0.580954,-1.389235,-0.677623,-0.308578,-0.269394,0.173157
915,9.15,0.682811,-1.275277,-0.646544,-0.255325,-0.316269,0.087936
916,9.16,0.489704,-1.1627969999999999,-0.693496,-0.186081,-0.357819,-0.010070999999999995
917,9.17,0.270428,-1.0475940000000001,-0.798983,-0.113647,-0.362076,-0.081436
918,9.18,0.06654299999999999,-0.8311350000000001,-0.8790629999999999,-0.050797,-0.298157,-0.118729
919,9.19,-0.077002,-0.6391479999999999,-0.935582,0.007796999999999998,-0.204422,-0.11766099999999999
920,9.2,-0.167168,-0.48196300000000003,-0.9663209999999999,0.048279,-0.07019,-0.08996599999999999
921,9.21,-0.12750699999999998,-0.29368,-0.9345950000000001,0.080231,0.080002,-0.04628
922,9.22,-0.049144,-0.207632,-0.8262,0.105804,0.21636999999999998,0.005919999999999997
923,9.23,0.054583000000000007,-0.184411,-0.8147439999999999,0.12391700000000001,0.29838600000000004,0.052779999999999994
924,9.24,0.20620300000000003,-0.141221,-0.628361,0.128174,0.310104,0.08154299999999999
925,9.25,0.40078400000000003,-0.044556,-0.373014,0.12071199999999999,0.287735,0.087936
926,9.26,0.457743,-0.0378,-0.174716,0.13563499999999998,0.219559,0.063431
927,9.27,0.437041,-0.005740000000000002,-0.085049,0.173981,0.09385700000000001,0.015503
928,9.28,0.349744,0.13611900000000002,-0.060898,0.21553000000000003,0.009704999999999998,-0.026047000000000004
929,9.29,0.361598,0.338826,-0.09916599999999999,0.24429299999999998,0.007567999999999998,-0.031372000000000004
930,9.3,0.344972,0.631667,-0.041811,0.267731,0.087463,-0.022841999999999998
931,9.31,0.18293800000000002,0.9134629999999999,0.019272,0.29435700000000004,0.181213,-0.004744999999999999
932,9.32,-0.025303999999999997,1.178774,0.050004,0.319916,0.26855500000000004,0.050658999999999996
933,9.33,-0.107329,1.407683,0.171098,0.329514,0.37188699999999997,0.14546199999999998
934,9.34,-0.067635,1.67075,0.21301900000000001,0.316727,0.4944,0.255188
935,9.35,-0.026633999999999998,1.789506,0.455175,0.268784,0.61264,0.360641
936,9.36,0.008311999999999995,1.607181,0.803561,0.217651,0.6818850000000001,0.430954
937,9.37,0.023453,1.418501,1.038378,0.172913,0.662704,0.46611
938,9.38,0.18912400000000001,1.343234,1.152256,0.12071199999999999,0.574295,0.45546000000000003
939,9.39,0.56491,1.574972,1.125467,0.059998,0.398529,0.410721
940,9.4,0.533668,1.557253,1.065798,-0.0007170000000000024,0.23873899999999998,0.331879
941,9.41,0.32116100000000003,1.3154059999999999,0.9003559999999999,-0.087006,0.143921,0.253052
942,9.42,0.297663,1.3464209999999999,0.8174899999999999,-0.178619,0.086395,0.20512399999999997
943,9.43,0.19957,1.4647139999999998,0.9096989999999999,-0.261719,0.1418,0.195526
944,9.44,-0.076183,1.226294,1.0116479999999999,-0.332016,0.278152,0.217896
945,9.45,-0.5080819999999999,0.624681,1.1200370000000002,-0.412979,0.457108,0.265839
946,9.46,-0.79123,0.006433999999999995,1.343715,-0.5056609999999999,0.5913390000000001,0.32548499999999997
947,9.47,-0.856607,-0.47587399999999996,1.566432,-0.5823520000000001,0.61264,0.38089
948,9.48,-0.709244,-0.868439,1.7843830000000003,-0.617508,0.499725,0.42881800000000003
949,9.49,-0.408595,-1.165485,1.876326,-0.597275,0.280273,0.429886
950,9.5,-0.09938,-1.240051,1.8381669999999999,-0.513123,-0.026519999999999988,0.368103
951,9.51,0.192196,-1.082916,1.637828,-0.377823,-0.322662,0.264771
952,9.52,0.435564,-0.849316,1.250147,-0.210587,-0.542099,0.157181
953,9.53,0.448334,-0.738531,0.635252,-0.064636,-0.6273350000000001,0.07196
954,9.54,0.45602700000000007,-0.504111,0.11239500000000001,0.014191000000000004,-0.560211,-0.004744999999999999
955,9.55,0.46771,-0.263444,-0.23339200000000002,0.013123,-0.340775,-0.055878
956,9.56,0.33335,-0.108847,-0.380738,-0.036942,-0.06379700000000002,-0.077179
957,9.57,0.11659799999999998,-0.086283,-0.18191500000000002,-0.088074,0.218491,-0.050552
958,9.58,-0.15826400000000002,-0.23980300000000002,0.036985000000000004,-0.11576800000000001,0.446457,0.030411
959,9.59,-0.336863,-0.449292,0.13130899999999998,-0.110443,0.506119,0.118835
960,9.6,-0.36056900000000003,-0.629501,0.156641,-0.10618599999999999,0.45071400000000006,0.174225
961,9.61,-0.41008500000000003,-0.7871520000000001,0.175851,-0.118973,0.333542,0.18701199999999998
962,9.62,-0.5566220000000001,-0.962908,0.13101400000000002,-0.11576800000000001,0.159897,0.15399200000000002
963,9.63,-0.7549819999999999,-1.143625,0.019562,-0.108322,-0.027587999999999998,0.11350999999999999
964,9.64,-0.8401430000000001,-1.172971,-0.138416,-0.09553500000000001,-0.158615,0.090073
965,9.65,-0.8362129999999999,-1.041274,-0.343702,-0.091263,-0.208679,0.098587
966,9.66,-0.8369700000000001,-1.0669680000000001,-0.513365,-0.064636,-0.234238,0.13694800000000001
967,9.67,-0.840934,-1.1417389999999998,-0.749058,-0.026291000000000002,-0.235306,0.189133
968,9.68,-0.6875439999999999,-1.1685649999999999,-1.008385,0.01738,-0.20761100000000002,0.24453699999999998
969,9.69,-0.390573,-1.157031,-1.20738,0.058928999999999995,-0.156479,0.288208
970,9.7,-0.099021,-1.139129,-1.386127,0.10261500000000001,-0.121323,0.294601
971,9.71,0.091697,-1.188274,-1.562619,0.150543,-0.119202,0.257309
972,9.72,0.17896199999999998,-1.122901,-1.678394,0.187836,-0.115997,0.178482
973,9.73,0.191097,-1.006297,-1.707599,0.213394,-0.096832,0.080475
974,9.74,0.062,-0.889808,-1.672163,0.23896799999999999,-0.072327,-0.016464
975,9.75,-0.081838,-0.653347,-1.629103,0.25387600000000005,-0.031845,-0.097412
976,9.76,-0.275406,-0.344522,-1.607167,0.252808,0.009705000000000002,-0.151749
977,9.77,-0.47151400000000004,-0.113968,-1.491532,0.234695,0.066162,-0.157074
978,9.78,-0.639836,0.095609,-1.4440709999999999,0.198486,0.118362,-0.118729
979,9.79,-0.695596,0.22668600000000003,-1.3754680000000001,0.145218,0.15351900000000002,-0.06439199999999999
980,9.8,-0.702547,0.313429,-1.230828,0.077042,0.15457200000000001,-0.016464
981,9.81,-0.6446729999999999,0.407987,-0.925616,0.006728999999999999,0.131134,0.016571000000000002
982,9.82,-0.572604,0.467055,-0.521275,-0.042267,0.08320599999999999,0.024017
983,9.83,-0.598961,0.48206400000000005,-0.15179,-0.059311,0.003311000000000001,0.0016480000000000002
984,9.84,-0.597164,0.55996,0.249989,-0.03801,-0.09149199999999999,-0.037766
985,9.85,-0.540542,0.720115,0.475656,0.029099,-0.19802899999999998,-0.080368
986,9.86,-0.458629,1.02325,0.699344,0.129242,-0.25235,-0.116592
987,9.87,-0.395206,1.143988,0.737921,0.219788,-0.225723,-0.14216600000000001
988,9.88,-0.34423200000000004,1.352158,0.709917,0.296494,-0.165009,-0.162399
989,9.89,-0.30856,1.521307,0.650517,0.350815,-0.085114,-0.177307
990,9.9,-0.279301,1.651304,0.613987,0.373184,0.024612,-0.18051099999999998
991,9.91,-0.286263,1.7659619999999998,0.548309,0.354004,0.139664,-0.174118
992,9.92,-0.32909099999999997,1.8236450000000002,0.477675,0.298615,0.204651,-0.167725
993,9.93,-0.28593,1.7961790000000002,0.673158,0.220856,0.242996,-0.167725
994,9.94,-0.173906,1.887846,0.90246,0.150543,0.26004,-0.174118
995,9.95,0.062229000000000013,2.008706,1.116267,0.11965899999999999,0.203583,-0.182632
996,9.96,0.239655,2.127756,1.163278,0.10899400000000001,0.10876500000000001,-0.20713800000000002
997,9.97,0.363589,2.097226,0.9851409999999999,0.105804,0.00010700000000000291,-0.24548299999999998
998,9.98,0.35221399999999997,2.032825,0.7811680000000001,0.08769199999999999,-0.087234,-0.275314
999,9.99,0.303107,1.9306759999999998,0.559662,0.015259000000000003,-0.074448,-0.268921
1000,10.0,0.207002,1.8328080000000002,0.500844,-0.112579,0.060837,-0.22950700000000002
1001,10.01,0.0019450000000000023,1.352766,0.727108,-0.292603,0.304779,-0.164536
1002,10.02,-0.374332,0.595441,1.1770200000000002,-0.467316,0.5029140000000001,-0.08569299999999999
1003,10.03,-0.44528199999999996,-0.173546,1.58665,-0.554657,0.45391800000000004,-0.011138999999999996
1004,10.04,-0.09661599999999998,-0.511775,1.821391,-0.529099,0.191864,0.034668
1005,10.05,0.311677,-0.763011,1.7331849999999998,-0.408722,-0.19802899999999998,0.015503
1006,10.06,0.816118,-0.953066,1.2824,-0.25,-0.6060180000000001,-0.081436
1007,10.07,1.335085,-0.793905,0.612935,-0.117905,-0.84996,-0.223114
1008,10.08,1.7179369999999998,-0.394447,-0.06587599999999999,-0.031616000000000005,-0.884048,-0.39355500000000004
1009,10.09,1.6466580000000002,-0.112227,-0.50918,-0.001785,-0.7445069999999999,-0.543762
1010,10.1,1.383823,0.224402,-0.774131,-0.022034,-0.47073400000000004,-0.6332399999999999
1011,10.11,1.002705,0.4033,-0.718956,-0.056122000000000005,-0.14582799999999999,-0.6385649999999999
1012,10.12,0.5433720000000001,0.377223,-0.49683,-0.08167999999999999,0.178009,-0.561874
1013,10.13,0.21488400000000002,0.258024,-0.195931,-0.085938,0.411301,-0.445755
1014,10.14,-0.073073,0.03601099999999999,-0.114828,-0.08167999999999999,0.46563699999999997,-0.33177199999999996
1015,10.15,-0.302266,-0.399898,-0.029752999999999998,-0.09021,0.382538,-0.219925
1016,10.16,-0.331813,-0.745103,-0.073678,-0.108322,0.234467,-0.12298599999999998
1017,10.17,-0.332785,-1.000856,-0.179249,-0.128555,0.04805000000000001,-0.057999
1018,10.18,-0.267729,-1.236467,-0.412864,-0.143463,-0.169266,-0.027114999999999997
1019,10.19,-0.210371,-1.378766,-0.645312,-0.153061,-0.37698400000000004,-0.01326
1020,10.2,-0.104414,-1.447626,-0.9009999999999999,-0.153061,-0.513351,-0.003677
1021,10.21,-0.06525299999999999,-1.5102959999999999,-1.126398,-0.139206,-0.557022,0.013366999999999999
1022,10.22,-0.019139,-1.552257,-1.327623,-0.110443,-0.525055,0.037872
1023,10.23,0.10881400000000001,-1.5325879999999998,-1.505263,-0.094467,-0.43557700000000005,0.060242
1024,10.24,0.249383,-1.481449,-1.540571,-0.079559,-0.333313,0.09219400000000001
1025,10.25,0.314345,-1.487894,-1.48048,-0.056122000000000005,-0.22891199999999998,0.11456300000000001
1026,10.26,0.35014,-1.5328,-1.373437,-0.032684,-0.154343,0.12735
1027,10.27,0.482633,-1.520866,-1.120028,0.001403999999999999,-0.098953,0.126282
1028,10.28,0.562728,-1.502175,-0.8394590000000001,0.06106600000000001,-0.075516,0.099655
1029,10.29,0.617779,-1.4248809999999998,-0.651281,0.150543,-0.093628,0.034668
1030,10.3,0.526174,-1.3038049999999999,-0.5009779999999999,0.245346,-0.137299,-0.036697
1031,10.31,0.386264,-1.114054,-0.460634,0.334839,-0.17565899999999998,-0.091019
1032,10.32,0.236421,-0.912228,-0.481626,0.41685500000000003,-0.222534,-0.12298599999999998
1033,10.33,0.174344,-0.657805,-0.604851,0.46373000000000003,-0.233185,-0.12298599999999998
1034,10.34,0.126863,-0.352741,-0.592004,0.47544899999999995,-0.19056700000000001,-0.093155
1035,10.35,0.11451099999999999,-0.101486,-0.602039,0.453079,-0.105347,-0.038834
1036,10.36,0.08140900000000001,0.056680999999999995,-0.442333,0.41047700000000004,-0.043564,0.026154000000000004
1037,10.37,0.136462,0.161905,-0.174581,0.374252,-0.014801,0.10072300000000001
1038,10.38,0.21658200000000002,0.245704,0.11260100000000002,0.35720799999999997,-0.067001,0.1689
1039,10.39,0.32622199999999996,0.386241,0.441013,0.352951,-0.191635,0.215775
1040,10.4,0.465243,0.46799300000000005,0.5565720000000001,0.344421,-0.383377,0.241333
1041,10.41,0.506849,0.45954300000000003,0.641146,0.317795,-0.588974,0.23494
1042,10.42,0.525776,0.640848,0.712069,0.249619,-0.716812,0.193405
1043,10.43,0.433191,0.827299,0.815138,0.159073,-0.794571,0.134811
1044,10.44,0.277925,0.9398129999999999,0.927668,0.073853,-0.7572939999999999,0.082611
1045,10.45,0.13025699999999998,0.9460850000000001,1.078229,-0.008178999999999999,-0.57193,0.057053
1046,10.46,0.195355,1.083005,1.21848,-0.068893,-0.301361,0.068756
1047,10.47,0.268663,1.224221,1.3578219999999999,-0.094467,-0.017990000000000006,0.110306
1048,10.48,0.566304,1.2616,1.432519,-0.10192899999999999,0.22701999999999997,0.158249
1049,10.49,0.9076700000000001,1.492189,1.5322149999999999,-0.11683699999999998,0.398529,0.167831
1050,10.5,0.9403360000000001,1.43782,1.622147,-0.133881,0.512512,0.116699
1051,10.51,0.6926829999999999,1.147335,1.722855,-0.157318,0.599854,0.059174000000000004
1052,10.52,0.476894,1.056798,1.9005169999999998,-0.18927,0.693604,0.018692
1053,10.53,0.267312,0.9083030000000001,2.0573099999999998,-0.218033,0.734085,-0.016464
1054,10.54,-0.11798,0.616254,2.2011849999999997,-0.236145,0.690399,-0.028183
1055,10.55,-0.470264,0.33170700000000003,2.2846490000000004,-0.231888,0.559372,-0.0004730000000000012
1056,10.56,-0.632135,0.13813,2.223626,-0.185013,0.35484299999999996,0.051712
1057,10.57,-0.604025,0.039531000000000004,1.9332259999999999,-0.10405,0.09704600000000001,0.10391199999999999
1058,10.58,-0.458214,-0.034097,1.3212139999999999,-0.016708,-0.120255,0.142273
1059,10.59,-0.12951,0.014418999999999996,0.595734,0.035492,-0.24063099999999998,0.17208900000000002
1060,10.6,0.053078,0.064752,-0.01766000000000001,0.030167000000000003,-0.22465500000000002,0.184875
1061,10.61,0.15601600000000002,0.10044,-0.46774099999999996,-0.03268399999999999,-0.076584,0.16676300000000002
1062,10.62,0.044023000000000014,0.07021799999999999,-0.74655,-0.15625,0.152451,0.14013699999999998
1063,10.63,-0.1509,0.017026,-0.693728,-0.301132,0.38574200000000003,0.124161
1064,10.64,-0.49513599999999997,-0.20752800000000002,-0.571825,-0.422562,0.510376,0.120956
1065,10.65,-0.821634,-0.5505909999999999,-0.388844,-0.48754899999999995,0.505051,0.13694800000000001
1066,10.66,-1.0458100000000001,-0.843088,-0.263248,-0.5024569999999999,0.437943,0.16250599999999998
1067,10.67,-1.191893,-1.091941,-0.344343,-0.46304300000000004,0.287735,0.18701199999999998
1068,10.68,-1.323971,-1.444965,-0.555742,-0.39061,0.071487,0.214706
1069,10.69,-1.2059,-1.623623,-0.946873,-0.314972,-0.159683,0.237076
1070,10.7,-0.871662,-1.625402,-1.408736,-0.262772,-0.318405,0.24240100000000003
1071,10.71,-0.609302,-1.602347,-1.8506040000000001,-0.223358,-0.35994,0.23388699999999998
1072,10.72,-0.402407,-1.5880370000000001,-2.1327689999999997,-0.21910100000000002,-0.269394,0.20724499999999998
1073,10.73,-0.293469,-1.5724639999999999,-2.3177939999999997,-0.232956,-0.160736,0.183807
1074,10.74,-0.249346,-1.529091,-2.301601,-0.235077,-0.052078,0.161438
1075,10.75,-0.167703,-1.451001,-2.1672759999999998,-0.203125,0.053375,0.142273
1076,10.76,-0.12975899999999999,-1.3061260000000001,-1.944505,-0.14240999999999998,0.1418,0.125229
1077,10.77,-0.142245,-1.146801,-1.6036030000000001,-0.049727999999999994,0.197189,0.098587
1078,10.78,-0.26037899999999997,-0.9970370000000001,-1.361737,0.070648,0.21423299999999998,0.074097
1079,10.79,-0.43658199999999997,-0.932242,-1.216102,0.19528199999999998,0.200378,0.070892
1080,10.8,-0.46706099999999995,-0.7844800000000001,-1.1770459999999998,0.292221,0.205704,0.087936
1081,10.81,-0.47695200000000004,-0.550968,-1.134873,0.350815,0.215302,0.110306
1082,10.82,-0.557715,-0.41470500000000005,-1.114191,0.374252,0.199326,0.138
1083,10.83,-0.61452,-0.25845300000000004,-0.939076,0.373184,0.20144700000000001,0.15931700000000001
1084,10.84,-0.588709,-0.08658099999999999,-0.723952,0.365723,0.160965,0.15078699999999998
1085,10.85,-0.532358,0.044991,-0.46660100000000004,0.365723,0.07788099999999999,0.12309300000000001
1086,10.86,-0.47889899999999996,0.241628,-0.14609999999999998,0.381714,-0.032912999999999984,0.079422
1087,10.87,-0.354063,0.5387609999999999,0.08162499999999998,0.42218,-0.158615,0.026154000000000004
1088,10.88,-0.17941300000000002,0.752378,0.20834899999999998,0.47544899999999995,-0.261948,-0.031372000000000004
1089,10.89,-0.005208000000000004,1.16124,0.302197,0.531906,-0.300293,-0.08357200000000001
1090,10.9,0.034793,1.399653,0.4068,0.5702510000000001,-0.245956,-0.146423
1091,10.91,-0.04911,1.560502,0.551222,0.579849,-0.113876,-0.196487
1092,10.92,-0.109606,1.8178020000000001,0.8177369999999999,0.563873,0.08107,-0.2146
1093,10.93,-0.19503399999999999,2.047138,1.162571,0.528717,0.25364699999999996,-0.219925
1094,10.94,-0.309614,2.128677,1.580022,0.491425,0.3591,-0.20606999999999998
1095,10.95,-0.321265,2.185971,2.001522,0.45733599999999996,0.39318800000000004,-0.189026
1096,10.96,-0.261736,2.1875150000000003,2.29851,0.43603500000000006,0.3591,-0.174118
1097,10.97,-0.384168,1.9944709999999999,2.46504,0.42857399999999995,0.242996,-0.166656
1098,10.98,-0.47652700000000003,1.6574240000000002,2.383534,0.418991,0.080002,-0.165588
1099,10.99,-0.348864,1.5538399999999999,2.0222290000000003,0.405136,-0.129852,-0.170914
1100,11.0,0.036491,1.6858689999999998,1.529496,0.384903,-0.369537,-0.194351
1101,11.01,0.20463399999999998,1.7263099999999998,0.964374,0.335907,-0.552765,-0.24761999999999998
1102,11.02,0.172158,1.510003,0.437755,0.242157,-0.623062,-0.304077
1103,11.03,-0.033170999999999985,1.26882,0.08958400000000002,0.090897,-0.529327,-0.328583
1104,11.04,-0.14166800000000002,1.033934,0.066012,-0.117905,-0.312012,-0.300888
1105,11.05,-0.360048,0.608607,0.360722,-0.319244,-0.11492900000000003,-0.239105
1106,11.06,-0.30897600000000003,0.08232,0.75635,-0.43855299999999997,-0.10321,-0.162399
1107,11.07,0.046051000000000016,-0.263827,0.9408489999999999,-0.461975,-0.286438,-0.095291
1108,11.08,0.493241,-0.499079,1.014139,-0.42363,-0.537842,-0.06227100000000001
1109,11.09,0.9007729999999999,-0.70085,0.697991,-0.341614,-0.794571,-0.09848
1110,11.1,1.358501,-0.6174569999999999,0.294121,-0.251053,-0.994843,-0.209274
1111,11.11,1.6384849999999997,-0.374146,-0.252573,-0.19886800000000002,-1.048111,-0.37864699999999996
1112,11.12,1.552359,-0.045428,-0.569709,-0.204193,-0.912811,-0.5629430000000001
1113,11.13,1.077014,0.265373,-0.6477930000000001,-0.242538,-0.629456,-0.7259220000000001
1114,11.14,0.45508999999999994,0.317904,-0.5361520000000001,-0.264908,-0.264069,-0.791977
1115,11.15,-0.21382199999999998,0.22208200000000003,-0.317705,-0.256393,0.130081,-0.749359
1116,11.16,-0.679554,0.18625899999999998,-0.01185,-0.236145,0.509308,-0.625793
1117,11.17,-1.0798809999999999,-0.026279,0.21089899999999998,-0.215912,0.767105,-0.44682299999999997
1118,11.18,-1.390703,-0.48655200000000004,0.341167,-0.204193,0.857651,-0.219925
1119,11.19,-1.521927,-1.168677,0.42625,-0.206314,0.798004,0.009109000000000006
1120,11.2,-1.388253,-1.664139,0.264572,-0.21696500000000002,0.584946,0.194458
1121,11.21,-1.143225,-2.001286,0.038469,-0.244675,0.24939,0.30950900000000003
1122,11.22,-0.6710470000000001,-2.141881,-0.313854,-0.261719,-0.152222,0.358521
1123,11.23,-0.145191,-2.063348,-0.789557,-0.268097,-0.5591430000000001,0.348923
1124,11.24,0.206438,-1.9031939999999998,-1.197476,-0.264908,-0.800964,0.297791
1125,11.25,0.249311,-1.858106,-1.587623,-0.25,-0.8627469999999999,0.23921199999999998
1126,11.26,0.140774,-1.796288,-1.878754,-0.221237,-0.775406,0.20192000000000002
1127,11.27,0.050365,-1.697911,-2.045465,-0.181824,-0.575134,0.204056
1128,11.28,-0.006233000000000009,-1.517149,-2.1269080000000002,-0.141342,-0.297089,0.224289
1129,11.29,-0.127987,-1.440909,-1.956633,-0.092331,0.012893999999999987,0.263702
1130,11.3,-0.19326300000000002,-1.279153,-1.694076,-0.012435999999999996,0.283478,0.32016
1131,11.31,-0.081402,-1.200504,-1.411447,0.096222,0.467758,0.40219099999999997
1132,11.32,0.132824,-1.137778,-1.089028,0.220856,0.514633,0.492737
1133,11.33,0.398127,-1.118249,-0.981052,0.33058200000000004,0.428345,0.517242
1134,11.34,0.6088399999999999,-1.083077,-0.9563780000000001,0.409409,0.231277,0.46611
1135,11.35,0.8020189999999999,-0.997124,-1.010553,0.454147,0.038467,0.36171
1136,11.36,0.8760110000000001,-0.714386,-1.075317,0.45201099999999994,-0.049957,0.23388699999999998
1137,11.37,0.7541220000000001,-0.458372,-1.050273,0.42218,-0.049957,0.11776700000000001
1138,11.38,0.429604,-0.14541099999999998,-0.90859,0.388092,0.012894,0.041061
1139,11.39,0.179093,0.21228699999999998,-0.74463,0.368927,0.099182,0.026154000000000004
1140,11.4,0.096614,0.538041,-0.5115970000000001,0.367859,0.197189,0.078354
1141,11.41,0.192502,0.8040510000000001,-0.19789500000000002,0.36467,0.269623,0.16250599999999998
1142,11.42,0.330203,0.9797440000000001,0.07921600000000001,0.338028,0.283478,0.240265
1143,11.43,0.41326999999999997,1.0674350000000001,0.291564,0.280502,0.168427,0.27116399999999996
1144,11.44,0.553952,1.1920870000000001,0.45118500000000006,0.172913,-0.031845,0.261581
1145,11.45,0.6446350000000001,1.298,0.591226,0.023773,-0.267273,0.23175
1146,11.46,0.728777,1.5182719999999998,0.843137,-0.155182,-0.44622799999999996,0.181686
1147,11.47,0.7485890000000001,1.646884,1.120938,-0.317108,-0.617737,0.131607
1148,11.48,0.721873,1.711641,1.322225,-0.42895500000000003,-0.721069,0.10179099999999999
1149,11.49,0.570796,1.787421,1.634845,-0.49713100000000005,-0.673126,0.10179099999999999
1150,11.5,0.6290399999999999,1.9399939999999998,1.8868790000000002,-0.498199,-0.5314479999999999,0.131607
1151,11.51,0.693214,2.038816,2.290913,-0.41191099999999997,-0.294968,0.178482
1152,11.52,0.5793149999999999,1.688031,2.456081,-0.26384,0.062958,0.224289
1153,11.53,0.521746,1.197001,2.436397,-0.083817,0.39318800000000004,0.24240100000000003
1154,11.54,0.72875,1.054829,2.187534,0.067459,0.641403,0.220032
1155,11.55,0.7172149999999999,0.874395,2.0074419999999997,0.152679,0.8224950000000001,0.144394
1156,11.56,0.377343,0.35688600000000004,1.769396,0.171844,0.8992,0.047455000000000004
1157,11.57,-0.0074940000000000015,-0.06525999999999997,1.615458,0.155869,0.8555149999999999,-0.037766
1158,11.58,-0.234564,-0.12315799999999999,1.40325,0.13563499999999998,0.718109,-0.10701
1159,11.59,-0.320405,-0.11280699999999999,1.063666,0.11645499999999999,0.52742,-0.157074
1160,11.6,-0.397886,-0.089273,0.58111,0.077042,0.387863,-0.167725
1161,11.61,-0.44768100000000005,-0.059441999999999995,0.16109,0.0035400000000000006,0.35484299999999996,-0.151749
1162,11.62,-0.435763,-0.042367,-0.21052800000000002,-0.096603,0.424088,-0.119781
1163,11.63,-0.5104390000000001,-0.09839500000000001,-0.410526,-0.215912,0.584946,-0.081436
1164,11.64,-0.43635799999999997,-0.293622,-0.532108,-0.361847,0.833145,-0.035629
1165,11.65,-0.320776,-0.44373900000000005,-0.598476,-0.500336,1.0589899999999999,0.008041000000000001
1166,11.66,-0.150319,-0.843508,-0.574531,-0.655853,1.263519,0.055984000000000006
1167,11.67,-0.09636499999999999,-1.033103,-0.255011,-0.742142,1.334885,0.080475
1168,11.68,-0.24909499999999998,-1.2148079999999999,0.209981,-0.780502,1.311447,0.0858
1169,11.69,-0.54702,-1.573358,0.50239,-0.733627,1.0888209999999998,0.093262
1170,11.7,-0.828219,-1.898175,0.49777,-0.631363,0.697861,0.09751900000000001
1171,11.71,-0.916593,-2.04506,0.292232,-0.516312,0.261108,0.090073
1172,11.72,-0.788985,-2.064942,-0.203031,-0.400192,-0.141571,0.063431
1173,11.73,-0.703254,-1.938837,-0.658722,-0.24147,-0.48138400000000003,0.048523000000000004
1174,11.74,-0.610872,-1.8069220000000001,-1.191643,-0.07421900000000001,-0.630524,0.063431
1175,11.75,-0.608086,-1.70165,-1.816684,0.06957999999999999,-0.6219939999999999,0.098587
1176,11.76,-0.568459,-1.594558,-2.254763,0.166519,-0.46859700000000004,0.130554
1177,11.77,-0.290497,-1.29377,-2.4440630000000003,0.218719,-0.191635,0.1689
1178,11.78,0.150982,-0.969686,-2.23163,0.24429299999999998,0.163101,0.208313
1179,11.79,0.255222,-0.723498,-1.81705,0.278381,0.500793,0.23388699999999998
1180,11.8,0.10716700000000001,-0.826635,-1.406998,0.354004,0.604126,0.23494
1181,11.81,-0.051817999999999996,-0.914769,-0.968757,0.448822,0.505051,0.218964
1182,11.82,-0.15401700000000002,-0.731992,-0.713643,0.542557,0.320755,0.202988
1183,11.83,-0.30632600000000004,-0.632022,-0.563603,0.611801,0.12262,0.17741400000000002
1184,11.84,-0.474793,-0.49971800000000005,-0.55745,0.625656,0.004379000000000001,0.167831
1185,11.85,-0.53668,-0.249969,-0.6018100000000001,0.5862430000000001,-0.030777,0.17741400000000002
1186,11.86,-0.587763,-0.035153000000000004,-0.449696,0.508469,-0.012665000000000001,0.19873
1187,11.87,-0.557707,0.164845,-0.25269400000000003,0.41153,0.020355,0.23175
1188,11.88,-0.413283,0.33418200000000003,-0.056889,0.328445,-0.048889,0.267975
1189,11.89,-0.23257199999999997,0.402512,0.147182,0.284775,-0.222534,0.288208
1190,11.9,0.13451400000000002,0.5174979999999999,0.323711,0.25601199999999996,-0.43771400000000005,0.250931
1191,11.91,0.34975500000000004,0.8824129999999999,0.501276,0.24855,-0.635849,0.15504500000000002
1192,11.92,0.364004,1.166875,0.658242,0.25174,-0.767944,0.029343
1193,11.93,0.31056500000000004,1.620235,0.8459,0.2379,-0.778595,-0.06546000000000002
1194,11.94,0.381239,2.2093990000000003,0.9375040000000001,0.203812,-0.694443,-0.108078
1195,11.95,0.383927,2.628959,1.206451,0.14840699999999998,-0.529327,-0.129379
1196,11.96,0.29108,2.86131,1.453889,0.081299,-0.309875,-0.126175
1197,11.97,0.210806,2.8900259999999998,1.69944,0.035492,-0.13304100000000002,-0.116592
1198,11.98,0.058681,2.6322330000000003,1.942234,0.016327,-0.054214,-0.127243
1199,11.99,0.34162800000000004,2.662281,2.037159,0.023773,-0.056351,-0.17944300000000002
1200,12.0,0.683345,2.8986970000000003,2.032141,0.094086,-0.173523,-0.287033
1201,12.01,0.683465,2.683312,1.722759,0.20060699999999998,-0.280045,-0.410599
1202,12.02,0.527131,2.347898,1.070308,0.297546,-0.330124,-0.49902299999999994
1203,12.03,0.420996,2.0589560000000002,0.5490470000000001,0.334839,-0.24169899999999997,-0.54483
1204,12.04,0.29562,1.8315970000000001,0.216166,0.285828,-0.006270999999999999,-0.555481
1205,12.05,0.117251,1.412622,0.21135,0.165451,0.295197,-0.553345
1206,12.06,-0.010581999999999998,1.003708,0.418328,0.002472000000000002,0.565765,-0.5171359999999999
1207,12.07,0.164383,0.6673479999999999,0.6694640000000001,-0.098724,0.592407,-0.45108000000000004
1208,12.08,0.442877,0.389522,0.879892,-0.13281199999999999,0.416626,-0.377579
1209,12.09,0.75847,0.093782,0.8633549999999999,-0.140274,0.178009,-0.312607
1210,12.1,1.0957700000000001,-0.122046,0.618962,-0.140274,-0.109604,-0.268921
1211,12.11,1.5155889999999999,-0.189396,0.226667,-0.162643,-0.38765,-0.269989
1212,12.12,1.8055419999999998,0.024214,-0.243662,-0.229752,-0.596436,-0.323257
1213,12.13,1.638869,-0.032756999999999994,-0.633893,-0.350128,-0.755157,-0.399948
1214,12.14,1.267244,-0.140811,-0.792505,-0.501404,-0.798828,-0.45214799999999994
1215,12.15,0.778962,-0.198708,-0.745055,-0.628159,-0.754089,-0.458542
1216,12.16,0.310442,-0.404171,-0.5770810000000001,-0.696335,-0.637985,-0.41593900000000006
1217,12.17,-0.08259899999999998,-0.604368,-0.366463,-0.697403,-0.483521,-0.321121
1218,12.18,-0.392534,-0.977858,-0.23565100000000003,-0.6292270000000001,-0.32692,-0.182632
1219,12.19,-0.434514,-1.4217790000000001,-0.242815,-0.500336,-0.21186799999999997,-0.047348
1220,12.2,-0.414096,-1.809166,-0.451715,-0.344803,-0.14582799999999999,0.058105
1221,12.21,-0.341785,-2.23522,-0.7969390000000001,-0.19354200000000002,-0.147964,0.10072300000000001
1222,12.22,-0.290571,-2.571817,-1.184886,-0.064636,-0.20761100000000002,0.0858
1223,12.23,-0.271268,-2.68683,-1.491195,0.013122999999999996,-0.272598,0.025085000000000003
1224,12.24,-0.317158,-2.792897,-1.781966,0.049347,-0.324799,-0.050552
1225,12.25,-0.273985,-2.685917,-2.0444400000000003,0.059998,-0.368469,-0.11233499999999999
1226,12.26,-0.257218,-2.3941939999999997,-2.1047740000000004,0.068512,-0.36740100000000003,-0.146423
1227,12.27,-0.151668,-2.1073419999999996,-2.092282,0.07811,-0.278992,-0.143219
1228,12.28,-0.07574700000000001,-1.855865,-1.978763,0.118591,-0.166061,-0.10913099999999999
1229,12.29,-0.025408,-1.745556,-1.762457,0.192093,-0.056351,-0.059066999999999995
1230,12.3,0.045507000000000006,-1.6182809999999999,-1.607568,0.279434,0.041656,-0.005798000000000001
1231,12.31,0.227661,-1.487658,-1.533415,0.373184,0.091721,0.044266
1232,12.32,0.387209,-1.401852,-1.478384,0.448822,0.085327,0.065567
1233,12.33,0.445421,-1.218248,-1.4489889999999999,0.489304,0.041656,0.049591
1234,12.34,0.42952799999999997,-0.9300370000000001,-1.328638,0.478653,0.026749000000000002,0.009109000000000004
1235,12.35,0.32366,-0.603179,-1.092593,0.43071000000000004,0.057632,-0.012192
1236,12.36,0.18674200000000002,-0.251513,-0.839182,0.371048,0.105576,-0.024978999999999998
1237,12.37,0.022369,0.006311000000000011,-0.520307,0.30714400000000003,0.12475599999999999,-0.019653
1238,12.38,-0.044127,0.358795,-0.122748,0.257065,0.147125,0.018692
1239,12.39,0.051316000000000014,0.6635939999999999,0.257447,0.233643,0.165222,0.096466
1240,12.4,0.254986,0.883357,0.5141319999999999,0.23683200000000001,0.143921,0.176361
1241,12.41,0.42713500000000004,1.03545,0.801559,0.245346,0.103439,0.228546
1242,12.42,0.625161,1.281854,1.0948879999999999,0.241089,0.106644,0.259445
1243,12.43,0.70623,1.378585,1.4023860000000001,0.222977,0.138596,0.263702
1244,12.44,0.791117,1.529882,1.6472209999999998,0.175049,0.197189,0.23494
1245,12.45,0.818976,1.7065029999999999,1.9047560000000001,0.08982799999999999,0.239792,0.190201
1246,12.46,0.799595,1.8215290000000002,2.239439,-0.008178999999999999,0.23873899999999998,0.14971900000000002
1247,12.47,0.885451,2.05364,2.4230869999999998,-0.091263,0.152451,0.124161
1248,12.48,1.023355,2.296304,2.380604,-0.144531,-0.024384000000000003,0.11350999999999999
1249,12.49,0.743549,2.090251,2.282248,-0.192474,-0.131973,0.080475
1250,12.5,0.464445,1.804984,1.952566,-0.262772,-0.14369200000000001,0.048523000000000004
1251,12.51,0.315594,1.75373,1.7483509999999998,-0.332016,-0.10321,0.031479
1252,12.52,0.047441999999999984,1.613114,1.8419020000000002,-0.42363,0.105576,0.029343
1253,12.53,-0.375159,1.2079389999999999,1.963613,-0.5109859999999999,0.358047,0.067703
1254,12.54,-0.738308,0.702388,2.169867,-0.54187,0.45391800000000004,0.131607
1255,12.55,-0.766891,0.372247,2.184371,-0.506729,0.36230500000000004,0.191269
1256,12.56,-0.601709,0.043678000000000015,1.914173,-0.422562,0.13327,0.211502
1257,12.57,-0.31012,-0.18521500000000002,1.385214,-0.298996,-0.141571,0.181686
1258,12.58,0.13128399999999998,-0.121399,0.6975439999999999,-0.19354200000000002,-0.339706,0.090073
1259,12.59,0.447941,0.174555,0.11528599999999999,-0.16477999999999998,-0.258743,-0.029236000000000005
1260,12.6,0.33460300000000004,0.307762,-0.29531199999999996,-0.20951799999999998,0.04698200000000001,-0.13363599999999998
1261,12.61,-0.20884200000000006,0.24794899999999997,-0.41913500000000004,-0.298996,0.41557299999999997,-0.195419
1262,12.62,-0.8217629999999999,-0.018669999999999992,-0.274106,-0.402328,0.711716,-0.18158
1263,12.63,-1.376466,-0.40211399999999997,-0.099797,-0.48648100000000005,0.864044,-0.086761
1264,12.64,-1.6807419999999997,-0.8524309999999999,0.13983399999999999,-0.546143,0.8746950000000001,0.078354
1265,12.65,-1.7593590000000001,-1.3603379999999998,0.30385100000000004,-0.56958,0.755386,0.27116399999999996
1266,12.66,-1.562175,-1.8363099999999999,0.260972,-0.5504,0.47735600000000006,0.429886
1267,12.67,-1.2509549999999998,-2.137379,0.12103199999999999,-0.500336,0.117294,0.510849
1268,12.68,-0.897518,-2.384413,-0.169995,-0.40979,-0.257675,0.506592
1269,12.69,-0.55353,-2.484236,-0.6341399999999999,-0.280884,-0.586853,0.441605
1270,12.7,-0.261044,-2.476683,-1.194029,-0.130692,-0.781784,0.35531599999999997
1271,12.71,-0.138336,-2.4377169999999997,-1.6879950000000001,0.0014040000000000025,-0.812683,0.264771
1272,12.72,-0.066124,-2.273441,-2.12488,0.10366800000000001,-0.675262,0.189133
1273,12.73,-0.010332,-2.0212209999999997,-2.270321,0.191025,-0.39723200000000003,0.14546199999999998
1274,12.74,0.218401,-1.6533419999999999,-2.278115,0.28157,-0.036102,0.120956
1275,12.75,0.365817,-1.35435,-2.218594,0.394485,0.280273,0.099655
1276,12.76,0.25913600000000003,-1.20716,-2.077709,0.5052800000000001,0.47735600000000006,0.07196
1277,12.77,0.080903,-1.164944,-1.932848,0.595825,0.525284,0.037872
1278,12.78,0.061587,-0.960506,-1.7568240000000002,0.686371,0.449661,0.012299
1279,12.79,-0.06736900000000001,-0.792365,-1.657882,0.75029,0.35484299999999996,0.010178
1280,12.8,-0.24921100000000002,-0.690904,-1.545906,0.7364350000000001,0.295197,0.017624
1281,12.81,-0.351112,-0.42850600000000005,-1.40262,0.67572,0.24939,0.034668
1282,12.82,-0.378768,-0.130028,-1.052082,0.5862430000000001,0.24192800000000003,0.069824
1283,12.83,-0.359244,0.271829,-0.6293340000000001,0.502075,0.250458,0.11776700000000001
1284,12.84,-0.319737,0.5287229999999999,-0.24053000000000002,0.433899,0.220627,0.169968
1285,12.85,-0.22585100000000002,0.865051,0.01927999999999999,0.385971,0.134338,0.217896
1286,12.86,-0.12007000000000001,1.050098,0.26421999999999995,0.367859,-0.012664999999999982,0.257309
1287,12.87,-0.06462899999999999,1.145273,0.34747,0.35827600000000004,-0.166061,0.27223200000000003
1288,12.88,0.041876,1.2555100000000001,0.382758,0.34123200000000004,-0.30348200000000003,0.259445
1289,12.89,0.089012,1.3290110000000002,0.41994799999999993,0.305008,-0.405746,0.215775
1290,12.9,0.154611,1.534935,0.591923,0.25601199999999996,-0.421738,0.15078699999999998
1291,12.91,0.308711,1.8412080000000002,0.904683,0.183563,-0.317337,0.08154299999999999
1292,12.92,0.396096,2.201879,1.324008,0.122849,-0.154343,0.019760000000000003
1293,12.93,0.244955,2.2713259999999997,1.818398,0.08876,0.018219,-0.035629
1294,12.94,-0.056681,2.265144,2.3018330000000002,0.100479,0.157776,-0.078247
1295,12.95,-0.156892,2.17802,2.7047950000000003,0.16758699999999999,0.185471,-0.11766099999999999
1296,12.96,0.026944000000000023,2.2975529999999997,2.726832,0.284775,0.088531,-0.152817
1297,12.97,0.392616,2.42446,2.418209,0.425385,-0.12239100000000001,-0.187958
1298,12.98,0.486225,2.216125,1.711175,0.521255,-0.28536999999999996,-0.257202
1299,12.99,0.481868,1.821177,0.92427,0.518066,-0.351425,-0.33284
1300,13.0,0.490663,1.564125,0.49442600000000003,0.39769,-0.251282,-0.371185
1301,13.01,0.5402319999999999,1.3364790000000002,0.372349,0.212326,-0.046752999999999996,-0.37651100000000004
1302,13.02,0.451021,0.823459,0.607746,0.03442400000000001,0.115158,-0.356277
1303,13.03,0.45041099999999995,0.29835500000000004,0.806082,-0.07635499999999999,0.111969,-0.310471
1304,13.04,0.777284,0.022358000000000003,0.909689,-0.128555,-0.03291299999999999,-0.250809
1305,13.05,1.253388,-0.104226,0.7666430000000001,-0.16477999999999998,-0.21507300000000001,-0.212463
1306,13.06,1.6804310000000002,-0.169048,0.509495,-0.207382,-0.365265,-0.227386
1307,13.07,2.114964,-0.059524,0.269228,-0.26597600000000005,-0.417465,-0.297684
1308,13.08,2.178384,0.082481,0.140336,-0.333084,-0.400421,-0.42764300000000005
1309,13.09,1.6345049999999999,0.024261000000000005,0.10926199999999998,-0.403397,-0.357819,-0.573593
1310,13.1,0.905759,-0.049829000000000005,0.263388,-0.457718,-0.26088,-0.673721
1311,13.11,0.22050000000000006,-0.11198699999999999,0.45756199999999997,-0.47157299999999996,-0.12239100000000001,-0.6801149999999999
1312,13.12,-0.276104,-0.28233400000000003,0.5550970000000001,-0.444931,0.035263,-0.603424
1313,13.13,-0.665903,-0.5299189999999999,0.545179,-0.394867,0.156708,-0.472397
1314,13.14,-0.948475,-1.040116,0.379616,-0.321365,0.18866,-0.310471
1315,13.15,-0.9762770000000001,-1.598596,0.057869,-0.232956,0.115158,-0.148544
1316,13.16,-0.800361,-2.0258279999999997,-0.23275,-0.133881,0.003311000000000001,-0.029236
1317,13.17,-0.47603599999999996,-2.3281810000000003,-0.681987,-0.026291,-0.096832,0.031479
1318,13.18,-0.146607,-2.642827,-1.2638610000000001,0.101547,-0.20761100000000002,0.058105
1319,13.19,0.08526800000000001,-2.805406,-1.865586,0.201675,-0.308807,0.055984000000000006
1320,13.2,0.251219,-2.8171720000000002,-2.419844,0.209137,-0.338638,0.026154000000000004
1321,13.21,0.47730900000000004,-2.673841,-2.803865,0.114319,-0.278992,-0.023911
1322,13.22,0.575549,-2.458169,-2.910097,-0.028426999999999997,-0.16394,-0.073975
1323,13.23,0.497134,-2.24609,-2.5809490000000004,-0.17543,0.004378999999999994,-0.11445599999999999
1324,13.24,0.35020100000000004,-2.096076,-2.0195950000000003,-0.272369,0.144989,-0.110199
1325,13.25,0.07191699999999998,-2.033714,-1.4433790000000002,-0.27555799999999997,0.147125,-0.066528
1326,13.26,-0.017317,-2.075177,-0.927114,-0.17968800000000001,0.031006000000000006,-0.0015410000000000007
1327,13.27,0.18575,-1.88074,-0.598615,-0.009247000000000005,-0.109604,0.058105
1328,13.28,0.451297,-1.6529900000000002,-0.677104,0.18249500000000002,-0.245956,0.078354
1329,13.29,0.682451,-1.421274,-0.8421,0.325241,-0.334381,0.066635
1330,13.3,0.858684,-1.1374,-0.964151,0.400879,-0.306686,0.043198
1331,13.31,0.906049,-0.8442209999999999,-0.93824,0.42645299999999997,-0.199097,0.016571000000000002
1332,13.32,0.876178,-0.534022,-0.626586,0.42112700000000003,-0.019058000000000002,0.0037840000000000005
1333,13.33,0.916674,-0.21800999999999998,-0.230037,0.414734,0.17056300000000002,0.00592
1334,13.34,0.99118,0.18119000000000002,0.4159729999999999,0.42324799999999996,0.29092399999999996,0.024017
1335,13.35,1.072861,0.350653,0.9193680000000001,0.43071000000000004,0.27069099999999996,0.050658999999999996
1336,13.36,1.327974,0.645361,1.559417,0.494629,0.11409000000000001,0.057053
1337,13.37,1.4366889999999999,0.692509,1.781205,0.5521550000000001,-0.040358999999999985,0.018692
1338,13.38,1.513884,0.875173,1.884568,0.5734560000000001,-0.17778,-0.061203000000000014
1339,13.39,1.427726,1.086837,1.7752400000000002,0.559601,-0.322662,-0.166656
1340,13.4,1.2878040000000002,1.362898,1.6599270000000002,0.520187,-0.405746,-0.254013
1341,13.41,1.069425,1.6166040000000002,1.49905,0.44668599999999997,-0.338638,-0.282776
1342,13.42,1.038846,1.900382,1.3163340000000001,0.349747,-0.194824,-0.26040599999999997
1343,13.43,1.151967,2.296706,1.417079,0.245346,-0.032913,-0.22843899999999998
1344,13.44,0.9778680000000001,2.265011,1.611952,0.140961,0.172684,-0.22311399999999998
1345,13.45,0.741909,2.092031,1.5903370000000001,0.053604,0.283478,-0.233765
1346,13.46,0.452902,2.009672,1.681239,-0.040131,0.306915,-0.24868800000000002
1347,13.47,-0.026875999999999955,1.801843,1.6485049999999999,-0.173294,0.343124,-0.24868800000000002
1348,13.48,-0.550899,1.31623,1.65345,-0.351196,0.351654,-0.20606999999999998
1349,13.49,-1.1504860000000001,0.825204,1.737314,-0.56105,0.323959,-0.12298599999999998
1350,13.5,-1.442732,0.365433,1.8492060000000001,-0.77623,0.191864,-0.031372000000000004
1351,13.51,-1.528856,0.003559000000000006,1.9800200000000001,-0.9466709999999999,-0.042495999999999985,0.040008999999999996
1352,13.52,-1.5914110000000001,-0.30259,1.996548,-1.055328,-0.317337,0.084747
1353,13.53,-1.494325,-0.48360600000000004,1.9215970000000002,-1.1064610000000001,-0.574066,0.107117
1354,13.54,-1.244512,-0.47379399999999994,1.686007,-1.0872959999999998,-0.770065,0.095398
1355,13.55,-1.09145,-0.389366,1.456708,-1.024445,-0.814819,0.045334
1356,13.56,-1.091551,-0.452589,1.127273,-0.954132,-0.7178800000000001,-0.009003
1357,13.57,-1.026055,-0.452132,0.81843,-0.846542,-0.5687409999999999,-0.034561
1358,13.58,-0.979984,-0.583716,0.613005,-0.72937,-0.341843,-0.030304
1359,13.59,-0.873668,-0.6864020000000001,0.39166799999999996,-0.621765,-0.102158,-0.003677
1360,13.6,-0.761966,-0.9430850000000001,0.133435,-0.5152439999999999,0.022491,0.035736000000000004
1361,13.61,-0.59236,-1.11796,-0.178067,-0.437485,0.062958,0.073029
1362,13.62,-0.48575,-1.225062,-0.463649,-0.40126,0.045913999999999996,0.091141
1363,13.63,-0.433255,-1.2719530000000001,-0.7258560000000001,-0.394867,-0.023315,0.070892
1364,13.64,-0.548502,-1.3152979999999999,-0.8596010000000001,-0.391678,-0.12878399999999998,0.029343
1365,13.65,-0.756733,-1.3361809999999998,-0.9841690000000001,-0.384216,-0.21933000000000002,-0.009003000000000002
1366,13.66,-0.9522729999999999,-1.2179659999999999,-0.9370040000000001,-0.36930799999999997,-0.22998000000000002,-0.016464
1367,13.67,-1.0939219999999998,-1.054079,-0.8841129999999999,-0.318176,-0.17033399999999999,0.0016480000000000002
1368,13.68,-1.195117,-1.0185469999999999,-0.808148,-0.21270799999999998,-0.06274400000000001,0.057052999999999986
1369,13.69,-1.122827,-0.9828680000000001,-0.8466629999999999,-0.07103000000000001,0.071487,0.131607
1370,13.7,-1.058224,-1.018161,-0.989424,0.08450299999999998,0.146057,0.20724499999999998
1371,13.71,-0.992547,-1.1339620000000001,-1.309728,0.226181,0.13327,0.264771
1372,13.72,-0.8502430000000001,-1.227419,-1.619575,0.322052,0.07788099999999999,0.303116
1373,13.73,-0.640986,-1.169136,-1.855362,0.363602,0.023544,0.32016
1374,13.74,-0.38355900000000004,-1.123051,-2.069049,0.36039699999999997,-0.0009460000000000008,0.316971
1375,13.75,-0.28917600000000004,-0.9449770000000001,-2.019796,0.319916,0.012894,0.275421
1376,13.76,-0.224266,-0.673075,-1.8098990000000001,0.254944,0.055511000000000005,0.20512399999999997
1377,13.77,-0.35089499999999996,-0.42260299999999995,-1.483528,0.218719,0.061904999999999995,0.151855
1378,13.78,-0.613114,-0.24486999999999998,-1.1026340000000001,0.225113,0.051239,0.141205
1379,13.79,-0.8231,-0.12386199999999999,-0.757229,0.25174,0.051239,0.15931700000000001
1380,13.8,-0.858191,0.0012549999999999992,-0.47583000000000003,0.298615,0.02887,0.19873
1381,13.81,-0.870503,0.054699,-0.22493,0.36039699999999997,-0.020125999999999998,0.241333
1382,13.82,-0.807603,0.089589,-0.022501000000000018,0.42431599999999997,-0.079788,0.27223200000000003
1383,13.83,-0.598993,0.231554,0.104558,0.47012299999999996,-0.152222,0.27967800000000004
1384,13.84,-0.32913200000000004,0.516667,0.187947,0.481842,-0.18631,0.256256
1385,13.85,-0.10773900000000002,0.7897310000000001,0.408246,0.460541,-0.16819800000000001,0.215775
1386,13.86,0.04810599999999999,1.0570760000000001,0.598172,0.418991,-0.13304100000000002,0.161438
1387,13.87,0.183087,1.293922,0.8404459999999999,0.35720799999999997,-0.120255,0.098587
1388,13.88,0.27787399999999995,1.472209,1.11818,0.286896,-0.13304100000000002,0.038939999999999995
1389,13.89,0.36256700000000003,1.551233,1.4429530000000002,0.226181,-0.14263900000000002,-0.019653000000000004
1390,13.9,0.375973,1.58507,1.768314,0.18676800000000002,-0.16394,-0.077179
