,ts,ax,ay,az,wx,wy,wz
0,0.0,0.0484,0.0017879999999999981,-0.025305,-0.01709,-0.075073,0.028687
1,0.01,0.046623000000000005,-0.012549000000000005,-0.003017000000000001,-0.01709,-0.078278,0.026566000000000003
2,0.02,0.052396000000000005,0.010519,0.013790999999999998,-0.014953999999999999,-0.079346,0.026566000000000003
3,0.03,0.0076640000000000015,0.008101000000000002,0.029823000000000002,-0.014953999999999999,-0.079346,0.024429
4,0.04,-0.025633999999999997,0.0008090000000000008,-0.006209,-0.012816999999999999,-0.078278,0.022308
5,0.05,-0.058422,-0.012154,-0.013708000000000001,-0.011765000000000001,-0.075073,0.022308
6,0.06,-0.064815,-0.028013999999999997,-0.037518,-0.012816999999999999,-0.078278,0.024429
7,0.07,-0.006866000000000001,-0.038117000000000005,-0.005385,-0.013885,-0.077209,0.023361
8,0.08,0.016451,-0.057727,0.010717,-0.01709,-0.076141,0.018036
9,0.09,-0.0077659999999999995,-0.056808000000000004,0.031098,-0.013885,-0.078278,0.019104
10,0.1,0.00010100000000000041,-0.075259,-0.007796000000000002,-0.01709,-0.078278,0.013779
11,0.11,-0.038397,-0.052958000000000005,0.015471,-0.01709,-0.076141,0.01059
12,0.12,-0.047889,-0.033299,-0.037103,-0.022415,-0.078278,0.01059
13,0.13,0.05235599999999999,-0.051417,-0.0037100000000000015,-0.029861000000000002,-0.08467100000000001,0.01059
14,0.14,0.07509199999999999,-0.014352,0.006638000000000002,-0.038391,-0.095322,0.011642
15,0.15,0.081317,-0.009203,0.026318,-0.042648,-0.100647,0.01059
16,0.16,0.035141000000000006,-0.013159,0.033262,-0.047974,-0.108109,0.011642
17,0.17,0.038544,0.017283,0.003217,-0.051177999999999994,-0.11555499999999999,0.014846999999999999
18,0.18,0.007877000000000002,-0.006145000000000001,0.0006190000000000015,-0.058624,-0.125153,0.019104
19,0.19,-0.015714,-0.035266000000000006,0.013344,-0.068222,-0.130478,0.020172
20,0.2,-0.046870999999999996,0.020405,-0.0015519999999999993,-0.07034299999999999,-0.134735,0.023361
21,0.21,-0.084299,0.0006259999999999997,-0.023301,-0.078873,-0.137924,0.027634
22,0.22,-0.051227999999999996,-0.005347000000000003,0.004871000000000001,-0.08313,-0.138992,0.034012
23,0.23,-0.039904,-0.034439,-0.011079,-0.089523,-0.14006,0.034012
24,0.24,0.0034430000000000016,-0.014489000000000004,-0.042692,-0.095917,-0.141129,0.034012
25,0.25,-0.016887,-0.027316000000000003,-0.028063000000000005,-0.10231,-0.143265,0.028687
26,0.26,-0.027502,-0.010816,-0.08309,-0.10656700000000001,-0.142197,0.023361
27,0.27,-0.019903000000000004,-0.014757,-0.064512,-0.110825,-0.14006,0.023361
28,0.28,-0.020265000000000002,-0.026363,-0.058404,-0.120407,-0.14006,0.022308
29,0.29,-0.031736,-0.015316,-0.067385,-0.125748,-0.134735,0.021240000000000002
30,0.3,-0.03952,0.012494,-0.0035750000000000022,-0.134262,-0.132599,0.019104
31,0.31,-0.032418999999999996,0.051653,-0.0171,-0.139587,-0.130478,0.015915000000000002
32,0.32,-0.064899,0.09202,-0.005835,-0.140656,-0.119827,0.019104
33,0.33,-0.051814,0.101082,0.018087,-0.141724,-0.117691,0.016968
34,0.34,-0.070952,0.075611,0.059130999999999996,-0.140656,-0.108109,0.015915000000000002
35,0.35,-0.074877,0.064823,0.071467,-0.134262,-0.100647,0.01059
36,0.36,-0.102082,0.039813,0.082899,-0.13000499999999998,-0.097458,0.009521
37,0.37,-0.08250700000000001,0.075222,0.13789500000000002,-0.121475,-0.09211699999999999,0.01059
38,0.38,-0.083773,0.055718,0.12336099999999998,-0.11296099999999999,-0.088928,0.009521
39,0.39,-0.028462,0.0075920000000000015,0.07999500000000001,-0.108704,-0.08786000000000001,0.012711
40,0.4,-0.040547,0.030126999999999998,-0.018736000000000003,-0.108704,-0.08467100000000001,0.01059
41,0.41,-0.014784,0.028773000000000003,-0.027032999999999998,-0.110825,-0.08467100000000001,0.011642
42,0.42,-0.009720999999999999,-0.031077999999999998,-0.05135,-0.11615,-0.085739,0.015915000000000002
43,0.43,0.0075299999999999985,0.010352,0.039182,-0.117218,-0.09106399999999999,0.012711
44,0.44,0.00475,0.047805,0.123771,-0.11296099999999999,-0.09106399999999999,0.01059
45,0.45,-0.049402,0.043336,0.150233,-0.10336300000000001,-0.08786000000000001,0.009521
46,0.46,-0.04966,0.064814,0.133445,-0.09378099999999999,-0.081467,0.007384999999999999
47,0.47,-0.081901,0.058517999999999994,0.110951,-0.085266,-0.078278,0.007384999999999999
48,0.48,-0.07811900000000001,0.020256,0.119931,-0.075668,-0.07081599999999999,0.007384999999999999
49,0.49,-0.051126,0.055237,0.116606,-0.07034299999999999,-0.065491,0.008453
50,0.5,-0.04651,-0.010084000000000001,0.11453699999999999,-0.06501799999999999,-0.060164999999999996,0.008453
51,0.51,-0.015760999999999997,-0.0010079999999999998,0.048506,-0.059691999999999995,-0.050582999999999996,0.007384999999999999
52,0.52,-0.063178,-0.01871,-0.0009259999999999963,-0.057555999999999996,-0.040985,0.004196
53,0.53,-0.049416,-0.028288999999999998,-0.00944,-0.06076,-0.032471,-0.0021969999999999997
54,0.54,-0.032695999999999996,-0.050174,0.002066000000000002,-0.06715399999999999,-0.023941,-0.004333
55,0.55,-0.046308999999999996,-0.036833,0.009618000000000002,-0.066086,-0.017563,-0.008591
56,0.56,-0.063463,-0.014969999999999999,0.053314,-0.06715399999999999,-0.010101,-0.010727
57,0.57,-0.033019,0.008678,0.05782,-0.068222,-0.004776,-0.011795
58,0.58,-0.045855,0.024324000000000002,0.016030000000000003,-0.068222,-0.001572,-0.011795
59,0.59,-0.038875,0.054747000000000004,0.067825,-0.06395,0.002686,-0.011795
60,0.6,-0.048501999999999997,0.0476,0.038432,-0.06395,0.006943,-0.010727
61,0.61,-0.062599,0.070048,0.0005789999999999997,-0.06289700000000001,0.010147,-0.007523
62,0.62,-0.09465599999999999,0.077585,0.007872,-0.06501799999999999,0.014403999999999998,-0.0032649999999999997
63,0.63,-0.017555000000000005,0.054871,-0.014099,-0.066086,0.017593,-7.600000000000011e-05
64,0.64,0.007061999999999999,0.042144,0.0462,-0.068222,0.01973,-7.600000000000011e-05
65,0.65,-0.006200000000000001,-0.005219999999999999,0.102146,-0.066086,0.021866,-0.0021969999999999997
66,0.66,0.010009999999999998,-0.025623000000000003,0.086238,-0.06501799999999999,0.023987,-0.004333
67,0.67,0.055089,-0.04294,0.124298,-0.059691999999999995,0.025055,-0.004333
68,0.68,0.050243,-0.013675,0.131396,-0.054367,0.023987,-0.0054020000000000006
69,0.69,0.057615,-0.03466,0.099299,-0.05011,0.023987,-0.007523
70,0.7,0.036898,0.024079000000000003,0.105617,-0.044785000000000005,0.020798,-0.009659000000000001
71,0.71,0.056108000000000005,0.012545,0.092723,-0.039458999999999994,0.023987,-0.009659000000000001
72,0.72,0.0006199999999999999,0.009481999999999999,0.056351,-0.039458999999999994,0.022919,-0.009659000000000001
73,0.73,0.018413,-0.00162,0.040236,-0.038391,0.023987,-0.008591
74,0.74,0.016371,-0.021955000000000002,0.029242,-0.038391,0.01973,-0.008591
75,0.75,0.038955000000000004,-0.034568,0.012517,-0.038391,0.017593,-0.010727
76,0.76,0.0024509999999999983,0.009498999999999995,-0.012,-0.036255,0.021866,-0.009659000000000001
77,0.77,-0.010256999999999999,0.013637,0.008021999999999998,-0.036255,0.020798,-0.010727
78,0.78,-0.015114000000000002,-0.0035340000000000007,0.029887000000000007,-0.034134,0.025055,-0.012847999999999998
79,0.79,-0.034061,0.019947,0.04093,-0.030930000000000003,0.028244,-0.008591
80,0.8,-0.036150999999999996,-0.005011999999999999,0.022375,-0.028808999999999998,0.031448000000000004,-0.012847999999999998
81,0.81,-0.008868000000000001,-0.006996,-0.0021080000000000005,-0.027739999999999997,0.031448000000000004,-0.009659000000000001
82,0.82,-0.0004380000000000009,-0.0025379999999999986,0.007036,-0.025604000000000002,0.032516,-0.009659000000000001
83,0.83,0.034210000000000004,-0.028093,-0.019162000000000002,-0.028808999999999998,0.03038,-0.011795
84,0.84,-0.010498,-0.027371,-0.041506,-0.029861000000000002,0.029312,-0.010727
85,0.85,0.030063,-0.022558,-0.015766,-0.029861000000000002,0.027191000000000003,-0.011795
86,0.86,0.029891999999999995,-0.016054,0.023697,-0.029861000000000002,0.025055,-0.012847999999999998
87,0.87,0.023372,0.010395,-0.020065000000000003,-0.027739999999999997,0.027191000000000003,-0.014984
88,0.88,-0.012476,0.023566999999999998,0.057516,-0.024536000000000002,0.023987,-0.013916
89,0.89,-0.014216999999999999,0.055471000000000006,0.022299,-0.020279,0.027191000000000003,-0.011795
90,0.9,-0.016809,0.045880000000000004,0.035389,-0.016022,0.027191000000000003,-0.009659000000000001
91,0.91,0.01635,0.037831000000000004,-0.015570999999999996,-0.013885,0.03038,-0.004333
92,0.92,0.040762,0.028408,0.023932,-0.010695999999999999,0.031448000000000004,-0.0064540000000000005
93,0.93,0.01402,-0.021248,-0.011914,-0.010695999999999999,0.03038,-0.007523
94,0.94,0.009497000000000002,-0.010269,-0.052101999999999996,-0.010695999999999999,0.033569,-0.008591
95,0.95,0.0029409999999999987,-0.042169,-0.027275,-0.012816999999999999,0.033569,-0.008591
96,0.96,0.011276000000000001,-0.023750999999999998,-0.06826499999999999,-0.010695999999999999,0.035706,-0.011795
97,0.97,-0.008533000000000004,-0.007314000000000002,-0.065541,-0.011765000000000001,0.037842,-0.013916
98,0.98,-0.004702999999999999,-0.006834999999999999,-0.031708,-0.013885,0.039963,-0.012847999999999998
99,0.99,-0.022684,0.002513,-0.055911,-0.012816999999999999,0.043167000000000004,-0.012847999999999998
100,1.0,-0.016711,0.026463999999999998,-0.036938,-0.010695999999999999,0.046356,-0.013916
101,1.01,0.011659000000000001,-0.0030129999999999988,-0.008918000000000002,-0.007492,0.047424,-0.010727
102,1.02,0.016841,0.005250000000000001,0.026289,-0.005371,0.049561,-0.012847999999999998
103,1.03,6.999999999999975e-05,0.013561999999999998,0.025851999999999997,-0.002167,0.053818,-0.016052
104,1.04,-0.058584000000000004,0.012215000000000005,0.046267,-0.0010990000000000002,0.059142999999999994,-0.014984
105,1.05,-0.028661000000000002,0.008365000000000001,0.064354,0.005295,0.065536,-0.01712
106,1.06,-0.060563,0.045518,0.044473,0.014877000000000001,0.07299800000000001,-0.018172999999999998
107,1.07,-0.036414999999999996,0.041666,-0.017141000000000003,0.019135,0.07725499999999999,-0.018172999999999998
108,1.08,-0.034922,-0.006329,-0.135043,0.022338999999999998,0.084702,-0.01712
109,1.09,-0.008742,-0.032732,-0.170269,0.020203,0.081512,-0.013916
110,1.1,0.05544700000000001,-0.065954,-0.226681,0.012740999999999999,0.081512,-0.012847999999999998
111,1.11,0.054365,0.022650000000000003,-0.21268600000000001,0.005295,0.078323,-7.599999999999968e-05
112,1.12,0.083838,0.13105,-0.166154,0.00209,0.080444,0.004196
113,1.13,0.10580899999999999,0.134247,-0.041954999999999985,0.004227000000000001,0.087906,0.011642
114,1.14,0.17068699999999998,0.018509,0.069415,0.010620000000000001,0.093231,0.003128000000000001
115,1.15,0.163607,-0.06786299999999999,0.022137,0.016998,0.09429900000000001,-0.0064540000000000005
116,1.16,0.083728,-0.098571,-0.016929,0.021271,0.092163,-0.007523
117,1.17,0.111526,-0.06794700000000001,-0.021383000000000003,0.022338999999999998,0.09109500000000001,-0.004333
118,1.18,0.168952,-0.063821,-0.058891,0.025528,0.088974,-0.0064540000000000005
119,1.19,0.13614600000000002,-0.07337,-0.059527,0.023392,0.08577,-0.010727
120,1.2,0.162307,-0.073916,-0.081318,0.026595999999999998,0.080444,-0.013916
121,1.21,0.140578,-0.117726,-0.030116000000000004,0.025528,0.075119,-0.01712
122,1.22,0.148725,-0.141819,-0.050065,0.022338999999999998,0.065536,-0.021378
123,1.23,0.17165,-0.12878900000000001,-0.033989,0.019135,0.055954,-0.020309
124,1.24,0.159922,-0.033750999999999996,-0.019750999999999998,0.015944999999999997,0.047424,-0.024567
125,1.25,0.132276,0.008801,-0.017100999999999998,0.011673000000000001,0.034637,-0.024567
126,1.26,0.10082999999999999,0.031708999999999994,0.019412000000000002,0.011673000000000001,0.029312,-0.022446
127,1.27,0.086403,0.024038,-0.021589,0.009552,0.022919,-0.021378
128,1.28,0.049436,0.0017640000000000002,0.031775,0.004227000000000001,0.025055,-0.016052
129,1.29,0.036733999999999996,0.016534,0.03781,-4.600000000000003e-05,0.026123,-0.012847999999999998
130,1.3,-0.015862999999999995,-0.011489,0.010875,-0.002167,0.031448000000000004,-0.009659000000000001
131,1.31,-0.054562,-0.040701999999999995,-0.010735,-0.007492,0.039963,-0.007523
132,1.32,-0.049263,-0.040091,-0.022458000000000002,-0.018143,0.048492,-0.004333
133,1.33,-0.073264,0.023916,0.021339,-0.019211000000000002,0.055954,-0.004333
134,1.34,-0.027969,0.044607,0.097702,-0.011765000000000001,0.06979400000000001,-0.004333
135,1.35,-0.028118999999999998,0.045247,0.090073,0.00209,0.076187,-0.0021969999999999997
136,1.36,0.029691999999999986,-0.002404999999999997,0.042735,0.011673000000000001,0.086838,-0.004333
137,1.37,0.09806799999999999,0.003275,0.030632,0.016998,0.097488,-0.004333
138,1.38,0.156127,-0.010971000000000002,0.024346,0.019135,0.097488,-7.600000000000011e-05
139,1.39,0.228856,-0.030120999999999995,-0.011117999999999987,0.018066,0.09642,0.009521
140,1.4,0.35012,-0.10319300000000001,0.001549,0.009552,0.084702,0.021240000000000002
141,1.41,0.409002,-0.110759,-0.024738,-4.600000000000003e-05,0.076187,0.030823000000000003
142,1.42,0.45399300000000004,-0.101562,-0.017725,-0.009628,0.062332000000000005,0.040405
143,1.43,0.525962,-0.11190599999999999,-0.067939,-0.021347,0.049561,0.042542
144,1.44,0.48923199999999994,-0.05975,-0.116932,-0.036255,0.036774,0.042542
145,1.45,0.47338100000000005,-0.09663,-0.079846,-0.055435000000000005,0.028244,0.040405
146,1.46,0.42721499999999996,-0.088775,-0.044676,-0.06715399999999999,0.018661,0.038284
147,1.47,0.353844,-0.054403,-0.005395999999999998,-0.071411,0.009079,0.036148
148,1.48,0.338807,-0.029084,-0.04282,-0.06715399999999999,0.004822,0.034012
149,1.49,0.305297,-0.008235,-0.043246,-0.058624,0.004822,0.032958999999999995
150,1.5,0.287454,-0.019703000000000002,-0.0588,-0.046906,0.011200000000000002,0.025497
151,1.51,0.29341,-0.068126,-0.166379,-0.034134,0.022919,0.020172
152,1.52,0.306077,-0.103875,-0.226489,-0.022415,0.025055,0.012711
153,1.53,0.316387,-0.166984,-0.339427,-0.016022,0.031448000000000004,0.004196
154,1.54,0.42346000000000006,-0.19176400000000002,-0.381023,-0.01709,0.034637,-7.59999999999999e-05
155,1.55,0.478908,-0.222483,-0.461624,-0.020279,0.032516,-0.007523
156,1.56,0.486883,-0.210256,-0.47029,-0.026672,0.025055,-0.018172999999999998
157,1.57,0.465834,-0.14319500000000002,-0.44733500000000004,-0.035187,0.013336,-0.026702999999999998
158,1.58,0.448021,-0.095511,-0.420075,-0.038391,-0.0068969999999999995,-0.032027999999999994
159,1.59,0.399717,-0.030673000000000002,-0.320438,-0.045853,-0.026077,-0.035217
160,1.6,0.349169,-0.004237,-0.298421,-0.045853,-0.043121,-0.036285000000000005
161,1.61,0.322853,-0.055451,-0.248729,-0.047974,-0.056976,-0.034164
162,1.62,0.316654,-0.088865,-0.191634,-0.049042,-0.06655900000000001,-0.035217
163,1.63,0.30457,-0.096807,-0.139027,-0.046906,-0.077209,-0.034164
164,1.64,0.290189,-0.12003,-0.147038,-0.051177999999999994,-0.079346,-0.034164
165,1.65,0.281627,-0.101216,-0.153089,-0.057555999999999996,-0.079346,-0.044815
166,1.66,0.262248,-0.145876,-0.160637,-0.06395,-0.085739,-0.052261
167,1.67,0.202705,-0.07409600000000001,-0.165574,-0.075668,-0.09425399999999999,-0.059723000000000005
168,1.68,0.155863,0.006491999999999998,-0.167812,-0.084198,-0.105972,-0.06718400000000001
169,1.69,0.197873,0.014339,-0.12391400000000001,-0.086319,-0.12408399999999999,-0.06718400000000001
170,1.7,0.167473,0.07806,-0.059788,-0.082062,-0.143265,-0.070374
171,1.71,0.178786,0.101109,-0.070265,-0.08099400000000001,-0.16136199999999998,-0.068253
172,1.72,0.161353,0.10000099999999999,0.009839,-0.069275,-0.190125,-0.07251
173,1.73,0.133919,0.11350999999999999,0.011304,-0.06289700000000001,-0.207169,-0.07463099999999999
174,1.74,0.136154,0.020968,-0.089283,-0.059691999999999995,-0.22102399999999997,-0.07463099999999999
175,1.75,0.064719,-0.052323000000000015,-0.194425,-0.069275,-0.23381,-0.07144199999999999
176,1.76,-0.023805,-0.102577,-0.260341,-0.084198,-0.245529,-0.06930499999999999
177,1.77,-0.11001300000000001,-0.13917100000000002,-0.24010900000000002,-0.10336300000000001,-0.250854,-0.068253
178,1.78,-0.224809,-0.087908,-0.11459100000000001,-0.11508199999999999,-0.24658200000000002,-0.06718400000000001
179,1.79,-0.262789,-0.042161000000000004,0.096946,-0.11508199999999999,-0.23486300000000002,-0.06930499999999999
180,1.8,-0.354241,0.032797000000000014,0.228841,-0.101242,-0.216766,-0.07251
181,1.81,-0.37816900000000003,0.068837,0.249527,-0.075668,-0.19545,-0.070374
182,1.82,-0.438852,0.021349,0.112898,-0.05223099999999999,-0.17840599999999998,-0.066116
183,1.83,-0.468358,0.014122,0.0073799999999999985,-0.040512,-0.174149,-0.052261
184,1.84,-0.36940700000000004,0.017904000000000003,-0.019446,-0.033066000000000005,-0.186935,-0.03096
185,1.85,-0.168646,0.08392100000000001,-0.154284,-0.028808999999999998,-0.207169,-0.011795
186,1.86,-0.014968999999999996,0.151647,-0.24115799999999998,-0.025604000000000002,-0.23381,-0.0021969999999999997
187,1.87,-0.022708000000000002,0.234769,-0.23464200000000002,-0.027739999999999997,-0.250854,0.0009919999999999998
188,1.88,-0.11019300000000001,0.211941,-0.152544,-0.025604000000000002,-0.271088,-0.0032650000000000005
189,1.89,-0.11835999999999999,0.26744,-0.061553,-0.01709,-0.287064,-0.010727
190,1.9,-0.139537,0.332934,9.89999999999984e-05,-0.010695999999999999,-0.298782,-0.01712
191,1.91,-0.159985,0.393474,-0.004884,0.0010219999999999997,-0.298782,-0.023499000000000003
192,1.92,-0.11953299999999999,0.364859,-0.029506,0.013809,-0.294525,-0.037354000000000005
193,1.93,-0.101347,0.323694,0.008228000000000001,0.020203,-0.285995,-0.056534
194,1.94,-0.202725,0.21143299999999998,-0.043393,0.02446,-0.27322399999999997,-0.082092
195,1.95,-0.39453699999999997,0.051518000000000015,-0.082747,0.019135,-0.264694,-0.10766600000000001
196,1.96,-0.5918680000000001,-0.091407,-0.183636,0.004227000000000001,-0.255112,-0.12470999999999999
197,1.97,-0.72046,-0.192974,-0.274968,-0.027739999999999997,-0.255112,-0.127899
198,1.98,-0.916955,-0.278329,-0.332119,-0.06289700000000001,-0.248718,-0.133224
199,1.99,-1.009292,-0.399404,-0.488437,-0.092712,-0.254044,-0.13003499999999998
200,2.0,-0.8928440000000001,-0.335032,-0.712963,-0.10656700000000001,-0.279617,-0.128967
201,2.01,-0.684401,-0.144777,-1.0926719999999999,-0.110825,-0.32009899999999997,-0.131104
202,2.02,-0.29245,0.040785,-1.4371129999999999,-0.11615,-0.360565,-0.13003499999999998
203,2.03,-0.007534000000000013,0.075991,-1.545552,-0.121475,-0.42768900000000004,-0.12043800000000002
204,2.04,0.290869,0.096829,-1.484853,-0.11508199999999999,-0.49586499999999994,-0.117249
205,2.05,0.421966,0.082438,-1.3852799999999998,-0.101242,-0.562973,-0.108734
206,2.06,0.31393899999999997,0.060461,-1.396125,-0.089523,-0.614105,-0.109787
207,2.07,0.005115000000000036,0.016444999999999998,-1.367893,-0.08313,-0.6386109999999999,-0.11299100000000001
208,2.08,-0.441529,-0.028143999999999995,-1.319954,-0.089523,-0.626892,-0.136429
209,2.09,-1.002948,-0.036892,-1.0722129999999999,-0.11508199999999999,-0.595993,-0.154526
210,2.1,-1.404276,-0.053535,-0.859877,-0.140656,-0.5256810000000001,-0.181168
211,2.11,-1.759739,-0.179597,-0.5535359999999999,-0.155563,-0.44792200000000004,-0.192886
212,2.12,-1.8463889999999998,-0.299844,-0.18895699999999999,-0.138519,-0.360565,-0.189682
213,2.13,-1.7121709999999999,-0.41658100000000003,-0.07364,-0.10656700000000001,-0.29026799999999997,-0.16731300000000002
214,2.14,-1.353234,-0.461052,-0.14485,-0.06501799999999999,-0.237,-0.14494300000000002
215,2.15,-0.9998309999999999,-0.43285100000000004,-0.244711,-0.023468,-0.20291099999999998,-0.118317
216,2.16,-0.756753,-0.41106899999999996,-0.45313400000000004,0.009551999999999998,-0.185867,-0.101273
217,2.17,-0.6512560000000001,-0.359946,-0.699141,0.03511,-0.179474,-0.088486
218,2.18,-0.671039,-0.369165,-0.888214,0.05215499999999999,-0.175217,-0.07463099999999999
219,2.19,-0.714613,-0.447006,-1.029875,0.059615999999999995,-0.15603599999999998,-0.06504800000000001
220,2.2,-0.75347,-0.586788,-0.99098,0.046829,-0.128342,-0.059723000000000005
221,2.21,-0.788575,-0.64618,-0.920675,0.034042,-0.09639,-0.055465999999999994
222,2.22,-0.8442620000000001,-0.649893,-0.864835,0.027663999999999998,-0.061234000000000004,-0.053328999999999994
223,2.23,-0.934084,-0.538248,-0.848125,0.03511,-0.040985,-0.044815
224,2.24,-0.8539100000000001,-0.43759499999999996,-0.8331120000000001,0.042572000000000006,-0.031403,-0.033096
225,2.25,-0.699082,-0.335287,-0.825285,0.055359000000000005,-0.037795999999999996,-0.016052
226,2.26,-0.507458,-0.214038,-0.902086,0.078796,-0.040985,0.002060000000000001
227,2.27,-0.299952,-0.264373,-0.984051,0.10328699999999999,-0.052703999999999994,0.016968
228,2.28,-0.25413,-0.294757,-0.936034,0.120331,-0.05484,0.026566000000000003
229,2.29,-0.25032600000000005,-0.26517199999999996,-0.9012450000000001,0.140579,-0.051651,0.039352
230,2.3,-0.22015,-0.276075,-0.875085,0.171463,-0.060164999999999996,0.044677999999999995
231,2.31,-0.17102699999999998,-0.217489,-0.849902,0.206619,-0.07402,0.044677999999999995
232,2.32,-0.200846,-0.2107,-0.7998970000000001,0.253494,-0.083603,0.044677999999999995
233,2.33,-0.245354,-0.23761,-0.831224,0.30249000000000004,-0.09639,0.053191999999999996
234,2.34,-0.25948899999999997,-0.323794,-0.8792469999999999,0.334457,-0.113434,0.07130399999999999
235,2.35,-0.311419,-0.36280300000000004,-1.004414,0.36322,-0.12301600000000001,0.08514400000000001
236,2.36,-0.400403,-0.410498,-1.326506,0.368546,-0.136871,0.10006699999999999
237,2.37,-0.424018,-0.47575600000000007,-1.503218,0.372803,-0.14752200000000001,0.111786
238,2.38,-0.38308600000000004,-0.556153,-1.6530610000000001,0.372803,-0.151779,0.125626
239,2.39,-0.419158,-0.5108229999999999,-1.714767,0.368546,-0.16136199999999998,0.12883
240,2.4,-0.387758,-0.35558,-1.7047259999999997,0.355759,-0.17307999999999998,0.124573
241,2.41,-0.387473,-0.05126599999999998,-1.729316,0.353622,-0.185867,0.1203
242,2.42,-0.453891,0.25718,-1.704578,0.34829699999999997,-0.196518,0.111786
243,2.43,-0.615118,0.65045,-1.6430669999999998,0.358948,-0.193329,0.10965
244,2.44,-0.842152,0.8465090000000001,-1.8478560000000002,0.382385,-0.16243,0.11604300000000001
245,2.45,-1.06639,0.841267,-2.359731,0.407959,-0.128342,0.134155
246,2.46,-1.179378,0.805403,-2.930399,0.420746,-0.116623,0.149063
247,2.47,-1.275642,0.7907649999999999,-3.5513160000000004,0.419678,-0.105972,0.136292
248,2.48,-1.3306790000000002,0.829204,-3.920954,0.386658,-0.08786000000000001,0.111786
249,2.49,-1.234126,1.047361,-3.908732,0.321671,-0.08467100000000001,0.083023
250,2.5,-1.166954,1.538352,-3.459029,0.253494,-0.089996,0.060654
251,2.51,-1.1522709999999998,2.22712,-3.06999,0.222595,-0.086792,0.038284
252,2.52,-1.308817,2.897923,-2.7299130000000003,0.230057,-0.06337000000000001,0.007384999999999998
253,2.53,-1.544174,3.347118,-2.413161,0.271606,-0.02182,-0.025635
254,2.54,-1.7174779999999998,3.8242529999999997,-1.981107,0.350433,0.032516,-0.09062200000000001
255,2.55,-1.534943,4.124837,-1.715785,0.403702,0.048492,-0.14494300000000002
256,2.56,-1.326689,4.040508,-1.446481,0.43778999999999996,0.115601,-0.220581
257,2.57,-1.316362,3.169235,-0.8422129999999999,0.448441,0.240234,-0.320709
258,2.58,-1.453584,1.89458,-0.289199,0.478271,0.353149,-0.406998
259,2.59,-1.360543,0.695442,-0.13785,0.49743699999999996,0.418137,-0.452805
260,2.6,-1.116093,-0.517158,0.055938,0.479324,0.437317,-0.46452299999999996
261,2.61,-0.734621,-1.657214,0.5802750000000001,0.42500299999999996,0.42771899999999996,-0.449615
262,2.62,-0.474313,-2.556366,1.211617,0.350433,0.400024,-0.41764799999999996
263,2.63,-0.278053,-3.1385400000000003,1.614707,0.26414499999999996,0.393631,-0.37290999999999996
264,2.64,0.019312,-3.531925,2.002895,0.17466700000000002,0.322266,-0.30899
265,2.65,0.524609,-3.6163870000000005,2.341644,0.093704,0.163544,-0.224838
266,2.66,1.20695,-3.125317,2.746252,0.036179,-0.015426999999999996,-0.11511199999999999
267,2.67,2.027331,-2.261548,3.067173,0.015944999999999997,-0.15924100000000002,-0.016051999999999997
268,2.68,2.6112900000000003,-1.1936799999999999,3.113106,0.040436,-0.250854,0.027634
269,2.69,2.780174,-0.195738,2.793491,0.089447,-0.29133600000000004,0.0020599999999999998
270,2.7,2.4927669999999997,0.708727,2.3803259999999997,0.145905,-0.276413,-0.059723000000000005
271,2.71,1.7542369999999998,1.3203690000000001,1.919501,0.195969,-0.227417,-0.13536099999999998
272,2.72,0.888069,1.5232860000000001,1.6631630000000002,0.230057,-0.132599,-0.193954
273,2.73,0.0029770000000000074,1.493028,1.397065,0.231125,0.0016169999999999937,-0.222717
274,2.74,-0.952534,1.3080559999999999,1.073057,0.22154200000000002,0.17099,-0.215256
275,2.75,-1.70882,1.009175,0.6844210000000001,0.205551,0.331848,-0.15773
276,2.76,-2.0483729999999998,0.44215600000000005,0.358159,0.17466700000000002,0.44796800000000003,-0.060791
277,2.77,-2.062519,-0.27663000000000004,0.098102,0.13525399999999999,0.554489,0.053191999999999996
278,2.78,-1.6825740000000002,-1.110982,0.074523,0.09689299999999999,0.65889,0.15971400000000002
279,2.79,-1.03926,-1.578126,0.021683,0.036179,0.7590180000000001,0.221512
280,2.8,-0.48620699999999994,-1.70197,-0.018883000000000004,-0.037323000000000016,0.848511,0.234283
281,2.81,-0.173372,-1.664378,-0.014573000000000003,-0.108704,0.9273379999999999,0.2034
282,2.82,0.055898,-1.526546,0.20199,-0.173676,0.9944459999999999,0.15971400000000002
283,2.83,0.207156,-1.392264,0.505375,-0.2099,1.054092,0.11817899999999999
284,2.84,0.601784,-1.300969,0.5641470000000001,-0.221619,1.091385,0.080887
285,2.85,0.835393,-1.089192,0.515834,-0.222687,1.094574,0.052124000000000004
286,2.86,1.342074,-0.987008,0.43720600000000004,-0.200302,1.070084,0.03508
287,2.87,1.648316,-0.968525,0.270805,-0.15876800000000002,1.027466,0.015915000000000002
288,2.88,1.888218,-0.8986639999999999,0.140258,-0.12468,0.9561,-7.599999999999968e-05
289,2.89,2.120922,-0.8350489999999999,-0.088634,-0.099106,0.873001,-0.0064540000000000005
290,2.9,2.351556,-0.789179,-0.18935,-0.086319,0.764343,-0.0064540000000000005
291,2.91,2.563805,-0.8962620000000001,-0.400125,-0.079941,0.646103,-0.012847999999999998
292,2.92,2.631814,-1.015105,-0.5054390000000001,-0.086319,0.5065609999999999,-0.029892000000000002
293,2.93,2.497207,-1.127832,-0.631761,-0.094849,0.368073,-0.044815
294,2.94,2.236629,-1.1210639999999998,-0.664456,-0.10975599999999999,0.24556,-0.054398
295,2.95,1.8381619999999999,-1.124177,-0.677795,-0.12254300000000001,0.145432,-0.06718400000000001
296,2.96,1.367055,-1.0330030000000001,-0.641587,-0.13000499999999998,0.09429900000000001,-0.078903
297,2.97,0.9573370000000001,-0.860209,-0.6693479999999999,-0.125748,0.081512,-0.101273
298,2.98,0.565996,-0.596298,-0.8818600000000001,-0.10656700000000001,0.080444,-0.133224
299,2.99,0.456341,-0.308127,-1.128506,-0.08099400000000001,0.086838,-0.161987
300,3.0,0.431825,-0.13748,-1.4619,-0.059691999999999995,0.10495,-0.189682
301,3.01,0.630325,-0.148508,-1.6558869999999999,-0.04158,0.12731900000000002,-0.204605
302,3.02,0.914285,-0.344519,-1.7397040000000001,-0.034134,0.11134300000000001,-0.203537
303,3.03,1.188297,-0.41450600000000004,-1.5951389999999999,-0.039458999999999994,0.09109500000000001,-0.189682
304,3.04,1.2270940000000001,-0.05909900000000001,-1.454682,-0.056503,0.058075,-0.156662
305,3.05,1.344694,0.33357,-1.411692,-0.047974,0.053818,-0.12470999999999999
306,3.06,1.3534620000000002,0.634035,-1.539777,-0.0021669999999999953,0.034637,-0.09487899999999999
307,3.07,1.2967,1.031391,-1.593316,0.04364,0.018661,-0.06930499999999999
308,3.08,1.4632459999999998,1.359573,-1.6415810000000002,0.10755899999999999,-0.020752,-0.030960000000000005
309,3.09,1.425429,1.710158,-1.8705029999999998,0.166138,-0.065491,-0.010727
310,3.1,1.345305,1.977357,-2.103765,0.18318199999999998,-0.117691,0.026566000000000003
311,3.11,1.470792,1.9059150000000002,-1.99842,0.18425,-0.20291099999999998,0.078766
312,3.12,1.614902,1.636997,-1.7770150000000002,0.182114,-0.295593,0.14799500000000002
313,3.13,1.6999650000000002,1.34507,-1.9716069999999999,0.177856,-0.364838,0.246002
314,3.14,1.548907,1.0752,-2.239979,0.19278,-0.370163,0.356796
315,3.15,1.040516,0.8244600000000001,-2.558537,0.235382,-0.29985,0.449478
316,3.16,0.23754099999999995,0.915676,-2.99841,0.29184,-0.19545,0.486755
317,3.17,-0.771282,1.257853,-3.1559150000000002,0.347244,-0.07081599999999999,0.47929399999999994
318,3.18,-2.109725,1.8399849999999998,-2.6869669999999997,0.34617600000000004,0.142227,0.49101300000000003
319,3.19,-3.244792,1.7166139999999999,-1.479066,0.259888,0.36593600000000004,0.558136
320,3.2,-3.411779,0.912242,0.297482,0.09689299999999999,0.44050600000000006,0.688095
321,3.21,-3.05271,0.20146800000000006,1.9162299999999999,-0.078873,0.5065609999999999,0.8542790000000001
322,3.22,-2.363386,-0.150814,2.9531549999999998,-0.20776399999999998,0.572601,1.058807
323,3.23,-1.071597,-0.508595,3.8022120000000004,-0.29086300000000004,0.570465,1.235641
324,3.24,0.002782000000000007,-0.6835319999999999,4.397208999999999,-0.338791,0.5907140000000001,1.3197940000000001
325,3.25,0.334882,-0.25036,4.7400139999999995,-0.367554,0.719604,1.2888950000000001
326,3.26,0.348667,0.4392619999999999,4.587514,-0.337723,0.8708799999999999,1.1301729999999999
327,3.27,0.42140600000000006,0.998548,4.071893,-0.286591,0.94545,0.8382870000000001
328,3.28,0.08004899999999998,1.509064,3.4406529999999997,-0.20776399999999998,0.964615,0.47184799999999993
329,3.29,0.032861,1.904781,2.683284,-0.09378099999999999,0.8847200000000001,0.151199
330,3.3,0.52068,1.8748639999999999,2.1208080000000002,0.009551999999999998,0.664215,-0.06825299999999998
331,3.31,1.5423120000000001,1.347906,1.7908849999999998,0.055359000000000005,0.361679,-0.172638
332,3.32,2.693819,0.935952,1.491449,0.011673000000000001,0.047424,-0.20672600000000002
333,3.33,3.600425,0.786446,1.2563229999999999,-0.07034299999999999,-0.292389,-0.219513
334,3.34,3.7793940000000004,0.7373029999999999,1.09941,-0.140656,-0.634338,-0.244019
335,3.35,2.5215400000000003,0.646314,1.089502,-0.204575,-0.8814850000000001,-0.26745599999999997
336,3.36,1.2194180000000001,0.666998,0.9880969999999999,-0.251434,-1.097733,-0.27171300000000004
337,3.37,0.28143300000000004,0.47039,1.139262,-0.268478,-1.2862850000000001,-0.285553
338,3.38,-0.5153369999999999,0.285016,1.183614,-0.258896,-1.36937,-0.301544
339,3.39,-1.193866,0.04775099999999999,1.120866,-0.241852,-1.367249,-0.32603499999999996
340,3.4,-1.8920080000000001,-0.541187,0.8754219999999999,-0.221619,-1.306534,-0.347351
341,3.41,-2.3352459999999997,-1.1479489999999999,0.49223500000000003,-0.192856,-1.225571,-0.371841
342,3.42,-2.788682,-1.750907,0.07266800000000001,-0.175812,-1.109451,-0.379303
343,3.43,-3.148422,-2.231964,-0.31512399999999996,-0.17687999999999998,-0.981613,-0.37397800000000003
344,3.44,-3.3018959999999997,-2.6048150000000003,-0.392451,-0.204575,-0.859116,-0.35907
345,3.45,-3.124131,-2.695443,-0.307471,-0.252502,-0.751526,-0.304733
346,3.46,-2.7844990000000003,-2.506324,-0.07453700000000002,-0.301514,-0.657776,-0.228043
347,3.47,-2.219936,-2.226177,0.169914,-0.338791,-0.598129,-0.151337
348,3.48,-1.866052,-1.892698,0.363738,-0.354767,-0.538467,-0.09274299999999999
349,3.49,-1.8226810000000002,-1.6472900000000001,0.493482,-0.338791,-0.47242700000000004,-0.051208000000000004
350,3.5,-1.8661279999999998,-1.357412,0.46718000000000004,-0.291916,-0.40744,-0.021378
351,3.51,-1.974463,-1.18592,0.47654399999999997,-0.215225,-0.343521,0.0041959999999999975
352,3.52,-1.9157279999999999,-1.143797,0.267505,-0.134262,-0.268951,0.021240000000000002
353,3.53,-1.814226,-1.19333,-0.033889999999999997,-0.069275,-0.190125,0.034012
354,3.54,-1.663511,-1.449306,-0.328396,-0.034134,-0.116623,0.050003
355,3.55,-1.451292,-1.711527,-0.627836,-0.025604000000000002,-0.060164999999999996,0.069168
356,3.56,-1.3303909999999999,-1.8881299999999999,-0.932477,-0.040512,-0.018616,0.09367400000000001
357,3.57,-1.223479,-1.9132060000000002,-1.1656520000000001,-0.05223099999999999,0.0005490000000000004,0.12243699999999999
358,3.58,-1.037603,-1.718809,-1.4756690000000001,-0.053299,-0.01329,0.158661
359,3.59,-0.768695,-1.291292,-1.7658099999999999,-0.023468,-0.055908000000000006,0.19487000000000002
360,3.6,-0.485411,-0.841111,-2.034622,0.047897,-0.127274,0.22683699999999998
361,3.61,-0.30799899999999997,-0.553709,-2.194388,0.140579,-0.196518,0.246002
362,3.62,-0.28069099999999997,-0.484967,-2.175376,0.219406,-0.265762,0.250275
363,3.63,-0.415016,-0.5056390000000001,-1.9937759999999998,0.268402,-0.335007,0.241745
364,3.64,-0.757963,-0.429741,-1.745973,0.283325,-0.37760900000000003,0.223633
365,3.65,-1.1989379999999998,-0.104512,-1.5005899999999999,0.25882,-0.361633,0.201263
366,3.66,-1.8812630000000001,0.380688,-1.062677,0.189575,-0.263626,0.157593
367,3.67,-2.649972,1.032781,-0.611815,0.120331,-0.102783,0.098999
368,3.68,-3.205167,1.7351729999999999,-0.285848,0.078796,0.11241099999999998,0.029755000000000007
369,3.69,-3.4152160000000005,2.967464,-0.620256,0.10328699999999999,0.305222,-0.079971
370,3.7,-3.0796069999999998,4.310869,-1.606077,0.248169,0.378723,-0.20993
371,3.71,-2.0200110000000002,4.926591999999999,-2.7408099999999997,0.480392,0.38298000000000004,-0.295151
372,3.72,-0.730354,4.534164,-3.643653,0.728607,0.332916,-0.323914
373,3.73,0.2812450000000001,3.701455,-4.522937000000001,0.9246059999999999,0.176315,-0.30687
374,3.74,1.5390700000000002,2.879836,-5.4209879999999995,1.009827,-0.085739,-0.255737
375,3.75,3.4647690000000004,2.977682,-6.119415,0.932068,-0.5001220000000001,-0.185425
376,3.76,4.773228,3.4913980000000002,-5.044035,0.603973,-0.8410030000000001,-0.201401
377,3.77,4.088696,3.603942,-2.417533,0.08305400000000003,-0.845261,-0.441086
378,3.78,0.8432880000000003,2.858143,1.5451929999999998,-0.378204,-0.6045229999999999,-0.794754
379,3.79,-1.485896,2.178819,5.516587,-0.638138,-0.345657,-1.087708
380,3.8,-3.9721019999999996,1.229635,8.065451,-0.72229,-0.08467100000000001,-1.18251
381,3.81,-4.852029,0.553779,9.135747,-0.624283,0.0016170000000000002,-1.017395
382,3.82,-3.3555449999999998,0.145303,9.491891,-0.373947,-0.170959,-0.722321
383,3.83,-0.500237,-0.136889,8.250471000000001,-0.078873,-0.319031,-0.44854700000000003
384,3.84,1.8273380000000001,-0.03811900000000002,6.252038,0.078796,-0.42662,-0.285553
385,3.85,3.142197,0.847957,4.48348,0.186386,-0.593857,-0.173706
386,3.86,3.216278,1.670593,2.813742,0.273727,-0.6045229999999999,-0.07357799999999999
387,3.87,2.670061,1.935929,1.5930600000000001,0.309952,-0.488403,-0.008591000000000001
388,3.88,1.417775,1.564315,1.011313,0.292908,-0.29985,0.013779
389,3.89,-0.219706,0.562344,0.9960120000000001,0.2258,-0.05058300000000002,0.024429
390,3.9,-1.4880639999999998,-0.498033,1.263823,0.157623,0.259415,0.007384999999999998
391,3.91,-2.731478,-1.4558209999999998,1.424308,0.10755899999999999,0.580063,-0.019241
392,3.92,-3.468198,-2.360055,1.333288,0.061752,0.8591610000000001,-0.019241
393,3.93,-3.6091370000000005,-3.1379029999999997,1.194589,0.026595999999999998,1.037048,-0.009659000000000001
394,3.94,-3.0291069999999998,-3.6305699999999996,0.9958389999999999,-0.0021670000000000005,1.1393280000000001,0.01059
395,3.95,-2.127951,-3.4460230000000003,0.704177,-0.019211000000000002,1.172348,0.042542
396,3.96,-0.9877030000000001,-2.966683,0.425426,-0.04158,1.1968379999999998,0.072372
397,3.97,-0.15278000000000005,-2.509929,0.313573,-0.068222,1.205368,0.09581
398,3.98,0.5701890000000001,-1.890622,0.208578,-0.10336300000000001,1.221344,0.10965
399,3.99,1.392974,-1.2979129999999999,0.173001,-0.137451,1.206436,0.11711099999999999
400,4.0,2.094431,-0.841095,0.21043699999999999,-0.167282,1.177673,0.11071800000000001
401,4.01,2.630532,-0.483782,0.34569,-0.187531,1.12973,0.086212
402,4.02,3.065555,-0.421833,0.48806700000000003,-0.180069,1.0509030000000001,0.047867
403,4.03,3.307722,-0.48343,0.406041,-0.155563,0.9624940000000001,-0.0064540000000000005
404,4.04,3.2029229999999997,-0.689549,0.308339,-0.119354,0.8708799999999999,-0.045883
405,4.05,2.973641,-0.85383,0.110445,-0.08099400000000001,0.74411,-0.06930499999999999
406,4.06,2.70356,-0.9807450000000001,-0.197101,-0.049042,0.609879,-0.084229
407,4.07,2.596114,-1.006675,-0.600226,-0.035187,0.47459399999999996,-0.087418
408,4.08,2.490275,-1.018832,-0.8990469999999999,-0.039458999999999994,0.325455,-0.09487899999999999
409,4.09,2.285041,-1.1764299999999999,-1.0550709999999999,-0.06076,0.197632,-0.095947
410,4.1,1.940252,-1.488313,-1.134592,-0.09378099999999999,0.10495,-0.101273
411,4.11,1.547928,-1.650594,-1.225162,-0.125748,0.05275,-0.11511199999999999
412,4.12,1.179526,-1.550038,-1.274637,-0.142792,0.03038,-0.142822
413,4.13,0.811702,-1.0679379999999998,-1.377942,-0.13000499999999998,0.036774,-0.17690999999999998
414,4.14,0.58291,-0.5332279999999999,-1.559621,-0.072479,0.05275,-0.20993
415,4.15,0.6463,-0.10944600000000003,-1.7219790000000001,0.03511,0.060211,-0.22697399999999998
416,4.16,0.931694,-0.162149,-1.6644849999999998,0.137375,0.065536,-0.220581
417,4.17,1.352554,-0.492113,-1.46796,0.21514899999999998,0.059142999999999994,-0.197144
418,4.18,1.61191,-0.622448,-1.366811,0.25882,0.064468,-0.169449
419,4.19,1.537515,-0.492584,-1.561607,0.280121,0.11241099999999998,-0.155594
420,4.2,0.887323,-0.200818,-1.867423,0.296112,0.205078,-0.188614
421,4.21,0.307192,0.068341,-1.8858119999999998,0.304626,0.282852,-0.257858
422,4.22,-0.02704200000000001,0.62597,-1.707339,0.287582,0.25621,-0.296219
423,4.23,-0.006718000000000003,1.3015430000000001,-1.49695,0.234314,0.167801,-0.239761
424,4.24,0.35893600000000003,1.786658,-1.106147,0.159744,0.02719100000000001,-0.10446199999999999
425,4.25,1.064354,1.907041,-0.846491,0.11821,-0.113434,0.091537
426,4.26,1.597964,1.891634,-1.060546,0.155487,-0.19758599999999998,0.30885300000000004
427,4.27,0.775161,2.354429,-1.606148,0.24710100000000002,-0.176285,0.469711
428,4.28,-0.5385479999999999,3.254164,-2.198085,0.35789499999999996,-0.108109,0.56665
429,4.29,-2.21247,4.618619,-2.160045,0.453766,0.009079000000000005,0.64122
430,4.3,-3.4175480000000005,5.388061,-1.8107369999999998,0.454834,0.239166,0.6923520000000001
431,4.31,-3.538208,4.878143,-0.05174400000000001,0.362152,0.260483,0.765854
432,4.32,-2.846825,3.673021,1.938622,0.234314,0.284973,0.928848
433,4.33,-1.41488,2.210404,3.009171,0.090515,0.42239399999999994,1.128052
434,4.34,0.551193,0.2280310000000001,3.947633,-0.068222,0.496964,1.230316
435,4.35,1.854852,-1.2588489999999999,4.397227,-0.22055100000000002,0.573669,1.185562
436,4.36,1.741002,-2.097794,4.253463,-0.36648600000000003,0.7462310000000001,1.017258
437,4.37,1.043531,-2.118193,3.6377,-0.506042,0.881531,0.778641
438,4.38,0.347672,-1.216774,3.100619,-0.5742189999999999,0.929459,0.504868
439,4.39,-0.29175999999999996,0.02235299999999996,2.409951,-0.533737,0.9422450000000001,0.21830700000000003
440,4.4,-0.616031,1.710639,1.8082770000000001,-0.371811,0.8293299999999999,0.005264000000000005
441,4.41,-0.228996,2.6449439999999997,1.1375520000000001,-0.153442,0.615204,-0.086349
442,4.42,1.152358,2.257841,1.02405,0.014876999999999994,0.300964,-0.085297
443,4.43,2.77355,1.0303340000000003,0.869922,0.090515,0.0058749999999999905,-0.07144199999999999
444,4.44,3.642099,-0.5345280000000001,1.024504,0.088379,-0.228485,-0.089554
445,4.45,3.35775,-1.944157,1.113733,0.057479999999999996,-0.405319,-0.159866
446,4.46,2.3226009999999997,-2.7748619999999997,0.8455940000000001,0.014877000000000003,-0.585342,-0.251465
447,4.47,1.118454,-2.835705,0.5885560000000001,-0.045853,-0.78241,-0.316452
448,4.48,0.301229,-2.246445,0.559523,-0.14491300000000001,-0.9379430000000001,-0.32710300000000003
449,4.49,-0.197403,-1.346752,0.686179,-0.264221,-1.059387,-0.294083
450,4.5,-0.697635,-0.3674160000000001,0.808999,-0.367554,-1.144608,-0.239761
451,4.51,-0.9080309999999999,0.193715,1.0031290000000002,-0.408035,-1.1744379999999999,-0.18756099999999998
452,4.52,-1.332424,0.46390299999999995,0.915341,-0.378204,-1.18721,-0.155594
453,4.53,-1.641703,0.292668,0.812257,-0.30790700000000004,-1.158447,-0.141754
454,4.54,-2.17508,-0.11422699999999998,0.634938,-0.222687,-1.109451,-0.13855
455,4.55,-2.5851599999999997,-0.784008,0.38346199999999997,-0.150238,-0.990143,-0.141754
456,4.56,-2.757775,-1.424477,0.06239,-0.111893,-0.845261,-0.163055
457,4.57,-2.724377,-1.803338,-0.239372,-0.104431,-0.6940000000000001,-0.189682
458,4.58,-2.594751,-1.931698,-0.442424,-0.111893,-0.5480649999999999,-0.202469
459,4.59,-2.297766,-2.000243,-0.60104,-0.13000499999999998,-0.42341599999999996,-0.20672600000000002
460,4.6,-1.8349380000000002,-1.960605,-0.618027,-0.151306,-0.317963,-0.19075
461,4.61,-1.7222509999999998,-1.951668,-0.607162,-0.163025,-0.22528099999999998,-0.175842
462,4.62,-1.690202,-1.904363,-0.534959,-0.15983599999999998,-0.146454,-0.155594
463,4.63,-1.8198720000000002,-1.830544,-0.539737,-0.14491300000000001,-0.088928,-0.137482
464,4.64,-1.899368,-1.780328,-0.629023,-0.126801,-0.056976,-0.11511199999999999
465,4.65,-2.008699,-1.6902270000000001,-0.69592,-0.095917,-0.017563,-0.087418
466,4.66,-2.110833,-1.6426029999999998,-0.865676,-0.057555999999999996,0.022919,-0.051208000000000004
467,4.67,-2.070059,-1.7202549999999999,-1.0038049999999998,-0.01709,0.060211,0.003127999999999999
468,4.68,-1.8714369999999998,-1.7501650000000002,-1.231241,0.020203,0.08577,0.064911
469,4.69,-1.393619,-1.629,-1.529985,0.07347100000000001,0.074051,0.11604300000000001
470,4.7,-0.8989879999999999,-1.2630649999999999,-1.8689740000000001,0.148026,0.004822,0.152267
471,4.71,-0.43141599999999997,-0.766134,-2.2202490000000004,0.25242600000000004,-0.083603,0.15971400000000002
472,4.72,-0.23019699999999998,-0.339038,-2.410279,0.362152,-0.191193,0.156525
473,4.73,-0.22017399999999998,0.13052499999999995,-2.3761360000000002,0.442047,-0.319031,0.157593
474,4.74,-0.482901,0.596093,-2.1439630000000003,0.501694,-0.401047,0.16185
475,4.75,-0.9429799999999999,1.078559,-1.803709,0.505966,-0.42768900000000004,0.175705
476,4.76,-1.665318,1.506973,-0.947313,0.46548500000000004,-0.331802,0.175705
477,4.77,-2.532819,1.7206560000000002,-0.239409,0.372803,-0.12301600000000001,0.104324
478,4.78,-3.3998449999999996,1.9661819999999999,0.203734,0.287582,0.10813900000000001,-0.027771
479,4.79,-3.088332,3.196309,-0.667622,0.256683,0.233841,-0.21844499999999997
480,4.8,-1.406964,5.083153,-2.0888009999999997,0.338715,0.15715,-0.460266
481,4.81,0.6688560000000001,6.829502000000001,-2.427079,0.44523599999999997,0.033569,-0.671188
482,4.82,3.020407,8.542552,-1.33638,0.48465,-0.127274,-0.806473
483,4.83,4.234554,9.262255,0.887817,0.435654,-0.136871,-0.9715879999999999
484,4.84,3.6879269999999997,8.628324000000001,2.699615,0.388779,0.115601,-1.22406
485,4.85,0.27517400000000003,5.885905,3.630261,0.43991099999999994,0.348892,-1.41687
486,4.86,-2.448239,2.4895560000000003,3.723679,0.435654,0.423462,-1.332718
487,4.87,-3.759775,-0.9070939999999998,2.9387659999999998,0.304626,0.369141,-1.051483
488,4.88,-2.650952,-3.2411220000000003,2.239563,0.059615999999999995,0.07511899999999999,-0.6690520000000001
489,4.89,-0.725564,-4.139743,2.282972,-0.221619,-0.146454,-0.362259
490,4.9,0.5564290000000001,-4.00145,2.6550540000000002,-0.447449,-0.245529,-0.133224
491,4.91,1.393052,-2.920399,2.749972,-0.507111,-0.343521,0.086212
492,4.92,1.762171,-0.919783,2.720281,-0.399506,-0.419159,0.309921
493,4.93,2.289135,1.574375,2.7010400000000003,-0.2621,-0.452179,0.371704
494,4.94,2.016636,3.231195,3.025516,-0.08952299999999999,-0.354187,0.28862
495,4.95,1.360317,3.291954,2.884091,0.11714200000000001,-0.11236600000000001,0.17038
496,4.96,0.368962,1.949512,2.233131,0.276932,0.163544,0.072372
497,4.97,-0.4645,0.332407,1.308704,0.375992,0.419205,0.012711
498,4.98,-0.8531700000000001,-1.137461,0.616636,0.39624000000000004,0.580063,-0.0075229999999999984
499,4.99,-0.853635,-2.535086,0.353128,0.337646,0.657822,0.015915000000000002
500,5.0,-0.795068,-3.604004,0.410627,0.222595,0.673798,0.059586
501,5.01,-0.605046,-4.143676,0.592715,0.092636,0.663147,0.101135
502,5.02,0.007099000000000022,-4.04964,0.581058,-0.022415000000000004,0.609879,0.137344
503,5.03,0.442223,-3.77094,0.472224,-0.107635,0.560883,0.154388
504,5.04,0.712544,-3.290482,0.44491499999999995,-0.161957,0.5342560000000001,0.154388
505,5.05,0.596655,-2.551318,0.649987,-0.184326,0.533188,0.152267
506,5.06,0.595737,-1.7341119999999999,0.936709,-0.187531,0.554489,0.15971400000000002
507,5.07,0.8659309999999999,-1.174927,1.130908,-0.174744,0.574738,0.143738
508,5.08,1.278248,-0.543195,1.120095,-0.153442,0.568344,0.126694
509,5.09,1.979153,-0.06930999999999997,1.005946,-0.107635,0.5033569999999999,0.11604300000000001
510,5.1,2.55277,0.311527,0.768609,-0.038391,0.419205,0.08728
511,5.11,2.949795,0.483889,0.42211499999999996,0.037247,0.31906100000000004,0.04147300000000001
512,5.12,2.951509,0.5724520000000001,0.143379,0.10968,0.217865,-0.0011290000000000015
513,5.13,2.672356,0.519092,-0.012199000000000002,0.156555,0.13050799999999999,-0.01712
514,5.14,2.381739,0.193627,-0.22165100000000001,0.189575,0.06765700000000001,-0.0032650000000000005
515,5.15,2.216781,-0.31182,-0.43523100000000003,0.186386,0.020798,0.018036
516,5.16,2.112689,-0.867766,-0.717929,0.16081199999999998,-0.034607,0.031891
517,5.17,2.0182860000000002,-1.151148,-1.058591,0.12460299999999999,-0.09211699999999999,0.026566000000000003
518,5.18,1.753308,-1.212807,-1.417519,0.10328699999999999,-0.145386,-0.012847999999999998
519,5.19,1.3262,-1.035469,-1.802414,0.110748,-0.183731,-0.061859000000000004
520,5.2,1.0461129999999998,-0.66776,-2.17048,0.162949,-0.199722,-0.106598
521,5.21,0.919816,-0.43023500000000003,-2.293509,0.24177600000000002,-0.190125,-0.117249
522,5.22,1.038025,-0.48731,-2.208073,0.339783,-0.163498,-0.09274299999999999
523,5.23,1.415867,-0.9013190000000001,-2.187924,0.406891,-0.119827,-0.03949
524,5.24,1.6604990000000002,-1.282534,-2.1431009999999997,0.409027,-0.046326,0.003128000000000001
525,5.25,1.337803,-1.365235,-2.111125,0.36534099999999997,0.075119,-0.014984000000000003
526,5.26,0.440457,-1.154552,-2.2390939999999997,0.34404,0.22319,-0.101273
527,5.27,-0.193804,-0.9113450000000001,-2.111932,0.36322,0.31694,-0.20993
528,5.28,-0.515532,-0.15489600000000006,-1.492207,0.34404,0.29882800000000004,-0.239761
529,5.29,0.22650700000000001,0.5691350000000001,-0.597615,0.253494,0.17419399999999996,-0.127899
530,5.3,1.4128399999999999,0.84349,0.015230999999999996,0.153366,-0.079346,0.044677999999999995
531,5.31,2.580578,1.1283450000000002,-0.515862,0.10861199999999999,-0.275345,0.27050799999999997
532,5.32,3.5109339999999998,1.049618,-1.714639,0.186386,-0.364838,0.511261
533,5.33,3.248527,0.49976400000000004,-2.499032,0.326996,-0.38400300000000004,0.644409
534,5.34,1.4054229999999999,0.537269,-2.9369400000000003,0.442047,-0.314758,0.642288
535,5.35,-1.0533960000000002,1.800745,-2.8921200000000002,0.482529,-0.04525800000000002,0.582626
536,5.36,-2.879683,2.9559740000000003,-1.387293,0.433517,0.352097,0.5368189999999999
537,5.37,-4.343089,3.308702,1.752017,0.230057,0.5779270000000001,0.562393
538,5.38,-4.506133,2.9407330000000003,2.353463,0.166138,0.848511,0.6305689999999999
539,5.39,-4.974215,2.2868779999999997,3.6666769999999995,0.027663999999999998,1.064758,0.815918
540,5.4,-4.596785,1.07789,5.584839,-0.138519,1.179794,1.059875
541,5.41,-2.630777,-0.313025,5.912757,-0.187531,1.203232,1.221786
542,5.42,-0.7608729999999999,-0.832458,4.847537,-0.23866300000000001,1.167023,1.2335049999999999
543,5.43,0.965857,0.03076500000000004,3.905033,-0.32495100000000005,1.143585,1.1397709999999999
544,5.44,2.242387,1.270952,3.757278,-0.36116,1.046646,0.929901
545,5.45,3.3684839999999996,2.705356,2.675107,-0.24078400000000003,0.9848629999999999,0.591156
546,5.46,3.166433,3.5566720000000003,0.30177999999999994,-0.012816999999999995,0.886856,0.22683699999999998
547,5.47,2.749833,3.335891,-0.747071,0.143768,0.648239,-0.017119999999999996
548,5.48,2.766936,1.929168,-0.015434999999999975,0.166138,0.324387,-0.173706
549,5.49,3.026783,0.274295,0.023567000000000005,0.11821,0.045288,-0.297272
550,5.5,3.242755,-1.142975,-0.403807,0.0031589999999999947,-0.235931,-0.43576000000000004
551,5.51,3.0466189999999997,-1.9276959999999999,-0.144876,-0.167282,-0.585342,-0.540161
552,5.52,2.16851,-1.8516650000000001,0.59575,-0.35051,-0.948593,-0.572113
553,5.53,0.853411,-1.012299,1.26476,-0.515625,-1.264984,-0.48049899999999995
554,5.54,0.194075,-0.12663000000000002,1.855805,-0.660507,-1.571777,-0.274902
555,5.55,-0.12583899999999998,0.6200829999999999,2.282269,-0.732941,-1.8061369999999999,-0.06079099999999999
556,5.56,-0.076041,0.9351729999999999,2.182073,-0.683945,-1.925446,0.08088699999999999
557,5.57,-0.59885,0.958421,1.366897,-0.5614319999999999,-1.914795,0.12243699999999999
558,5.58,-1.061566,0.393884,0.81807,-0.448517,-1.830643,0.057449
559,5.59,-2.0935740000000003,-0.5072300000000001,0.298698,-0.388855,-1.616516,-0.059723000000000005
560,5.6,-3.380956,-1.6805330000000003,0.138672,-0.387802,-1.334229,-0.192886
561,5.61,-4.3885760000000005,-2.839096,-0.003736999999999997,-0.41761800000000004,-1.034882,-0.30580100000000005
562,5.62,-4.620874,-3.641029,-0.128281,-0.466629,-0.774963,-0.347351
563,5.63,-4.099715,-3.7976589999999995,-0.25695100000000004,-0.48579399999999995,-0.649261,-0.30580100000000005
564,5.64,-2.939666,-3.378882,-0.497856,-0.48899799999999993,-0.60025,-0.21099899999999996
565,5.65,-1.913847,-2.733321,-0.789321,-0.49111899999999997,-0.560837,-0.123642
566,5.66,-1.062201,-2.2050549999999998,-0.968557,-0.48367299999999996,-0.542725,-0.046936
567,5.67,-0.62759,-1.9115240000000002,-1.079856,-0.466629,-0.542725,-0.0054020000000000006
568,5.68,-0.473037,-1.7451439999999998,-1.181573,-0.438934,-0.505447,0.014846999999999999
569,5.69,-0.77792,-1.701168,-1.330398,-0.390991,-0.45964099999999997,0.021240000000000002
570,5.7,-1.2110969999999999,-1.650141,-1.32489,-0.337723,-0.399979,0.037216
571,5.71,-1.6194950000000001,-1.518155,-1.40239,-0.29086300000000004,-0.339264,0.050003
572,5.72,-1.872224,-1.340545,-1.564656,-0.23866300000000001,-0.2892,0.0681
573,5.73,-1.819334,-1.1854770000000001,-1.7919610000000001,-0.180069,-0.245529,0.08514400000000001
574,5.74,-1.7464950000000001,-0.8790450000000001,-2.163195,-0.11402899999999999,-0.218887,0.09153700000000001
575,5.75,-1.6707880000000002,-0.495493,-2.517861,-0.034134,-0.219955,0.104324
576,5.76,-1.701943,0.012040999999999996,-2.908712,0.070267,-0.20823699999999998,0.11711099999999999
577,5.77,-1.9663700000000002,0.346937,-3.036438,0.171463,-0.206116,0.108582
578,5.78,-2.296067,0.7105130000000001,-2.5403189999999998,0.240707,-0.198654,0.078766
579,5.79,-2.663558,1.2954620000000001,-1.4633200000000002,0.273727,-0.180542,0.0009919999999999998
580,5.8,-2.869062,1.596797,-0.42348199999999997,0.23326100000000002,-0.108109,-0.018172999999999998
581,5.81,-3.215274,1.768257,1.0690620000000002,0.11714200000000001,0.158218,-0.021378
582,5.82,-4.035101,2.07932,2.280981,-0.016022,0.512939,-0.077835
583,5.83,-4.53041,3.606406,1.474485,-0.003235000000000009,0.782455,-0.24295
584,5.84,-3.162816,5.370237,-1.480969,0.24710100000000002,0.8069609999999999,-0.473053
585,5.85,-0.7546149999999999,5.283106,-3.588436,0.633789,0.767548,-0.621124
586,5.86,2.8279349999999996,4.521725,-4.049656,0.862823,0.400024,-0.552948
587,5.87,4.924441000000001,4.449102,-2.801687,0.7530979999999999,0.06765700000000001,-0.368652
588,5.88,6.282079,4.311804,-0.947615,0.527267,-0.145386,-0.353745
589,5.89,4.9883809999999995,3.4284239999999997,0.16307400000000005,0.400497,-0.23913600000000002,-0.641357
590,5.9,2.1765380000000003,2.261203,1.470415,0.332321,-0.18161,-0.917267
591,5.91,-0.5004529999999999,0.454121,2.8565139999999998,0.17999300000000001,-0.16030899999999998,-1.024857
592,5.92,-2.455475,-1.282056,3.9126300000000005,0.0031589999999999947,-0.25618,-0.9087370000000001
593,5.93,-2.67418,-1.7271880000000002,4.793679,-0.19178800000000001,-0.405319,-0.702072
594,5.94,-0.394442,0.092105,6.006238,-0.5049739999999999,-0.573624,-0.27384899999999995
595,5.95,0.23423400000000005,1.486805,4.687936,-0.44319200000000003,-0.554443,0.009521000000000002
596,5.96,1.2425329999999999,2.848364,3.13765,-0.304703,-0.528885,0.234283
597,5.97,1.76052,3.8943410000000003,2.677556,-0.132126,-0.442596,0.27369699999999997
598,5.98,1.624881,3.492036,2.335903,0.07666000000000002,-0.23486300000000002,0.222565
599,5.99,0.849565,1.721888,1.438612,0.23751799999999998,0.03677399999999999,0.127762
600,6.0,-0.53728,-0.31837600000000005,0.189854,0.29504400000000003,0.31694,0.025497
601,6.01,-1.810432,-2.088861,-0.24092600000000003,0.259888,0.535309,-0.020309
602,6.02,-2.576853,-3.230117,0.190657,0.159744,0.674866,0.011642
603,6.03,-2.7138139999999997,-3.979681,0.8546790000000001,0.047897,0.729187,0.08514400000000001
604,6.04,-2.111616,-4.336458,0.9260209999999999,-0.042648,0.720673,0.169312
605,6.05,-0.934435,-4.1024,0.724337,-0.10656700000000001,0.690842,0.211914
606,6.06,0.258209,-3.597768,0.607483,-0.131073,0.6812590000000001,0.197006
607,6.07,0.845166,-2.925894,0.479071,-0.120407,0.695099,0.15971400000000002
608,6.08,1.300258,-2.360373,0.517403,-0.10231,0.7164149999999999,0.156525
609,6.09,2.212239,-2.074958,0.75246,-0.09378099999999999,0.657822,0.151199
610,6.1,2.529887,-1.554233,1.007958,-0.098038,0.581116,0.11711099999999999
611,6.11,2.776451,-1.26044,1.093959,-0.110825,0.552353,0.077698
612,6.12,3.083133,-1.2328860000000001,1.0559399999999999,-0.127869,0.459686,0.02124
613,6.13,2.884372,-0.8792620000000001,0.7831100000000001,-0.153442,0.377655,-0.042679
614,6.14,2.357399,-0.631889,0.486809,-0.15983599999999998,0.332916,-0.081024
615,6.15,1.9282720000000002,-0.341553,0.282352,-0.151306,0.302017,-0.125778
616,6.16,1.3039290000000001,-0.087976,0.005811000000000011,-0.119354,0.267929,-0.174774
617,6.17,0.8948799999999999,0.0509,-0.37829,-0.084198,0.23704499999999998,-0.19500699999999999
618,6.18,0.793745,0.12625999999999998,-0.624762,-0.053299,0.200821,-0.192886
619,6.19,1.090549,-0.072354,-0.916013,-0.036255,0.17099,-0.168381
620,6.2,1.406603,-0.32406799999999997,-1.218422,-0.036255,0.143295,-0.146011
621,6.21,1.780059,-0.595003,-1.46074,-0.05011,0.12412999999999999,-0.13003499999999998
622,6.22,1.8322919999999998,-0.78056,-1.6892479999999999,-0.05011,0.11346400000000001,-0.127899
623,6.23,1.613022,-0.7961600000000001,-1.9779740000000001,-0.020279,0.132645,-0.148148
624,6.24,1.3406959999999999,-0.753314,-2.183659,0.040436,0.148621,-0.161987
625,6.25,1.31901,-0.759629,-2.1776310000000003,0.129929,0.164597,-0.155594
626,6.26,1.7080509999999998,-0.8033,-2.2066619999999997,0.191711,0.194427,-0.122574
627,6.27,2.162778,-0.75967,-2.066442,0.197037,0.209351,-0.078903
628,6.28,2.196332,-0.5239699999999999,-1.759609,0.178925,0.255157,-0.070374
629,6.29,1.253902,-0.221016,-1.81561,0.22047399999999998,0.351028,-0.155594
630,6.3,-0.294011,-0.151854,-2.1139,0.364288,0.46608,-0.323914
631,6.31,-1.308427,0.20801899999999995,-1.6886759999999998,0.49636800000000003,0.44371000000000005,-0.42511000000000004
632,6.32,-1.146204,0.9907090000000001,-0.528722,0.526199,0.323334,-0.30580100000000005
633,6.33,-0.07303599999999999,1.545971,-0.270719,0.501694,0.07299800000000001,-0.06718400000000001
634,6.34,1.605743,1.420683,-1.2897570000000005,0.45909099999999997,-0.17307999999999998,0.292877
635,6.35,3.2721419999999997,1.152535,-3.242802,0.475067,-0.259369,0.620987
636,6.36,2.755677,1.388903,-3.9384949999999996,0.49850500000000003,-0.144318,0.822311
637,6.37,0.667403,1.9839930000000001,-2.802782,0.454834,0.046356,0.845749
638,6.38,-1.046147,2.588813,-0.18512700000000004,0.331253,0.195496,0.794617
639,6.39,-2.351701,3.1693599999999997,1.795411,0.239639,0.363815,0.6678470000000001
640,6.4,-3.4264550000000003,3.429417,2.394767,0.226868,0.553421,0.59967
641,6.41,-4.987975,3.517921,3.407778,0.122467,0.811218,0.718979
642,6.42,-5.654374,2.616622,4.521348000000001,-0.007491999999999999,1.031723,0.998077
643,6.43,-4.039589,0.3051550000000001,4.187641999999999,-0.105499,1.145706,1.277176
644,6.44,-1.477558,-1.417195,3.449922,-0.241852,1.1446530000000001,1.370926
645,6.45,2.0677209999999997,-1.243659,3.3641330000000003,-0.381409,0.9369200000000001,1.289963
646,6.46,4.620305999999999,0.004971999999999976,3.283728,-0.354767,0.7728729999999999,1.080109
647,6.47,6.5129980000000005,1.2353450000000001,1.8450240000000002,-0.219482,0.619476,0.676376
648,6.48,5.646992,2.02046,-0.06651300000000004,-0.047974,0.444763,0.231094
649,6.49,4.599628,2.0757849999999998,-0.761167,0.025528,0.12731900000000002,-0.032027999999999994
650,6.5,4.357374,1.455971,0.11060899999999996,-0.06395,-0.312637,-0.163055
651,6.51,4.063962999999999,0.706112,0.773601,-0.239731,-0.649261,-0.24827600000000002
652,6.52,2.592029,-0.26610100000000003,1.104143,-0.415497,-0.968842,-0.297272
653,6.53,1.2885799999999998,-0.61443,1.415776,-0.566757,-1.299072,-0.24720799999999998
654,6.54,0.26909299999999997,-0.068326,1.6154899999999999,-0.650909,-1.5685879999999999,-0.146011
655,6.55,-0.10942899999999996,0.524256,1.533442,-0.661575,-1.7731169999999998,-0.034164
656,6.56,-0.640401,0.8404360000000001,1.27194,-0.6551819999999999,-1.8423610000000001,0.02124
657,6.57,-1.21469,0.914917,0.851052,-0.617889,-1.786957,0.016968
658,6.58,-1.116846,0.330521,0.41952,-0.55397,-1.659134,-0.045883
659,6.59,-1.35076,-0.4801369999999999,-0.05019599999999999,-0.482605,-1.4823,-0.17157
660,6.6,-2.060273,-1.231169,-0.258542,-0.44638100000000003,-1.266052,-0.300476
661,6.61,-2.622179,-2.1917310000000003,-0.163313,-0.437866,-1.061508,-0.40380900000000003
662,6.62,-3.225606,-3.077632,0.0037800000000000025,-0.46769700000000003,-0.8985290000000001,-0.476242
663,6.63,-3.3823540000000003,-3.495656,0.041711,-0.508163,-0.805847,-0.44534300000000004
664,6.64,-2.92484,-3.3580900000000002,-0.06076899999999999,-0.540131,-0.7877350000000001,-0.32603499999999996
665,6.65,-2.0833909999999998,-2.83383,-0.128075,-0.5614319999999999,-0.8069149999999999,-0.169449
666,6.66,-1.199123,-2.168604,-0.10020700000000002,-0.552917,-0.849533,-0.044815
667,6.67,-0.690505,-1.652484,-0.0393,-0.5294800000000001,-0.874023,0.04361
668,6.68,-0.433346,-1.434373,-0.089554,-0.47514300000000004,-0.8729709999999999,0.09581
669,6.69,-0.597018,-1.3983379999999999,-0.212617,-0.42082200000000003,-0.8601840000000001,0.108582
670,6.7,-0.904492,-1.4929059999999998,-0.27464,-0.372879,-0.817566,0.10646099999999999
671,6.71,-1.3002,-1.6826599999999998,-0.421191,-0.333466,-0.748322,0.09793099999999999
672,6.72,-1.7045400000000002,-1.667175,-0.603733,-0.310028,-0.651382,0.083023
673,6.73,-2.0891319999999998,-1.552836,-0.79643,-0.287659,-0.545929,0.07449299999999999
674,6.74,-2.131358,-1.42695,-0.9535370000000001,-0.254639,-0.467102,0.07130399999999999
675,6.75,-1.9979939999999998,-0.981025,-1.1265209999999999,-0.203506,-0.417038,0.069168
676,6.76,-1.771798,-0.307977,-1.293866,-0.110825,-0.402115,0.07344099999999999
677,6.77,-1.654791,0.38802600000000004,-1.6455529999999998,0.035109999999999995,-0.403183,0.07662999999999999
678,6.78,-1.595684,0.854231,-1.9079970000000002,0.21514899999999998,-0.392532,0.069168
679,6.79,-1.5408899999999999,0.8826440000000001,-1.989809,0.373871,-0.392532,0.057449
680,6.8,-1.4422059999999999,0.599494,-2.208741,0.493179,-0.43513500000000005,0.051056
681,6.81,-1.506253,0.12642,-2.377279,0.56987,-0.47029099999999996,0.064911
682,6.82,-1.943799,-0.140455,-1.896611,0.5464479999999999,-0.402115,0.080887
683,6.83,-2.716302,0.25288499999999997,-0.83254,0.401566,-0.16243,0.057449
684,6.84,-3.829185,0.9415520000000001,0.18603499999999998,0.21621700000000002,0.163544,-0.026703
685,6.85,-4.997178,1.8334279999999998,0.759416,0.070267,0.545975,-0.18223599999999998
686,6.86,-5.228057,3.7780080000000003,0.0014520000000000088,0.074524,0.831467,-0.41020200000000007
687,6.87,-3.4727449999999997,5.320546,-1.075415,0.331253,0.8506319999999999,-0.609406
688,6.88,-0.730137,5.350232,-1.739522,0.741379,0.8069609999999999,-0.683975
689,6.89,2.20297,5.080883999999999,-2.571177,1.013031,0.635452,-0.609406
690,6.9,4.4652,4.469826,-2.5636759999999996,1.124878,0.22425799999999999,-0.421921
691,6.91,6.265108000000001,3.6081540000000003,-1.495552,0.854309,-0.027145,-0.346283
692,6.92,5.231944,2.4038209999999998,0.2856319999999999,0.420746,-0.08467100000000001,-0.567856
693,6.93,2.914647,1.37714,1.886064,0.10328700000000003,-0.069748,-0.827774
694,6.94,1.713323,0.34075,3.3433839999999995,-0.182205,-0.132599,-0.999283
695,6.95,0.677025,-0.196974,4.6070910000000005,-0.415497,-0.26150500000000004,-1.017395
696,6.96,0.48867,-0.222694,5.602686,-0.612564,-0.45431499999999997,-0.9833069999999999
697,6.97,0.744557,0.533176,6.527118,-0.791534,-0.642868,-0.921524
698,6.98,0.365466,2.168399,7.1941679999999995,-0.825623,-0.7185060000000001,-0.6924899999999999
699,6.99,0.587448,3.356355,6.888816,-0.623215,-0.647125,-0.334564
700,7.0,0.683192,3.507104,5.408475,-0.267426,-0.5001220000000001,-0.081024
701,7.01,0.34263899999999997,2.603919,3.0990900000000003,0.04150400000000001,-0.17735299999999998,0.015915000000000002
702,7.02,-0.539198,1.149262,1.29647,0.20343,0.14436300000000002,0.0009919999999999998
703,7.03,-1.90992,-0.474947,0.44293699999999997,0.279053,0.419205,-0.042679
704,7.04,-3.266458,-1.9394810000000002,-0.11772899999999994,0.307816,0.704697,-0.078903
705,7.05,-3.9601580000000003,-3.41949,-0.36533000000000004,0.283325,0.940109,-0.07144199999999999
706,7.06,-3.9918709999999997,-4.726625,-0.141963,0.181061,1.073273,0.0009919999999999998
707,7.07,-3.2665830000000002,-5.448726000000001,0.38146599999999997,0.007416000000000006,1.137192,0.09793100000000003
708,7.08,-1.732156,-5.3261080000000005,1.044445,-0.182205,1.143585,0.178894
709,7.09,-0.08212600000000002,-4.437576,1.430296,-0.339859,1.126541,0.207657
710,7.1,0.8777189999999999,-2.7489060000000003,1.6827419999999997,-0.42401099999999997,1.1137540000000001,0.192749
711,7.11,1.785151,-0.7257929999999999,1.764413,-0.419754,1.095642,0.152267
712,7.12,2.833151,1.208492,1.724373,-0.312164,1.0668790000000001,0.081955
713,7.13,3.6137599999999996,2.59045,1.58986,-0.141724,1.0509030000000001,0.006316999999999996
714,7.14,4.431932,3.084044,1.447292,0.061752000000000015,0.9539639999999999,-0.055465999999999994
715,7.15,4.846114,2.4867939999999997,1.249487,0.272675,0.798431,-0.09062200000000001
716,7.16,4.948611,1.283721,0.814567,0.442047,0.6035,-0.089554
717,7.17,4.55572,-0.2777390000000001,-0.07350600000000003,0.54538,0.402161,-0.055465999999999994
718,7.18,3.8330089999999997,-1.8111170000000003,-1.229951,0.548569,0.183777,-0.004333
719,7.19,3.056123,-2.7363310000000003,-2.292488,0.46228,-0.021819999999999992,0.036148
720,7.2,2.187087,-2.9881729999999997,-2.808509,0.322739,-0.182678,0.047867
721,7.21,1.466795,-2.726222,-3.001677,0.16827399999999998,-0.306244,0.045731
722,7.22,1.006253,-2.4708069999999998,-2.850526,0.025528,-0.41383400000000004,0.051056
723,7.23,0.9915870000000001,-2.299378,-2.43008,-0.104431,-0.5011899999999999,0.062775
724,7.24,1.379181,-2.164576,-1.9357360000000001,-0.203506,-0.555511,0.080887
725,7.25,1.779955,-1.713427,-1.3486559999999999,-0.249313,-0.580017,0.07449299999999999
726,7.26,1.8830330000000002,-0.902913,-0.944398,-0.22055100000000002,-0.5661619999999999,0.044678
727,7.27,1.7258,0.02860000000000001,-0.912889,-0.107635,-0.5256810000000001,0.009521
728,7.28,1.6868560000000001,0.470498,-0.966018,0.078796,-0.48201000000000005,0.000992
729,7.29,1.935201,0.343184,-0.929114,0.296112,-0.44792200000000004,0.039352
730,7.3,2.555209,-0.270398,-0.65109,0.46548500000000004,-0.475616,0.10006699999999999
731,7.31,3.068363,-0.838417,-0.568983,0.530457,-0.536346,0.145874
732,7.32,2.709695,-0.926134,-1.083148,0.510223,-0.5352779999999999,0.1203
733,7.33,1.163209,-0.637992,-2.0915470000000003,0.480392,-0.41597,0.0073850000000000035
734,7.34,0.04343699999999995,-0.623421,-2.953914,0.5240779999999999,-0.296661,-0.13961800000000002
735,7.35,-0.8605889999999999,-0.14758,-2.6625490000000003,0.509155,-0.307312,-0.20033299999999998
736,7.36,-1.090235,0.726205,-1.4206450000000002,0.340851,-0.418091,-0.07251000000000002
737,7.37,-0.30820800000000004,1.254077,-0.781258,0.191711,-0.573624,0.150131
738,7.38,1.3439260000000002,1.492997,-1.3920489999999999,0.187454,-0.6726989999999999,0.426041
739,7.39,1.676608,2.263642,-1.917172,0.29184,-0.633286,0.649734
740,7.4,0.940941,3.2814160000000006,-1.300944,0.37706,-0.478821,0.811661
741,7.41,-0.5667399999999999,4.122025,0.959151,0.358948,-0.360565,0.9149930000000001
742,7.42,-1.631612,4.8746599999999995,2.396379,0.339783,-0.182678,0.8968809999999999
743,7.43,-2.42233,5.089332,2.31216,0.369614,0.054886,0.8287049999999999
744,7.44,-3.861396,4.551645,3.3168260000000003,0.296112,0.356354,0.8287049999999999
745,7.45,-5.145477,3.0615799999999997,4.887504,0.143768,0.69191,0.935226
746,7.46,-4.949975,0.597529,5.141233000000001,-0.014953999999999997,0.941177,1.084366
747,7.47,-3.452265,-1.357711,4.363519,-0.222687,1.058365,1.157867
748,7.48,-1.2987,-1.924103,4.03217,-0.403778,1.032791,1.135498
749,7.49,1.565113,-0.657825,4.15181,-0.457031,0.9315950000000001,0.9948879999999999
750,7.5,3.7354019999999997,1.04746,3.176916,-0.341995,0.8197479999999999,0.691284
751,7.51,4.621855,2.540483,1.1069959999999999,-0.128937,0.743042,0.313126
752,7.52,3.6816,3.17425,-0.11158500000000003,0.090515,0.596039,0.062775
753,7.53,3.4592940000000003,2.440588,0.119094,0.222595,0.321198,-0.01712
754,7.54,3.8315230000000002,1.0690680000000001,0.00014999999999998348,0.25135799999999997,0.03784200000000002,-0.068253
755,7.55,3.963722,-0.7682479999999999,-0.6866949999999999,0.214081,-0.186935,-0.16731300000000002
756,7.56,3.4131110000000002,-2.273615,-0.861821,0.079849,-0.37760900000000003,-0.334564
757,7.57,1.9476209999999998,-3.143602,-0.499929,-0.111893,-0.621567,-0.5103300000000001
758,7.58,0.41238100000000005,-2.898904,0.112194,-0.319626,-0.925156,-0.5422819999999999
759,7.59,-0.4838210000000001,-1.782714,0.9363799999999999,-0.555038,-1.221298,-0.434692
760,7.6,-0.639674,-0.8492120000000001,1.725539,-0.749985,-1.448212,-0.228043
761,7.61,-0.328338,0.007384999999999975,2.24713,-0.826691,-1.610123,-0.010727
762,7.62,0.017928,0.868533,2.398046,-0.739334,-1.68576,0.13308699999999998
763,7.63,-0.108465,1.353364,2.000481,-0.544388,-1.6601869999999999,0.184219
764,7.64,-0.611679,1.028844,1.208124,-0.339859,-1.539825,0.13308699999999998
765,7.65,-1.812847,0.254889,0.617408,-0.185394,-1.3491360000000001,-0.005402000000000004
766,7.66,-3.373358,-0.804728,0.3507290000000001,-0.092712,-1.0679020000000001,-0.169449
767,7.67,-4.352993,-1.7307560000000002,-0.10678500000000002,-0.057555999999999996,-0.794128,-0.278107
768,7.68,-4.275995,-2.341968,-0.564925,-0.058624,-0.611969,-0.295151
769,7.69,-2.930439,-2.454182,-0.834233,-0.09059099999999999,-0.509705,-0.253601
770,7.7,-1.554219,-2.37062,-0.910825,-0.131073,-0.464966,-0.207794
771,7.71,-0.647004,-2.212441,-0.8395219999999999,-0.169418,-0.46070900000000004,-0.158798
772,7.72,-0.210221,-2.201295,-0.734152,-0.193924,-0.484146,-0.11299100000000001
773,7.73,-0.239614,-2.12225,-0.646166,-0.218414,-0.505447,-0.070374
774,7.74,-0.723011,-2.041674,-0.419788,-0.23120100000000002,-0.511841,-0.024567
775,7.75,-1.242931,-1.9429889999999999,-0.31616,-0.222687,-0.488403,0.031891
776,7.76,-1.6243,-1.807177,-0.416739,-0.184326,-0.456451,0.089417
777,7.77,-1.6701849999999998,-1.744045,-0.690395,-0.140656,-0.42555200000000004,0.14267
778,7.78,-1.458561,-1.7073880000000001,-0.963814,-0.09378099999999999,-0.399979,0.182083
779,7.79,-0.952907,-1.4898850000000001,-1.1641700000000001,-0.039459000000000015,-0.395721,0.198074
780,7.8,-0.51265,-1.0463049999999998,-1.41131,0.039383,-0.42555200000000004,0.18528699999999998
781,7.81,-0.357588,-0.562565,-1.654209,0.149094,-0.47029099999999996,0.14799500000000002
782,7.82,-0.492076,-0.16663300000000006,-1.699254,0.250305,-0.5011899999999999,0.089417
783,7.83,-0.6349670000000001,0.10716300000000001,-1.6202530000000002,0.321671,-0.56723,0.026566000000000003
784,7.84,-0.868469,0.292908,-1.472982,0.37493899999999997,-0.634338,-0.016052
785,7.85,-1.252729,0.33812,-1.107238,0.41114799999999996,-0.639664,-0.020309
786,7.86,-1.8091169999999999,0.202353,-0.210796,0.379196,-0.49266099999999996,0.013779
787,7.87,-2.710243,0.305699,0.865242,0.260956,-0.22634899999999997,0.011642
788,7.88,-3.6999150000000003,0.7452340000000001,1.559898,0.13525399999999999,0.08258099999999999,-0.043747
789,7.89,-4.236063,2.1732650000000002,0.677075,0.07666,0.343567,-0.188614
790,7.9,-3.4805230000000003,3.777136,-1.294775,0.185318,0.434113,-0.39421100000000003
791,7.91,-1.665341,3.924589,-2.727496,0.446304,0.400024,-0.533768
792,7.92,0.809385,3.699529,-3.611909,0.628464,0.293503,-0.522049
793,7.93,2.986987,3.689686,-3.921437,0.6966399999999999,-0.044189000000000006,-0.396347
794,7.94,5.175466,4.466417,-3.0461139999999998,0.66362,-0.3936,-0.256805
795,7.95,6.566258,5.458917,-1.086906,0.483597,-0.629013,-0.31005900000000003
796,7.96,5.190675,5.532422,0.09381500000000004,0.382385,-0.623688,-0.605133
797,7.97,1.7383709999999999,3.836438,0.70385,0.34510799999999997,-0.536346,-0.8618620000000001
798,7.98,-0.432658,1.6429310000000001,2.30485,0.182114,-0.538467,-0.9289860000000001
799,7.99,-1.51237,-0.182964,3.965009,-0.039459,-0.551254,-0.8618620000000001
800,8.0,-1.8081740000000002,-1.2823200000000001,5.059133,-0.23759499999999997,-0.626892,-0.745758
801,8.01,-1.513779,-1.712227,5.867989,-0.370758,-0.696136,-0.579575
802,8.02,-0.7171109999999999,-1.601083,5.592151,-0.42082200000000003,-0.798401,-0.32603499999999996
803,8.03,0.603376,-0.7920699999999999,3.934804,-0.354767,-0.847397,-0.033096000000000014
804,8.04,1.5871389999999999,0.943779,2.353592,-0.285522,-0.844208,0.188477
805,8.05,2.1955150000000003,2.9283349999999997,2.10269,-0.22587600000000002,-0.812241,0.252396
806,8.06,1.904161,3.990856,1.929459,-0.108704,-0.669495,0.228958
807,8.07,0.9243950000000001,3.61079,1.324301,-4.599999999999049e-05,-0.41490200000000005,0.174637
808,8.08,-0.447134,2.012851,0.8781979999999999,0.078796,-0.10704000000000001,0.11711099999999999
809,8.09,-1.511456,0.18936200000000006,0.793908,0.138443,0.132645,0.1203
810,8.1,-1.663024,-1.495539,1.003574,0.162949,0.28071599999999997,0.16185
811,8.11,-1.530318,-2.926471,1.229925,0.12779200000000002,0.337173,0.220444
812,8.12,-1.102293,-3.909588,1.165042,0.063873,0.33078,0.28009
813,8.13,-0.413753,-4.1812059999999995,0.7665,-0.016022,0.257278,0.31845100000000004
814,8.14,0.472077,-4.289703,0.41452700000000003,-0.098038,0.166733,0.316315
815,8.15,0.919464,-4.037001,0.20019,-0.17793299999999998,0.079376,0.282227
816,8.16,1.085065,-3.2324490000000003,0.31935399999999997,-0.235458,-0.0047760000000000025,0.243881
817,8.17,1.501831,-2.2258139999999997,0.610088,-0.267426,-0.052703999999999994,0.212982
818,8.18,1.889941,-1.415359,0.910384,-0.271683,-0.086792,0.177826
819,8.19,2.296434,-0.553864,1.106854,-0.24610900000000002,-0.11450199999999999,0.137344
820,8.2,2.83993,0.130582,1.1274819999999999,-0.186462,-0.17307999999999998,0.089417
821,8.21,3.5932800000000005,0.6727420000000001,0.72402,-0.11508199999999999,-0.251907,0.042542
822,8.22,3.998995,1.1742190000000001,0.33613000000000004,-0.061828999999999995,-0.340332,-0.020309
823,8.23,3.900939,1.37689,0.111852,-0.009627999999999998,-0.42341599999999996,-0.07251
824,8.24,3.5932769999999996,1.003693,-0.254343,0.04364,-0.526749,-0.09806799999999999
825,8.25,2.630861,0.205253,-0.380198,0.084122,-0.634338,-0.093811
826,8.26,1.665802,-0.69425,-0.49074799999999996,0.115005,-0.72702,-0.06504800000000001
827,8.27,0.7777850000000001,-1.233638,-0.937969,0.106491,-0.779221,-0.020309
828,8.28,0.46869799999999995,-1.332125,-1.5353299999999999,0.06813,-0.823959,0.036148
829,8.29,0.716377,-1.2135120000000001,-2.074346,0.012741000000000006,-0.8676299999999999,0.084091
830,8.3,1.1987379999999999,-0.837181,-2.16172,-0.034134,-0.8910680000000001,0.11711099999999999
831,8.31,1.5876569999999999,-0.251248,-2.286175,-0.036255,-0.864441,0.140549
832,8.32,1.869441,0.086948,-2.260208,-4.6000000000000895e-05,-0.797333,0.163986
833,8.33,2.029697,-0.043297,-2.0719950000000003,0.071335,-0.71637,0.184219
834,8.34,2.393272,-0.546983,-1.6847330000000003,0.158691,-0.652451,0.204468
835,8.35,2.910468,-1.089679,-1.251409,0.213013,-0.635406,0.208725
836,8.36,3.179193,-1.465727,-1.033792,0.20875500000000002,-0.649261,0.18103
837,8.37,2.2058880000000003,-1.455107,-1.36579,0.16507,-0.580017,0.10965
838,8.38,0.4459249999999999,-1.2647620000000002,-1.999341,0.172531,-0.42341599999999996,-0.029891999999999995
839,8.39,-1.2232100000000001,-0.879827,-2.177074,0.275864,-0.244461,-0.203537
840,8.4,-2.380655,-0.269988,-1.216002,0.367477,-0.183731,-0.3367
841,8.41,-2.4215880000000003,0.617164,-0.848216,0.358948,-0.24658200000000002,-0.251465
842,8.42,-1.367744,1.421284,-1.209676,0.273727,-0.358444,-0.018172999999999998
843,8.43,-0.428601,2.102491,-1.5185600000000001,0.166138,-0.408508,0.29180900000000004
844,8.44,-0.222561,3.112005,-0.878898,0.11821,-0.399979,0.655075
845,8.45,-1.021458,3.9145980000000002,0.15405199999999994,0.07559199999999999,-0.294525,0.975708
846,8.46,-1.0791620000000002,3.8940639999999997,1.519643,0.016998,-0.24765,1.146149
847,8.47,-0.387432,3.576402,2.166497,-0.00856,-0.20291099999999998,1.180237
848,8.48,-0.125889,2.8063540000000002,2.29009,-0.055435000000000005,0.006942999999999991,1.128052
849,8.49,0.45297299999999996,1.309577,3.353657,-0.138519,0.181641,1.00235
850,8.5,0.572809,-0.06455900000000002,4.346849,-0.204575,0.377655,0.839355
851,8.51,0.225505,-1.006327,4.419768,-0.257828,0.630127,0.6721189999999999
852,8.52,0.30378,-1.294554,3.8309830000000002,-0.337723,0.773941,0.525101
853,8.53,0.964838,-0.722426,3.22377,-0.42082200000000003,0.81015,0.34081999999999996
854,8.54,1.4028639999999999,0.5808420000000001,2.331644,-0.419754,0.736649,0.12243699999999999
855,8.55,1.3867129999999999,1.8597139999999999,1.383548,-0.305771,0.599228,-0.032027999999999994
856,8.56,1.4808370000000002,2.4024970000000003,1.1337030000000001,-0.170486,0.378723,-0.076767
857,8.57,2.333958,1.8109990000000002,1.388823,-0.056503,0.09748800000000002,-0.056534
858,8.58,3.3640309999999998,0.92053,1.343525,0.007415999999999998,-0.14859,-0.066116
859,8.59,3.211896,0.060809,1.2343709999999999,0.03299,-0.331802,-0.132156
860,8.6,1.566375,-0.646217,1.20668,0.019135,-0.46922299999999995,-0.22376999999999997
861,8.61,0.03840299999999997,-0.817497,1.096765,-0.036255,-0.655655,-0.272781
862,8.62,-0.916647,-0.639691,1.053044,-0.117218,-0.819702,-0.24295
863,8.63,-1.193764,-0.010892000000000013,0.9617040000000001,-0.202438,-0.905991,-0.154526
864,8.64,-0.412931,0.22524,0.94395,-0.258896,-0.981613,-0.056534
865,8.65,0.453161,0.14594400000000002,0.9236409999999999,-0.269547,-1.064713,-0.0075229999999999984
866,8.66,1.0439129999999999,-0.11039400000000002,0.812042,-0.255707,-1.1126559999999999,-0.013916
867,8.67,0.997704,-0.634311,0.613338,-0.221619,-1.14035,-0.038422000000000005
868,8.68,0.70158,-1.078043,0.29495,-0.192856,-1.1307530000000001,-0.088486
869,8.69,-0.16864800000000002,-1.277327,-0.11008499999999999,-0.181137,-1.078552,-0.128967
870,8.7,-1.1470639999999999,-1.3091709999999999,-0.5810930000000001,-0.167282,-0.9730989999999999,-0.14494300000000002
871,8.71,-1.645132,-1.394552,-0.722304,-0.161957,-0.8601840000000001,-0.13961800000000002
872,8.72,-1.7016310000000001,-1.244903,-0.500085,-0.13000499999999998,-0.76857,-0.14068599999999998
873,8.73,-1.6227260000000001,-0.864368,-0.0033429999999999853,-0.056503,-0.669495,-0.156662
874,8.74,-1.708482,-0.788241,0.47688100000000005,0.083054,-0.533142,-0.181168
875,8.75,-1.7670279999999998,-1.087895,0.17223699999999995,0.23326100000000002,-0.42448400000000003,-0.19181800000000002
876,8.76,-1.84865,-1.671761,-0.813921,0.284393,-0.370163,-0.170517
877,8.77,-1.814224,-2.2792369999999997,-1.45373,0.218338,-0.335007,-0.122574
878,8.78,-1.566114,-2.575291,-1.511431,0.115005,-0.294525,-0.066116
879,8.79,-1.215541,-2.436152,-1.286208,0.042572000000000006,-0.252975,-0.010727
880,8.8,-0.932033,-2.060371,-1.102818,0.016998,-0.22316,0.042542
881,8.81,-0.762243,-1.736959,-1.153752,0.021271,-0.196518,0.083023
882,8.82,-0.561701,-1.61404,-1.3113920000000001,0.044708,-0.157104,0.11711099999999999
883,8.83,-0.280571,-1.51216,-1.5437299999999998,0.081985,-0.135803,0.12243699999999999
884,8.84,-0.08294,-1.2988979999999999,-1.72285,0.137375,-0.15603599999999998,0.112854
885,8.85,-0.11813499999999999,-1.124668,-2.092821,0.214081,-0.166687,0.096863
886,8.86,-0.36548,-0.984427,-2.332382,0.285446,-0.18161,0.083023
887,8.87,-0.968778,-0.9050950000000001,-2.30829,0.34404,-0.175217,0.064911
888,8.88,-1.463773,-0.721865,-2.011468,0.36640900000000004,-0.168823,0.046799
889,8.89,-1.7599169999999997,-0.42435500000000004,-1.752291,0.390915,-0.184799,0.026566000000000003
890,8.9,-1.6840549999999999,-0.180122,-1.695929,0.443115,-0.215698,0.022308
891,8.91,-1.38628,0.04908,-1.451592,0.47187799999999996,-0.206116,0.036148
892,8.92,-1.37705,0.417971,-0.6091,0.400497,-0.059097000000000004,0.027634
893,8.93,-2.002,1.023894,0.3992089999999999,0.279053,0.155014,-0.05014
894,8.94,-2.850444,1.981483,0.605743,0.201294,0.375519,-0.159866
895,8.95,-2.982332,3.27422,-0.7586530000000002,0.240707,0.520401,-0.294083
896,8.96,-2.099443,3.8410230000000003,-2.202905,0.382385,0.48844899999999997,-0.395279
897,8.97,0.030918,4.525706,-3.2888589999999995,0.579468,0.288177,-0.43576000000000004
898,8.98,2.506908,5.226025,-3.501225,0.70517,0.025054999999999997,-0.43150299999999997
899,8.99,4.653839,5.867614,-1.9404060000000003,0.633789,-0.14859,-0.370789
900,9.0,5.199665,5.909492,-0.54652,0.535782,-0.172012,-0.462387
901,9.01,2.792785,5.175519,-0.30847600000000003,0.483597,-0.201843,-0.708466
902,9.02,0.1009549999999999,4.224689,0.3179739999999999,0.420746,-0.254044,-0.853348
903,9.03,-1.3141770000000002,2.6979610000000003,2.1469400000000003,0.250305,-0.264694,-0.876785
904,9.04,-1.624582,1.311993,4.179046,0.022339,-0.28067,-0.8107300000000001
905,9.05,-1.165098,0.334574,5.4471169999999995,-0.16409300000000002,-0.354187,-0.6232449999999999
906,9.06,0.19149799999999995,-0.680571,5.584601,-0.277008,-0.484146,-0.340958
907,9.07,1.787714,-1.629865,4.083831,-0.292984,-0.621567,-0.046936000000000005
908,9.08,2.7837080000000003,-2.0080169999999997,2.275184,-0.251434,-0.8069149999999999,0.212982
909,9.09,3.3348769999999996,-1.5071860000000001,1.6585349999999999,-0.203506,-0.9006649999999999,0.361053
910,9.1,3.089153,-0.684383,1.711691,-0.14917,-0.854858,0.358917
911,9.11,1.7990400000000002,-0.8847430000000001,1.3081770000000001,-0.105499,-0.689743,0.252396
912,9.12,0.12970199999999987,-2.090632,0.8462069999999999,-0.104431,-0.443665,0.124573
913,9.13,-1.559819,-3.3510730000000004,0.8858719999999999,-0.14491300000000001,-0.189056,0.047867
914,9.14,-2.765498,-4.069138,1.467838,-0.21415700000000001,0.014403999999999998,0.051056
915,9.15,-3.315919,-3.8505910000000005,2.383342,-0.304703,0.147552,0.12883
916,9.16,-2.395457,-2.516153,3.117616,-0.41017200000000004,0.23278800000000002,0.252396
917,9.17,-0.15613999999999995,-0.1197889999999997,3.3243169999999997,-0.47621199999999997,0.292435,0.28436300000000003
918,9.18,1.380309,2.158894,2.970158,-0.448517,0.384048,0.189545
919,9.19,2.360687,3.850207,2.165166,-0.294052,0.442642,0.053191999999999996
920,9.2,3.062352,4.5130930000000005,0.8879469999999999,-0.101242,0.39150999999999997,-0.040543
921,9.21,3.4868120000000005,3.9395870000000004,0.08257500000000001,0.059616,0.287109,-0.049072000000000005
922,9.22,3.22116,2.053639,-0.47280900000000003,0.167206,0.14968900000000002,0.008452999999999999
923,9.23,2.866602,-0.4330480000000001,-0.9596549999999999,0.18850699999999998,-0.031403,0.10646099999999999
924,9.24,2.386704,-2.6059900000000003,-1.377313,0.156555,-0.21463000000000002,0.20979299999999998
925,9.25,1.869393,-3.848556,-1.434552,0.091568,-0.38293499999999997,0.307785
926,9.26,1.4170049999999998,-3.7924510000000002,-1.384858,0.015944999999999997,-0.48307799999999995,0.368515
927,9.27,0.61812,-2.992053,-1.347216,-0.05011,-0.5001220000000001,0.361053
928,9.28,-0.09519999999999998,-2.180017,-1.2028379999999999,-0.095917,-0.450058,0.329102
929,9.29,-0.6181270000000001,-1.608487,-1.06741,-0.11615,-0.326477,0.27157600000000004
930,9.3,-0.268785,-1.7701080000000002,-1.105221,-0.127869,-0.22953800000000002,0.26731900000000003
931,9.31,0.6854119999999999,-2.0579650000000003,-1.0279639999999999,-0.1577,-0.15603599999999998,0.263046
932,9.32,1.680734,-2.1589650000000002,-0.8839290000000001,-0.204575,-0.10704000000000001,0.235352
933,9.33,2.339556,-1.89088,-0.810976,-0.252502,-0.075073,0.172501
934,9.34,2.625424,-1.394101,-0.853743,-0.27807600000000005,-0.069748,0.080887
935,9.35,2.584594,-0.808755,-0.913014,-0.267426,-0.079346,-0.016051999999999997
936,9.36,2.243361,-0.353744,-0.876906,-0.20137,-0.08467100000000001,-0.088486
937,9.37,1.596635,-0.141254,-0.886483,-0.101242,-0.082535,-0.11938499999999999
938,9.38,1.1834280000000001,0.041587,-1.087099,0.007415999999999998,-0.065491,-0.091675
939,9.39,1.120175,0.159518,-1.34141,0.11288499999999999,-0.044189,-0.026703000000000005
940,9.4,1.376998,0.320422,-1.5267540000000002,0.195969,-0.028214,0.039352
941,9.41,1.6615689999999999,0.486821,-1.714348,0.26414499999999996,0.003754,0.0681
942,9.42,1.687868,0.488257,-1.9972560000000001,0.323807,0.081512,0.053191999999999996
943,9.43,1.538577,0.302937,-2.431979,0.399429,0.159271,-0.012847999999999998
944,9.44,1.5164440000000001,0.06420900000000003,-2.693845,0.443115,0.172058,-0.055465999999999994
945,9.45,1.6399099999999998,0.289583,-2.043282,0.375992,0.074051,-0.037354000000000005
946,9.46,1.943775,0.725913,-1.131177,0.260956,-0.043121,0.070236
947,9.47,2.354414,1.021268,-0.6176659999999999,0.176788,-0.200775,0.190613
948,9.48,2.2568349999999997,1.8372580000000003,-1.1688040000000002,0.171463,-0.3414,0.442017
949,9.49,1.304757,2.52366,-1.8975220000000002,0.26521300000000003,-0.288132,0.618851
950,9.5,-0.27210899999999993,3.253984,-1.575287,0.33657800000000004,-0.222092,0.747742
951,9.51,-1.425657,3.755928,-0.28263899999999986,0.32806399999999997,-0.127274,0.824448
952,9.52,-1.907431,4.248335,0.487969,0.316345,-0.176285,0.8340299999999999
953,9.53,-1.80087,4.137086,-0.079204,0.355759,-0.081467,0.878769
954,9.54,-1.581488,3.3189839999999995,0.232409,0.290771,0.07299800000000001,0.9618680000000001
955,9.55,-1.402187,1.7833080000000001,2.255144,0.157623,0.296692,1.145096
956,9.56,-0.827536,0.521436,2.75189,0.09689299999999999,0.470337,1.2612
957,9.57,-0.420609,-0.813357,3.247963,-0.018143,0.663147,1.289963
958,9.58,-0.419216,-2.016155,4.22091,-0.166214,0.865555,1.203674
959,9.59,-0.602604,-2.824484,4.775525,-0.27807600000000005,1.043442,1.005539
960,9.6,-0.749061,-2.958452,4.231451,-0.314285,1.153168,0.69342
961,9.61,-0.9768209999999999,-2.0485860000000002,3.1608110000000003,-0.318558,1.154236,0.375961
962,9.62,-0.931358,-0.5333319999999999,2.337327,-0.259964,1.094574,0.157593
963,9.63,-0.568513,0.997917,1.99753,-0.13533,0.9465030000000001,0.051056
964,9.64,0.116506,2.0054,1.70167,0.008483999999999998,0.7164149999999999,0.036148
965,9.65,1.041557,2.390172,1.378833,0.106491,0.47459399999999996,0.037216
966,9.66,1.682075,2.669498,1.112386,0.156555,0.22106900000000002,-0.009658999999999996
967,9.67,1.641445,2.742109,1.202797,0.178925,-0.033539,-0.103394
968,9.68,1.375405,2.5070919999999997,0.8968299999999999,0.18425,-0.276413,-0.201401
969,9.69,1.0236459999999998,2.1581669999999997,0.476969,0.146973,-0.484146,-0.27384899999999995
970,9.7,0.829709,1.808295,0.711545,0.061752,-0.658844,-0.31005900000000003
971,9.71,0.907883,1.566819,1.190216,-0.019211000000000002,-0.7888029999999999,-0.321777
972,9.72,0.679549,0.972866,1.617908,-0.046906,-0.8729709999999999,-0.340958
973,9.73,0.486299,0.31423499999999993,1.35404,-0.06715399999999999,-0.903854,-0.355865
974,9.74,0.127839,-0.579491,0.6903059999999999,-0.096985,-0.8889469999999999,-0.375046
975,9.75,-0.476183,-1.830611,-0.168846,-0.151306,-0.8324889999999999,-0.396347
976,9.76,-1.452536,-3.070782,-1.124683,-0.253571,-0.750458,-0.413391
977,9.77,-2.3995849999999996,-3.8044860000000003,-1.6811479999999999,-0.393127,-0.631149,-0.427246
978,9.78,-3.4222360000000003,-4.103806,-1.224256,-0.575287,-0.476685,-0.401672
979,9.79,-3.448629,-3.780222,-0.5031770000000001,-0.625351,-0.381882,-0.343079
980,9.8,-2.852718,-3.163226,-0.33655999999999997,-0.612564,-0.284943,-0.269577
981,9.81,-1.9969290000000002,-2.449239,-0.335498,-0.568893,-0.186935,-0.20672600000000002
982,9.82,-1.498729,-1.7840740000000002,-0.511742,-0.509232,-0.116623,-0.16731300000000002
983,9.83,-1.282781,-1.471789,-0.632745,-0.45170600000000005,-0.068695,-0.126831
984,9.84,-1.395585,-1.493941,-0.879301,-0.414429,-0.015427000000000001,-0.079971
985,9.85,-1.761364,-1.75527,-0.9084840000000001,-0.398453,0.023987,-0.017120000000000003
986,9.86,-1.988012,-1.887087,-0.724101,-0.388855,0.074051,0.060654
987,9.87,-2.09576,-1.7443790000000001,-0.625959,-0.372879,0.128387,0.10646099999999999
988,9.88,-2.145361,-1.491366,-0.570628,-0.316422,0.19656400000000002,0.129898
989,9.89,-2.133779,-1.1683649999999999,-0.554578,-0.22480799999999998,0.25088499999999997,0.130951
990,9.9,-1.9033259999999999,-0.647982,-0.8108489999999999,-0.117218,0.304153,0.1203
991,9.91,-1.6377950000000001,-0.09630500000000004,-1.1107989999999999,-0.012817000000000002,0.315872,0.09581
992,9.92,-1.50252,0.32453000000000004,-1.311682,0.091568,0.343567,0.055327999999999995
993,9.93,-1.5846719999999999,0.485834,-1.414005,0.166138,0.362747,-0.0032650000000000005
994,9.94,-1.8223340000000001,0.45411,-1.4922799999999998,0.21727,0.368073,-0.06398
995,9.95,-1.8049259999999998,0.404491,-1.570956,0.249237,0.34463499999999997,-0.09274299999999999
996,9.96,-1.246142,0.42932200000000004,-1.8932740000000001,0.284393,0.261536,-0.07357799999999999
997,9.97,-0.48111899999999996,0.550775,-2.2812189999999997,0.353622,0.148621,-0.014984
998,9.98,-0.07860599999999998,0.382308,-2.624141,0.371735,0.147552,0.024429
999,9.99,-0.414071,0.7157,-1.7880330000000002,0.257751,0.145432,0.0052640000000000004
1000,10.0,-0.992776,1.652457,-1.084674,0.172531,0.18591300000000002,-0.048004000000000005
1001,10.01,-1.2631059999999998,2.579297,-1.411748,0.194901,0.22106900000000002,-0.088486
1002,10.02,-1.196519,3.3239449999999997,-2.03025,0.29184,0.21254,-0.125778
1003,10.03,-0.150887,4.543663,-2.395557,0.446304,0.10813900000000001,-0.204605
1004,10.04,1.0489469999999999,6.168661,-1.517558,0.553894,-0.07081599999999999,-0.354797
1005,10.05,1.6926189999999999,7.44453,0.824463,0.482529,-0.007964999999999986,-0.535904
1006,10.06,0.6045540000000001,6.6222520000000005,1.562866,0.432465,0.355286,-0.813934
1007,10.07,-1.657044,4.098224,0.986246,0.338715,0.478851,-1.032318
1008,10.08,-2.502224,1.82283,2.08813,0.122467,0.45436099999999996,-1.135635
1009,10.09,-2.557588,-0.04664899999999994,3.362631,-0.06715399999999999,0.450089,-1.1271209999999998
1010,10.1,-2.159557,-1.745756,3.428829,-0.19072,0.369141,-0.9375
1011,10.11,-1.092777,-2.923316,3.318139,-0.335602,0.20828200000000002,-0.587036
1012,10.12,-0.3445889999999999,-3.7057330000000004,3.112695,-0.415497,0.160339,-0.23123200000000002
1013,10.13,0.24777399999999997,-3.502786,2.505249,-0.375015,0.117737,0.057448999999999986
1014,10.14,0.642263,-2.021789,2.2933529999999998,-0.301514,0.090042,0.17996199999999998
1015,10.15,0.08316299999999999,-0.423996,2.22407,-0.233337,0.27858,0.13841199999999998
1016,10.16,-0.759592,0.535565,2.200511,-0.21415700000000001,0.559814,0.005264000000000005
1017,10.17,-1.754938,0.8577809999999999,2.3476779999999997,-0.203506,0.863419,-0.141754
1018,10.18,-2.0650470000000003,0.48354600000000003,2.223184,-0.156631,1.112686,-0.220581
1019,10.19,-1.452869,0.230242,1.8876830000000002,-0.11296099999999999,1.221344,-0.219513
1020,10.2,-0.3358490000000001,0.11572,1.672853,-0.09059099999999999,1.2128299999999999,-0.164124
1021,10.21,0.657945,0.273204,1.7602060000000002,-0.10656700000000001,1.1712799999999999,-0.091675
1022,10.22,1.5641610000000001,0.426908,1.7549970000000001,-0.121475,1.121216,-0.026702999999999998
1023,10.23,2.0172369999999997,0.61764,1.158167,-0.098038,1.078598,0.0009919999999999998
1024,10.24,1.7459099999999999,0.622966,0.29775799999999997,-0.053299,1.057297,-7.59999999999999e-05
1025,10.25,1.1483370000000002,0.13502600000000006,-0.222519,-0.022415,1.049835,0.0009919999999999998
1026,10.26,0.418567,-0.596406,-0.35672800000000005,-0.018143,1.0253450000000002,0.0063170000000000006
1027,10.27,0.09089899999999998,-1.44323,-0.573616,-0.030930000000000003,1.022141,0.014846999999999999
1028,10.28,-0.064448,-1.90793,-0.885963,-0.06289700000000001,1.0200040000000001,0.0052640000000000004
1029,10.29,-0.07976699999999999,-2.165609,-1.1022319999999999,-0.104431,0.9987030000000001,0.007384999999999999
1030,10.3,0.212402,-1.880323,-0.869561,-0.138519,0.9518280000000001,0.023361
1031,10.31,0.730995,-1.389831,-0.536343,-0.137451,0.922012,0.03508
1032,10.32,1.184046,-1.027272,-0.496514,-0.105499,0.8900450000000001,0.041473
1033,10.33,1.612027,-0.970791,-0.571191,-0.077805,0.846375,0.051056
1034,10.34,1.9610439999999998,-1.108259,-0.682802,-0.06501799999999999,0.7728729999999999,0.045731
1035,10.35,2.083596,-1.376784,-0.8954059999999999,-0.068222,0.698303,0.034012
1036,10.36,2.094334,-1.606868,-1.018916,-0.089523,0.620544,0.0009919999999999998
1037,10.37,1.916035,-1.6523,-1.009401,-0.101242,0.54277,-0.042679
1038,10.38,1.714184,-1.681613,-0.965958,-0.092712,0.471405,-0.088486
1039,10.39,1.57388,-1.7087599999999998,-1.0814290000000002,-0.066086,0.411743,-0.13003499999999998
1040,10.4,1.3793950000000001,-1.750393,-1.295744,-0.039458999999999994,0.355286,-0.160919
1041,10.41,1.169154,-1.625351,-1.479781,-0.010695999999999999,0.308411,-0.17690999999999998
1042,10.42,1.085374,-1.404758,-1.569633,0.03511,0.265808,-0.173706
1043,10.43,1.3119120000000002,-1.1844219999999999,-1.745167,0.10861199999999999,0.194427,-0.1492
1044,10.44,1.7825400000000002,-1.0648870000000001,-1.880243,0.191711,0.11985799999999999,-0.11617999999999999
1045,10.45,2.308375,-0.85862,-1.7381939999999998,0.248169,0.032516,-0.082092
1046,10.46,2.57744,-0.594295,-1.391969,0.257751,-0.032471,-0.052261
1047,10.47,2.322035,-0.341988,-1.197476,0.25242600000000004,-0.033539,-0.06398
1048,10.48,1.377527,-0.012013999999999995,-1.199649,0.267349,-0.020752,-0.15240499999999998
1049,10.49,0.236146,0.438978,-1.051977,0.280121,-0.06442300000000001,-0.25892600000000005
1050,10.5,-0.486234,0.9940690000000001,-0.33323,0.24710100000000002,-0.219955,-0.256805
1051,10.51,-0.23093400000000003,1.433517,0.631545,0.18425,-0.404251,-0.127899
1052,10.52,0.46113,2.0194400000000003,0.644311,0.136322,-0.576813,0.06065400000000001
1053,10.53,1.1914790000000002,2.355843,-1.047181,0.181061,-0.631149,0.306732
1054,10.54,1.411689,1.653202,-2.622166,0.274796,-0.554443,0.501663
1055,10.55,0.813393,1.121685,-3.124357,0.35257,-0.443665,0.529373
1056,10.56,-0.555492,1.495631,-3.440322,0.398376,-0.245529,0.404724
1057,10.57,-2.566831,2.827045,-3.013948,0.394104,0.033569000000000015,0.230026
1058,10.58,-4.244288,3.924868,-0.8716759999999997,0.342972,0.202957,0.15545699999999998
1059,10.59,-4.858314,4.50241,0.706264,0.351501,0.300964,0.221512
1060,10.6,-4.536985,4.4182559999999995,0.280983,0.358948,0.472458,0.42176800000000003
1061,10.61,-3.783933,3.856527,1.426774,0.204498,0.594971,0.733902
1062,10.62,-1.8286080000000002,2.570163,3.6377410000000006,0.044708,0.7121430000000001,1.007675
1063,10.63,-0.118796,0.9868630000000002,4.492925,-0.039458999999999994,0.8943180000000001,1.103546
1064,10.64,0.11013800000000001,-0.244723,4.5556980000000005,-0.199249,1.1606290000000001,1.039627
1065,10.65,-0.6057130000000001,-1.154963,5.040993,-0.38246199999999997,1.410965,0.861725
1066,10.66,-1.0087,-1.2920200000000002,5.191782,-0.422943,1.583542,0.6113890000000001
1067,10.67,-0.9095709999999999,-0.749536,4.27571,-0.29512,1.6858060000000001,0.258789
1068,10.68,-0.5614100000000001,-0.182989,2.276386,-0.051177999999999994,1.660233,-0.09487899999999999
1069,10.69,-0.05450700000000001,0.272117,0.400002,0.140579,1.501511,-0.315384
1070,10.7,0.8528110000000001,0.38001399999999996,0.12573099999999998,0.18318199999999998,1.305496,-0.375046
1071,10.71,2.415595,-0.09135800000000002,0.220685,0.121399,1.013626,-0.345215
1072,10.72,3.9342449999999998,-0.7344579999999999,-0.01514499999999999,-0.013884999999999995,0.678055,-0.302612
1073,10.73,4.8765339999999995,-1.256202,-0.18925799999999998,-0.174744,0.312683,-0.283432
1074,10.74,4.92011,-1.26481,0.29561799999999994,-0.29086300000000004,-0.04844699999999999,-0.329239
1075,10.75,3.48855,-0.4671340000000001,1.096531,-0.316422,-0.321152,-0.426178
1076,10.76,1.0461260000000001,0.8389530000000001,1.386306,-0.27594,-0.5342100000000001,-0.43896499999999994
1077,10.77,-0.7509669999999999,1.67481,1.275111,-0.217346,-0.7195590000000001,-0.366516
1078,10.78,-1.879275,1.810175,0.9163680000000001,-0.179001,-0.816498,-0.27064499999999997
1079,10.79,-2.4471849999999997,1.521765,0.174728,-0.166214,-0.8005220000000001,-0.208862
1080,10.8,-2.773331,0.859432,-0.676608,-0.189651,-0.7195590000000001,-0.20993
1081,10.81,-2.921604,-0.2647429999999999,-0.920989,-0.22906500000000002,-0.597061,-0.257858
1082,10.82,-3.050082,-1.4260680000000001,-0.876654,-0.265289,-0.44046,-0.321777
1083,10.83,-3.3181809999999996,-2.4333869999999997,-0.7363430000000001,-0.281265,-0.295593,-0.362259
1084,10.84,-3.637564,-2.966756,-0.47966400000000003,-0.274872,-0.152847,-0.368652
1085,10.85,-3.6875410000000004,-3.022544,-0.28005599999999997,-0.222687,-0.025009000000000003,-0.329239
1086,10.86,-3.212839,-2.6571029999999998,-0.11128099999999999,-0.141724,0.047424,-0.254669
1087,10.87,-2.352227,-1.974466,-0.304126,-0.071411,0.10495,-0.181168
1088,10.88,-1.543183,-1.601548,-0.690861,-0.030930000000000003,0.125183,-0.127899
1089,10.89,-1.016691,-1.512899,-0.9876389999999999,-0.026672,0.117737,-0.100204
1090,10.9,-1.055092,-1.637712,-1.000098,-0.039458999999999994,0.09642,-0.084229
1091,10.91,-1.475535,-1.715839,-0.950451,-0.051177999999999994,0.08258099999999999,-0.076767
1092,10.92,-1.9727240000000001,-1.806268,-0.792415,-0.05223099999999999,0.076187,-0.059723000000000005
1093,10.93,-2.343423,-1.859878,-0.860562,-0.05223099999999999,0.07299800000000001,-0.035217
1094,10.94,-2.468379,-1.8898240000000002,-1.079766,-0.056503,0.07193,0.0020599999999999998
1095,10.95,-2.423782,-1.8754099999999998,-1.286241,-0.06715399999999999,0.07299800000000001,0.051056
1096,10.96,-2.216097,-1.697525,-1.345321,-0.06289700000000001,0.075119,0.108582
1097,10.97,-1.994375,-1.266458,-1.1853799999999999,-0.024536000000000002,0.075119,0.157593
1098,10.98,-1.8737080000000002,-0.570654,-1.08604,0.062805,0.074051,0.184219
1099,10.99,-2.046475,0.071327,-1.278096,0.177856,0.07299800000000001,0.188477
1100,11.0,-2.394843,0.509389,-1.42024,0.266281,0.086838,0.175705
1101,11.01,-2.601636,0.8345040000000001,-1.2966799999999998,0.305695,0.083649,0.15971400000000002
1102,11.02,-2.5039439999999997,1.000499,-1.356892,0.337646,0.051682000000000006,0.143738
1103,11.03,-1.6691599999999998,1.194456,-1.5991360000000001,0.402634,-0.053772,0.177826
1104,11.04,-0.27088,1.4474870000000002,-1.6506869999999998,0.49957299999999993,-0.166687,0.272644
1105,11.05,0.721562,1.6839939999999998,-0.9651649999999999,0.525131,-0.09639,0.339752
1106,11.06,0.365084,1.892673,-0.211365,0.45163000000000003,0.131577,0.263046
1107,11.07,-0.611211,2.384144,-0.11966800000000001,0.380264,0.33078,0.114975
1108,11.08,-1.093761,3.010122,-0.9105530000000001,0.415421,0.413879,-0.043747000000000015
1109,11.09,-1.051771,3.044045,-2.3499369999999997,0.519806,0.400024,-0.20033299999999998
1110,11.1,-0.40684000000000003,3.309077,-3.0802400000000003,0.61142,0.31694,-0.31751999999999997
1111,11.11,0.899233,4.072294,-2.8971869999999997,0.67215,0.131577,-0.398483
1112,11.12,2.267271,4.955973999999999,-0.9575809999999999,0.48678599999999994,0.004821999999999993,-0.44428999999999996
1113,11.13,2.444223,4.918654,1.6830219999999998,0.309952,0.11346400000000001,-0.5422819999999999
1114,11.14,0.446169,2.657265,1.874326,0.23326100000000002,0.305222,-0.718063
1115,11.15,-0.9726459999999999,0.2779179999999999,1.6709450000000001,0.018066,0.28071599999999997,-0.813934
1116,11.16,-2.466569,-2.671261,2.401765,-0.151306,0.560883,-0.942825
1117,11.17,-2.741127,-1.7012180000000001,1.2883280000000001,-0.196045,0.705765,-1.1676030000000002
1118,11.18,-2.59607,-1.218493,4.093233000000001,-0.386734,0.478851,-1.015274
1119,11.19,-1.311724,0.02607400000000004,3.4917480000000003,-0.340927,0.31161500000000003,-0.502869
1120,11.2,-0.39631700000000003,1.5952540000000002,1.809502,-0.304703,0.266876,-0.087418
1121,11.21,0.678092,1.5537729999999998,2.1977729999999998,-0.21202100000000002,0.209351,0.152267
1122,11.22,0.581186,0.98044,1.501636,-0.117218,0.37446599999999997,0.135223
1123,11.23,-0.274169,-0.047819000000000056,0.929135,-0.066086,0.541702,0.016967999999999997
1124,11.24,-1.153528,-1.4219870000000001,0.65067,-0.039458999999999994,0.7121430000000001,-0.132156
1125,11.25,-1.9383970000000001,-2.66783,0.556222,-0.06501799999999999,0.8879239999999999,-0.225906
1126,11.26,-2.5184159999999998,-3.110889,0.43159,-0.142792,1.01149,-0.215256
1127,11.27,-2.645979,-2.35517,1.148686,-0.23866300000000001,1.037048,-0.097015
1128,11.28,-1.378724,-1.026389,1.860675,-0.277008,1.0349270000000002,0.05426
1129,11.29,-0.033169000000000004,-0.09807,1.864104,-0.247177,0.9955139999999999,0.140549
1130,11.3,1.466093,0.541647,1.13066,-0.173676,0.9561,0.14694200000000002
1131,11.31,2.0861169999999998,0.61933,0.5569310000000001,-0.13000499999999998,0.924133,0.075562
1132,11.32,2.312072,0.4465,0.11464300000000001,-0.08845499999999999,0.8996430000000001,-0.008591000000000001
1133,11.33,1.8815060000000001,-0.009927000000000021,-0.061113,-0.059691999999999995,0.873001,-0.078903
1134,11.34,1.443568,-0.68088,-0.061702999999999994,-0.056503,0.8378450000000001,-0.123642
1135,11.35,1.091977,-1.372971,-0.242321,-0.058624,0.811218,-0.15773
1136,11.36,0.618786,-1.708725,-0.617347,-0.057555999999999996,0.815475,-0.18223599999999998
1137,11.37,0.351889,-1.770301,-1.053558,-0.042648,0.802704,-0.175842
1138,11.38,0.154083,-1.61916,-1.1353440000000001,-0.022415,0.7728729999999999,-0.156662
1139,11.39,0.11521300000000001,-1.367499,-0.985984,0.00209,0.771805,-0.137482
1140,11.4,0.279053,-1.2602870000000002,-0.844958,0.03299,0.7728729999999999,-0.12150599999999999
1141,11.41,0.584842,-1.401184,-0.672844,0.059615999999999995,0.7590180000000001,-0.109787
1142,11.42,1.1627120000000002,-1.653564,-0.666136,0.070267,0.719604,-0.093811
1143,11.43,1.808025,-1.887419,-0.680509,0.061752,0.638641,-0.078903
1144,11.44,2.5012939999999997,-2.090459,-0.7656649999999999,0.045761,0.536377,-0.062927
1145,11.45,2.89715,-2.133451,-1.029395,0.014877,0.431992,-0.06398
1146,11.46,2.761948,-1.8286799999999999,-1.131326,-0.006423999999999999,0.331848,-0.081024
1147,11.47,2.235789,-1.129299,-1.1522649999999999,0.008484,0.242371,-0.10446199999999999
1148,11.48,1.7006119999999998,-0.44572,-1.143364,0.09689299999999999,0.156082,-0.12150599999999999
1149,11.49,1.223809,-0.121529,-1.1164459999999998,0.223663,0.101761,-0.137482
1150,11.5,0.89956,-0.245321,-1.360348,0.33657800000000004,0.06979400000000001,-0.13855
1151,11.51,0.814403,-0.515223,-1.364458,0.382385,0.05275,-0.12043800000000002
1152,11.52,0.795647,-0.6010270000000001,-1.409974,0.38771100000000003,0.07299800000000001,-0.099136
1153,11.53,0.649306,-0.330989,-1.597246,0.393036,0.125183,-0.11192300000000001
1154,11.54,0.212448,0.108136,-1.859851,0.432465,0.178452,-0.16731300000000002
1155,11.55,0.069655,0.406022,-1.756468,0.469742,0.153946,-0.220581
1156,11.56,0.18073499999999998,1.033762,-1.337749,0.43991099999999994,0.014403999999999998,-0.170517
1157,11.57,0.8836379999999999,1.7363169999999999,-0.990447,0.386658,-0.12301600000000001,-0.017119999999999982
1158,11.58,1.699989,1.9778229999999999,-1.6526889999999999,0.38345300000000004,-0.254044,0.16078199999999998
1159,11.59,2.229816,2.070834,-3.0898369999999997,0.39624000000000004,-0.385071,0.329102
1160,11.6,2.183944,1.935175,-3.254869,0.37493899999999997,-0.35524,0.480362
1161,11.61,0.2925900000000001,2.926272,-2.75789,0.34617600000000004,-0.23913600000000002,0.49208100000000005
1162,11.62,-1.9283810000000001,4.230059,-1.607205,0.316345,-0.037796,0.502731
1163,11.63,-3.929668,5.159692,0.505777,0.23858600000000002,0.028244,0.52298
1164,11.64,-4.409951,5.11982,0.9107280000000001,0.253494,0.058075,0.666779
1165,11.65,-3.093448,4.199159,0.389839,0.144836,0.058075,0.9533389999999999
1166,11.66,-1.1028229999999999,2.4563450000000002,1.647945,-0.095917,0.12412999999999999,1.215393
1167,11.67,0.9425620000000001,0.588208,3.580493,-0.296188,0.165665,1.337906
1168,11.68,1.913456,-0.704834,4.913785,-0.40589899999999995,0.24876399999999999,1.2803799999999999
1169,11.69,1.7951240000000002,-0.9325040000000001,4.877416,-0.44426000000000004,0.40428200000000003,1.063065
1170,11.7,1.411724,-0.332992,4.609477,-0.426147,0.510818,0.7392270000000001
1171,11.71,0.739653,0.988301,3.7024410000000003,-0.327072,0.49484300000000003,0.34721399999999997
1172,11.72,-0.16575999999999996,2.015781,1.8153279999999998,-0.15983599999999998,0.524658,-0.0011289999999999911
1173,11.73,-1.036032,2.545575,0.346819,-0.0032350000000000018,0.493774,-0.19927999999999998
1174,11.74,-1.484968,2.248113,0.263024,0.059615999999999995,0.380859,-0.256805
1175,11.75,-0.967743,0.9240139999999999,0.503011,0.026595999999999998,0.274323,-0.25892600000000005
1176,11.76,-0.0032949999999999924,-0.867983,0.181804,-0.05011,0.205078,-0.282364
1177,11.77,0.697029,-2.196862,0.07634099999999999,-0.184326,0.176315,-0.348404
1178,11.78,0.604881,-2.7017860000000002,0.6831559999999999,-0.296188,0.14968900000000002,-0.47837799999999997
1179,11.79,-0.4920510000000001,-2.605664,1.462684,-0.360092,0.13903800000000002,-0.615799
1180,11.8,-1.547303,-2.35025,2.011602,-0.41656499999999996,0.11241099999999998,-0.657333
1181,11.81,-2.382795,-1.7061389999999999,2.114166,-0.47514300000000004,0.055954,-0.5849
1182,11.82,-2.6637419999999996,-1.055711,1.963544,-0.494324,-0.003708,-0.428299
1183,11.83,-2.619061,-0.339252,1.3289440000000001,-0.44212299999999993,-0.029282,-0.262131
1184,11.84,-2.121713,0.182347,0.564689,-0.35051,-0.015427000000000001,-0.151337
1185,11.85,-1.66388,0.38219000000000003,0.10142600000000003,-0.267426,0.018661,-0.101273
1186,11.86,-1.4157440000000001,0.14265999999999998,0.025466,-0.19178800000000001,0.088974,-0.106598
1187,11.87,-1.6459099999999998,-0.198737,-0.07559499999999998,-0.125748,0.22425799999999999,-0.160919
1188,11.88,-1.8169669999999998,-0.831874,-0.32803000000000004,-0.069275,0.361679,-0.22376999999999997
1189,11.89,-1.7796889999999999,-1.3809069999999999,-0.7225699999999999,-0.019210999999999995,0.480988,-0.268509
1190,11.9,-1.313215,-1.7001419999999998,-1.106519,0.024460000000000003,0.541702,-0.274902
1191,11.91,-0.647513,-1.790991,-1.427829,0.06813,0.5342560000000001,-0.257858
1192,11.92,-0.081903,-1.76652,-1.4267040000000002,0.102234,0.495895,-0.239761
1193,11.93,0.142152,-1.811753,-1.320993,0.136322,0.465012,-0.228043
1194,11.94,-0.05175799999999999,-1.939395,-1.434307,0.15123,0.44583100000000003,-0.228043
1195,11.95,-0.561646,-2.151623,-1.494205,0.1427,0.42132600000000003,-0.233368
1196,11.96,-1.286946,-2.33133,-1.532176,0.122467,0.412811,-0.22697399999999998
1197,11.97,-1.882756,-2.373544,-1.6176,0.091568,0.41706800000000005,-0.204605
1198,11.98,-2.0633369999999998,-2.224799,-1.841506,0.064941,0.397903,-0.17157
1199,11.99,-1.5551840000000001,-1.833604,-2.074242,0.053223,0.296692,-0.118317
1200,12.0,-0.733654,-1.317742,-2.2510310000000002,0.097961,0.13903800000000002,-0.081024
1201,12.01,-0.363519,-1.070755,-2.264007,0.149094,0.022919,-0.077835
1202,12.02,-0.22579899999999997,-0.7835770000000001,-2.23941,0.20768699999999998,-0.10704000000000001,-0.084229
1203,12.03,-0.167854,-0.397187,-2.316393,0.26521300000000003,-0.24765,-0.076767
1204,12.04,-0.185472,-0.00016099999999999448,-2.646522,0.340851,-0.387207,-0.029892
1205,12.05,-0.642806,0.271752,-2.750575,0.420746,-0.401047,0.029755
1206,12.06,-1.783318,0.535295,-2.09386,0.431396,-0.264694,0.034012
1207,12.07,-3.272374,1.1953479999999999,-0.740101,0.355759,-0.044189000000000006,-0.08955399999999998
1208,12.08,-5.024451999999999,1.935793,0.164698,0.23751799999999998,0.240234,-0.27597
1209,12.09,-5.968323000000001,3.116637,0.148821,0.134186,0.538513,-0.447479
1210,12.1,-4.631408,4.354104,-1.7824380000000002,0.246033,0.607758,-0.556137
1211,12.11,-1.6419439999999998,4.79659,-3.501899,0.5283359999999999,0.452225,-0.605133
1212,12.12,1.4207100000000001,5.235378,-4.53756,0.7893220000000001,0.16993699999999998,-0.567856
1213,12.13,4.435533,5.824301,-3.4926459999999997,0.7424470000000001,-0.14219699999999996,-0.460266
1214,12.14,5.726407,6.079129,-1.070031,0.5240779999999999,-0.340332,-0.490097
1215,12.15,3.498731,5.203344,1.5049139999999999,0.36534099999999997,-0.267899,-0.6924899999999999
1216,12.16,0.944371,4.059639,2.557774,0.34510799999999997,-0.193329,-0.849091
1217,12.17,-0.562107,2.238787,3.341536,0.23751799999999998,-0.22528099999999998,-0.9385680000000001
1218,12.18,-1.244337,0.0521609999999999,4.236459,0.070267,-0.237,-0.916199
1219,12.19,-0.912367,-1.440784,4.747795,-0.089523,-0.36589099999999997,-0.794754
1220,12.2,0.059084000000000025,-1.9482580000000003,4.757118,-0.316422,-0.560837,-0.630707
1221,12.21,0.542575,-1.478046,4.482458,-0.469818,-0.737671,-0.45387299999999997
1222,12.22,0.622428,-0.8438699999999999,4.4117370000000005,-0.45065299999999997,-0.776031,-0.17690999999999998
1223,12.23,0.570873,0.521165,3.240965,-0.277008,-0.750458,0.032958999999999995
1224,12.24,0.269229,1.4026809999999998,2.22132,-0.143845,-0.646057,0.119247
1225,12.25,-0.372716,1.22289,1.774936,-0.06289700000000001,-0.44792200000000004,0.103256
1226,12.26,-1.472335,0.31302300000000005,1.58725,0.003159000000000002,-0.17840599999999998,0.050003
1227,12.27,-2.696167,-0.971183,1.169797,0.050033999999999995,0.1465,0.01059
1228,12.28,-3.360097,-2.056043,0.96915,0.038314999999999995,0.44371000000000005,0.039352
1229,12.29,-3.089141,-2.668612,1.206076,-0.040512,0.623734,0.112854
1230,12.3,-1.696981,-2.605703,1.7076529999999999,-0.163025,0.718536,0.18528699999999998
1231,12.31,0.16801900000000006,-1.7821630000000002,2.160136,-0.286591,0.7877810000000001,0.173569
1232,12.32,1.269755,-0.435729,2.556223,-0.313232,0.906021,0.069168
1233,12.33,1.6507330000000002,0.91309,2.0607860000000002,-0.200302,1.012558,-0.077835
1234,12.34,1.729264,1.5753270000000001,0.201894,-0.011764999999999998,1.046646,-0.202469
1235,12.35,1.3279940000000001,1.3546120000000001,-1.404875,0.172531,1.016815,-0.2845
1236,12.36,1.03567,0.01323799999999986,-1.962461,0.337646,0.8591610000000001,-0.252533
1237,12.37,1.293133,-1.55159,-0.9263379999999999,0.171463,0.5779270000000001,-0.114059
1238,12.38,2.400086,-3.126856,-0.472415,-0.06501800000000002,0.384048,0.036148
1239,12.39,3.200679,-3.7575190000000003,-1.196854,-0.21415700000000001,0.22212199999999999,0.10539200000000001
1240,12.4,3.088468,-3.551587,-1.6983599999999999,-0.269547,0.150757,0.102203
1241,12.41,2.235955,-2.6065840000000002,-1.313347,-0.253571,0.110275,0.055327999999999995
1242,12.42,1.235534,-1.547995,-0.335415,-0.189651,0.12731900000000002,0.008452999999999999
1243,12.43,0.5824630000000001,-0.9917959999999999,-0.433316,-0.10336300000000001,0.18591300000000002,-0.027770999999999997
1244,12.44,0.307602,-1.019873,-0.924794,-0.061828999999999995,0.234909,-0.03949
1245,12.45,0.573687,-1.488049,-1.194875,-0.071411,0.257278,-0.045883
1246,12.46,1.339241,-1.892291,-1.25334,-0.096985,0.241302,-0.055465999999999994
1247,12.47,2.075907,-2.0451349999999997,-0.9971389999999999,-0.117218,0.201889,-0.089554
1248,12.48,2.419149,-1.733583,-0.548358,-0.11296099999999999,0.160339,-0.133224
1249,12.49,2.312752,-1.4093440000000002,-0.781473,-0.058624,0.15715,-0.170517
1250,12.5,2.029338,-1.349807,-1.490348,0.024460000000000003,0.14968900000000002,-0.181168
1251,12.51,1.894737,-1.353329,-1.7368860000000002,0.110748,0.11346400000000001,-0.165192
1252,12.52,1.898765,-1.2908469999999999,-1.331353,0.185318,0.08258099999999999,-0.14068599999999998
1253,12.53,2.080386,-1.084606,-0.905651,0.24710100000000002,0.064468,-0.11938499999999999
1254,12.54,2.048619,-0.664188,-0.7578090000000001,0.296112,0.087906,-0.123642
1255,12.55,1.44601,-0.153656,-1.206258,0.360016,0.16886900000000002,-0.18756099999999998
1256,12.56,0.5615479999999999,0.173814,-1.8132400000000002,0.41861000000000004,0.206146,-0.297272
1257,12.57,-0.24681499999999995,0.8906950000000001,-1.447178,0.406891,0.084702,-0.330307
1258,12.58,-0.02487700000000001,1.591294,-0.6918479999999999,0.34829699999999997,-0.061234,-0.20033299999999998
1259,12.59,0.630207,1.9894450000000001,-0.648359,0.260956,-0.168823,-0.0043330000000000035
1260,12.6,1.429912,2.246986,-1.262724,0.218338,-0.240204,0.224701
1261,12.61,1.463909,2.575361,-2.482398,0.268402,-0.199722,0.427109
1262,12.62,0.587654,2.959579,-2.739564,0.29930100000000004,-0.137924,0.576233
1263,12.63,-1.0387709999999999,4.213136,-1.637101,0.289719,-0.055908000000000006,0.742416
1264,12.64,-2.037355,5.088727,-0.536589,0.256683,0.07299800000000001,0.818054
1265,12.65,-2.2867040000000003,5.183431,-0.311502,0.25242600000000004,0.155014,0.819122
1266,12.66,-1.817179,4.4263449999999995,0.14796000000000006,0.16934200000000002,0.31054699999999996,0.8585360000000001
1267,12.67,-1.740676,3.603129,1.095241,-0.007491999999999999,0.45755,0.958664
1268,12.68,-1.1344889999999999,2.207712,2.414916,-0.186462,0.5907140000000001,1.102478
1269,12.69,-0.5073310000000001,0.432869,3.710582,-0.351578,0.730255,1.178116
1270,12.7,-0.15071700000000002,-1.188659,4.491226999999999,-0.5103,0.9070889999999999,1.137634
1271,12.71,0.274426,-2.459219,4.571181,-0.624283,1.046646,0.9575959999999999
1272,12.72,0.9087350000000001,-2.7886279999999997,3.614635,-0.627487,1.084991,0.678497
1273,12.73,1.882036,-2.331973,2.074415,-0.5603640000000001,1.048767,0.368515
1274,12.74,2.207443,-1.362981,0.8573120000000001,-0.459167,0.9039,0.098999
1275,12.75,2.39089,-0.413362,0.43558100000000005,-0.373947,0.696167,-0.066116
1276,12.76,2.811585,0.22113400000000002,0.30047199999999996,-0.333466,0.367004,-0.132156
1277,12.77,3.442537,0.5590149999999999,0.305512,-0.373947,-0.046326000000000034,-0.141754
1278,12.78,4.115665,1.029799,0.5049560000000001,-0.459167,-0.44046,-0.158798
1279,12.79,3.9557870000000004,1.6879509999999998,1.1358059999999999,-0.525208,-0.805847,-0.203537
1280,12.8,2.1638990000000002,2.053202,1.8881569999999999,-0.547592,-1.059387,-0.219513
1281,12.81,0.524011,2.159826,2.210515,-0.540131,-1.244736,-0.150269
1282,12.82,-0.9053479999999999,1.936964,2.0347310000000003,-0.5103,-1.390686,-0.042679
1283,12.83,-1.648404,1.371925,1.3931930000000001,-0.460236,-1.4173129999999998,0.0681
1284,12.84,-2.150503,0.728765,0.585123,-0.415497,-1.371506,0.11071800000000001
1285,12.85,-2.3471349999999997,-0.07446900000000001,0.121745,-0.381409,-1.263916,0.075562
1286,12.86,-2.537897,-0.971093,-0.226146,-0.36648600000000003,-1.105194,-0.032027999999999994
1287,12.87,-2.906796,-1.643039,-0.504772,-0.36969,-0.921967,-0.15240499999999998
1288,12.88,-3.4663769999999996,-2.2074580000000004,-0.648233,-0.387802,-0.730225,-0.253601
1289,12.89,-3.650646,-2.453796,-0.7840699999999999,-0.40271,-0.533142,-0.301544
1290,12.9,-3.474212,-2.452322,-0.712018,-0.413361,-0.41490200000000005,-0.299408
1291,12.91,-2.80461,-2.1246509999999996,-0.536451,-0.404846,-0.36589099999999997,-0.25892600000000005
1292,12.92,-1.95163,-1.671461,-0.434837,-0.385666,-0.329681,-0.21205100000000002
1293,12.93,-1.305606,-1.385867,-0.418357,-0.362228,-0.2892,-0.184357
1294,12.94,-1.0596510000000001,-1.3398649999999999,-0.358636,-0.339859,-0.255112,-0.169449
1295,12.95,-1.1889530000000001,-1.5274780000000001,-0.22701999999999997,-0.312164,-0.22953800000000002,-0.154526
1296,12.96,-1.396801,-1.76519,-0.170125,-0.282333,-0.20291099999999998,-0.13536099999999998
1297,12.97,-1.611661,-2.0714799999999998,-0.35693600000000003,-0.26103200000000004,-0.168823,-0.102341
1298,12.98,-1.766066,-2.084741,-0.5474760000000001,-0.24078400000000003,-0.141129,-0.058655
1299,12.99,-1.8214869999999999,-1.8540709999999998,-0.802211,-0.213089,-0.093185,-0.0021970000000000045
1300,13.0,-1.7507970000000002,-1.67975,-1.18507,-0.173676,-0.044189,0.056396
1301,13.01,-1.542332,-1.6143379999999998,-1.412676,-0.141724,-0.004775999999999999,0.09367400000000001
1302,13.02,-1.462076,-1.559785,-1.5213700000000001,-0.11402899999999999,0.042099,0.107529
1303,13.03,-1.424268,-1.419519,-1.744414,-0.09378099999999999,0.079376,0.101135
1304,13.04,-1.2765360000000001,-1.070093,-2.026303,-0.059691999999999995,0.083649,0.083023
1305,13.05,-1.138876,-0.5488930000000001,-2.069561,-0.005371000000000004,0.066605,0.042542
1306,13.06,-1.365349,-0.034045999999999965,-1.722025,0.072403,0.074051,-0.018172999999999998
1307,13.07,-1.758034,0.3650399999999999,-1.2002030000000001,0.1427,0.125183,-0.086349
1308,13.08,-2.059759,0.542956,-0.851725,0.20768699999999998,0.160339,-0.13536099999999998
1309,13.09,-1.8354080000000002,0.73005,-1.031258,0.28225700000000004,0.150757,-0.133224
1310,13.1,-1.230909,0.770308,-1.249851,0.364288,0.12412999999999999,-0.068253
1311,13.11,-0.9476540000000001,0.713242,-0.906243,0.38771100000000003,0.200821,-0.008591000000000001
1312,13.12,-1.314989,0.9762569999999999,-0.3232840000000001,0.350433,0.30629,-0.011795
1313,13.13,-1.482035,1.723429,-0.235335,0.304626,0.425598,-0.057587
1314,13.14,-0.67718,2.569522,-1.177476,0.303558,0.450089,-0.14068599999999998
1315,13.15,0.647179,3.2172389999999997,-2.402463,0.382385,0.33931,-0.21311999999999998
1316,13.16,2.470265,4.412358,-3.53441,0.55603,0.09429900000000001,-0.259995
1317,13.17,4.4393650000000004,5.683161,-3.454143,0.721146,-0.24125699999999994,-0.266388
1318,13.18,5.811545,6.143306,-1.7071610000000002,0.613556,-0.408508,-0.314316
1319,13.19,4.511506,5.719945,0.8271729999999998,0.380264,-0.3414,-0.549744
1320,13.2,1.538176,4.810981,2.536418,0.292908,-0.219955,-0.827774
1321,13.21,-0.3234079999999999,3.542857,2.9805040000000003,0.242844,-0.17307999999999998,-1.0504149999999999
1322,13.22,-1.528995,1.8939400000000002,3.4464,0.069199,-0.188004,-1.135635
1323,13.23,-2.1957310000000003,0.21284499999999995,4.88819,-0.137451,-0.248718,-1.0333709999999998
1324,13.24,-2.642764,-1.3208010000000001,5.375648,-0.29086300000000004,-0.275345,-0.745758
1325,13.25,-1.599157,-2.181947,4.594055,-0.360092,-0.371231,-0.320709
1326,13.26,-0.282648,-2.706702,3.196572,-0.30790700000000004,-0.409576,0.037216
1327,13.27,-0.081914,-2.612357,1.6935529999999999,-0.245056,-0.255112,0.2556
1328,13.28,-1.082675,-2.539411,0.882627,-0.239731,-0.045257999999999986,0.274765
1329,13.29,-2.297439,-2.511176,0.840059,-0.273819,0.20828200000000002,0.171432
1330,13.3,-3.075399,-2.474038,1.2251940000000001,-0.314285,0.495895,0.022307999999999998
1331,13.31,-3.372262,-2.23838,1.629675,-0.333466,0.768616,-0.11511199999999999
1332,13.32,-3.207836,-1.507464,1.789495,-0.312164,0.976334,-0.16731300000000002
1333,13.33,-1.809826,-0.21355700000000002,1.9627330000000003,-0.253571,1.109497,-0.10234100000000003
1334,13.34,-0.2160399999999999,0.8665299999999999,2.0438240000000003,-0.160889,1.136124,0.0031279999999999923
1335,13.35,1.647407,1.705861,2.069642,-0.043716000000000005,1.098846,0.136292
1336,13.36,3.362589,2.173054,1.95196,0.067078,0.980591,0.211914
1337,13.37,4.438548,2.0971490000000004,1.6921599999999999,0.19278,0.845306,0.210846
1338,13.38,4.621867,1.278414,1.099225,0.316345,0.720673,0.16185
1339,13.39,3.9850209999999997,0.013321999999999943,0.17716699999999996,0.368546,0.607758,0.112854
1340,13.4,3.134426,-1.53368,-0.633875,0.333389,0.50975,0.064911
1341,13.41,2.308086,-2.591627,-1.282745,0.227921,0.413879,0.034012
1342,13.42,1.3347870000000002,-3.086046,-1.623534,0.09689299999999999,0.321198,0.022308
1343,13.43,0.658878,-2.944721,-1.587909,-0.014954000000000004,0.23278800000000002,0.047867
1344,13.44,0.441837,-2.311975,-1.415705,-0.09059099999999999,0.14436300000000002,0.090485
1345,13.45,0.291831,-1.708698,-1.149805,-0.13533,0.099625,0.12243699999999999
1346,13.46,0.238157,-1.401271,-0.897084,-0.155563,0.074051,0.13308699999999998
1347,13.47,0.483025,-1.341415,-0.6985439999999999,-0.152374,0.078323,0.130951
1348,13.48,0.9188780000000001,-1.390212,-0.591572,-0.142792,0.07193,0.121368
1349,13.49,1.621903,-1.475012,-0.772672,-0.126801,0.055954,0.09367400000000001
1350,13.5,2.1235049999999998,-1.465719,-0.9603520000000001,-0.117218,-0.0015720000000000005,0.042542
1351,13.51,2.444584,-1.491158,-1.10616,-0.111893,-0.05484,-0.022446
1352,13.52,2.454572,-1.6260459999999999,-1.275203,-0.110825,-0.11129800000000001,-0.081024
1353,13.53,2.251188,-1.711634,-1.363968,-0.10656700000000001,-0.15924100000000002,-0.131104
1354,13.54,1.7598330000000002,-1.678439,-1.519691,-0.08099400000000001,-0.183731,-0.17157
1355,13.55,1.253609,-1.41636,-1.726171,-0.034134,-0.177353,-0.188614
1356,13.56,1.1438700000000002,-0.997725,-2.0047349999999997,0.035109999999999995,-0.189056,-0.170517
1357,13.57,1.2953709999999998,-0.5949220000000001,-2.010418,0.09689299999999999,-0.211441,-0.136429
1358,13.58,1.626954,-0.19228499999999998,-1.9785560000000002,0.121399,-0.22421300000000002,-0.09806799999999999
1359,13.59,1.766154,0.21655700000000003,-1.9083439999999998,0.110748,-0.24765,-0.084229
1360,13.6,1.587581,0.561617,-2.0843130000000003,0.121399,-0.22953800000000002,-0.10553
1361,13.61,1.545364,0.601594,-2.1366549999999997,0.189575,-0.263626,-0.143875
1362,13.62,1.387133,1.018425,-1.8286310000000001,0.227921,-0.376556,-0.141754
1363,13.63,1.626668,1.679746,-1.721214,0.206619,-0.493729,-0.022445999999999997
1364,13.64,2.275608,2.258184,-1.360658,0.157623,-0.656708,0.16078199999999998
1365,13.65,2.636098,2.69086,-1.4964979999999999,0.13311800000000001,-0.8005220000000001,0.358917
1366,13.66,2.516147,2.980314,-2.395155,0.191711,-0.855927,0.541092
1367,13.67,1.033927,3.231735,-3.035021,0.292908,-0.811172,0.629501
1368,13.68,-0.44497,3.8118260000000004,-3.072541,0.381332,-0.635406,0.696609
1369,13.69,-1.7183540000000002,4.183867,-1.9997479999999999,0.37706,-0.409576,0.741348
1370,13.7,-2.689036,4.217731,-0.457031,0.267349,-0.257248,0.723251
1371,13.71,-3.105669,3.8381220000000003,1.202772,0.2258,-0.104904,0.720047
1372,13.72,-3.045166,3.186105,2.236247,0.185318,0.06765700000000001,0.814865
1373,13.73,-2.733727,2.1638610000000003,3.177006,0.10116599999999999,0.202957,1.010864
1374,13.74,-1.1843920000000001,0.5773119999999999,3.9567959999999998,0.03299,0.314804,1.189835
1375,13.75,0.26295599999999997,-1.628175,4.2057970000000005,-0.076736,0.46926899999999994,1.212204
1376,13.76,0.205182,-2.334189,3.9556120000000004,-0.206696,0.585388,1.080109
1377,13.77,-0.17821399999999998,-2.57648,3.6761839999999997,-0.338791,0.701492,0.846817
1378,13.78,-0.46722299999999994,-2.14283,3.160588,-0.419754,0.751572,0.553864
1379,13.79,-0.627735,-1.130147,2.601529,-0.403778,0.739853,0.23960900000000002
1380,13.8,-0.637835,0.21029899999999999,1.943234,-0.281265,0.6716770000000001,-0.009659
1381,13.81,-0.35088400000000003,1.226524,1.605913,-0.11828599999999999,0.519333,-0.142822
1382,13.82,0.340768,1.739573,1.727381,0.015944999999999997,0.296692,-0.161987
1383,13.83,1.470253,1.6904549999999998,1.6748830000000001,0.079849,0.057007,-0.133224
1384,13.84,2.54881,1.475403,1.29084,0.072403,-0.193329,-0.117249
1385,13.85,2.68756,1.148133,0.950901,0.027663999999999998,-0.399979,-0.1492
1386,13.86,1.653155,0.666238,0.941261,-0.033066000000000005,-0.549118,-0.22164899999999998
1387,13.87,0.3713810000000001,0.475446,0.93416,-0.08099400000000001,-0.6716310000000001,-0.268509
1388,13.88,-0.690804,0.26879400000000003,0.92037,-0.138519,-0.762177,-0.28875700000000004
1389,13.89,-1.4148479999999999,0.10644100000000001,0.6776770000000001,-0.17793299999999998,-0.795197,-0.252533
1390,13.9,-1.459859,-0.212087,0.356719,-0.20776399999999998,-0.819702,-0.19927999999999998
1391,13.91,-1.461324,-0.607168,0.026722000000000024,-0.20776399999999998,-0.78241,-0.18223599999999998
1392,13.92,-1.3497700000000001,-1.143442,-0.455237,-0.20776399999999998,-0.729156,-0.198212
1393,13.93,-1.3724530000000001,-1.649484,-0.713316,-0.21415700000000001,-0.681213,-0.234421
1394,13.94,-1.663893,-1.9544130000000002,-0.866181,-0.22480799999999998,-0.618362,-0.26318400000000003
1395,13.95,-1.980402,-2.1977130000000002,-0.7847569999999999,-0.22055100000000002,-0.5352779999999999,-0.272781
1396,13.96,-2.189335,-2.517627,-0.6946100000000001,-0.206696,-0.42662,-0.272781
1397,13.97,-2.158084,-2.463962,-0.599036,-0.183258,-0.326477,-0.259995
1398,13.98,-1.9633040000000002,-2.282229,-0.481204,-0.14917,-0.227417,-0.228043
1399,13.99,-1.838273,-2.13104,-0.552742,-0.11296099999999999,-0.145386,-0.184357
