,ts,ax,ay,az,wx,wy,wz
0,0.0,-0.030507999999999997,0.007946,-0.067622,-0.004059,-0.015274000000000001,0.0043950000000000005
1,0.01,0.0051530000000000005,0.032461000000000004,-0.016205,-0.007248,-0.015274000000000001,0.0043950000000000005
2,0.02,0.009073000000000001,-0.0016739999999999984,-0.0031129999999999994,-0.009384,-0.014206,0.002258
3,0.03,0.030343,-0.024292,0.035773,-0.008316,-0.014206,0.0012050000000000001
4,0.04,0.043809,-0.047366000000000005,0.002012,-0.002991,-0.013138,0.002258
5,0.05,0.042216000000000004,-0.019891,0.005693,0.00019799999999999996,-0.009949,0.002258
6,0.06,0.039355,-0.021887,-0.013868,-0.0008539999999999999,-0.009949,0.0043950000000000005
7,0.07,0.019051,-0.035623,-0.076856,-0.001923,-0.014206,0.005463
8,0.08,0.020631,-0.039434,-0.028553,-0.009384,-0.020599,0.002258
9,0.09,-0.014643999999999999,-0.014586000000000002,0.026237,-0.010452,-0.024857,0.00013699999999999994
10,0.1,0.021363,-0.045344,0.005902999999999999,-0.013641,-0.021667,0.005463
11,0.11,0.017631,-0.034684,0.066988,-0.012573,-0.019531,0.003326
12,0.12,0.035733999999999995,-0.045159,0.018159,-0.009384,-0.008881,0.0012050000000000001
13,0.13,0.016985,-0.043401,0.00045099999999999996,-0.008316,-0.0035549999999999996,0.0012050000000000001
14,0.14,0.002669,-0.046017,-0.018673,-0.007248,0.004974,0.0043950000000000005
15,0.15,0.026820999999999998,-0.0224,-0.062048999999999986,-0.00618,0.006027,0.005463
16,0.16,0.050729,-0.044649000000000015,-0.0342,-0.009384,0.00177,0.0012050000000000001
17,0.17,0.053464,-0.02721,-0.07864600000000001,-0.012573,-0.003555000000000001,-0.00412
18,0.18,0.02371,0.016496,-0.046848,-0.015778,-0.008881,-0.011581000000000001
19,0.19,0.00826,0.021861000000000002,-0.015813999999999998,-0.021103,-0.006744,-0.015839
20,0.2,-0.06817000000000001,-0.009743999999999996,0.040889999999999996,-0.02536,-0.000366,-0.017975
21,0.21,-0.040954999999999984,-0.024224000000000002,0.018887,-0.028564,0.006027,-0.01265
22,0.22,-0.066965,-0.059688,0.015052000000000001,-0.02536,0.008163,-0.010513
23,0.23,-0.05417,-0.010251999999999999,0.043545,-0.022171,0.003906,-0.010513
24,0.24,-0.081231,-0.007298999999999999,-0.02698,-0.020035,-0.0014189999999999995,-0.0030669999999999994
25,0.25,-0.036914999999999996,-0.044573,-0.017168999999999997,-0.013641,-0.015274000000000001,-0.001999
26,0.26,-0.0253,-0.039376,-0.06452100000000001,-0.014709,-0.021667,0.0012050000000000001
27,0.27,0.0006540000000000001,0.008029999999999999,-0.043755,-0.018966999999999998,-0.025925,0.003326
28,0.28,0.019783000000000002,0.00715,-0.032011000000000005,-0.024291999999999998,-0.022736000000000003,0.0043950000000000005
29,0.29,0.026964,0.020932,0.017643,-0.028564,-0.018463,0.00972
30,0.3,0.039669,0.045336,0.081165,-0.029617,-0.011017,0.011856
31,0.31,0.06629199999999999,0.01721,0.068213,-0.029617,-0.002487,0.00972
32,0.32,0.028916000000000004,0.004919,0.046216,-0.020035,0.004974,0.006531
33,0.33,0.02768,0.026162,0.026277,-0.013641,0.009231999999999999,0.003326
34,0.34,-0.008586000000000002,0.022331,0.009861,-0.010452,0.003906,0.0012050000000000001
35,0.35,-0.025785000000000002,0.045435,0.010592,-0.012573,0.002838,-0.0030670000000000003
36,0.36,0.0006430000000000013,0.034575999999999996,-0.005025999999999999,-0.014709,-0.007811999999999999,-0.006256
37,0.37,0.009632000000000002,0.007167,0.048593,-0.021103,-0.014206,-0.008392
38,0.38,0.0014350000000000022,-0.032775,0.086836,-0.021103,-0.015274000000000001,-0.010513
39,0.39,-0.012328,-0.037285000000000006,0.11775799999999999,-0.017899,-0.008881,-0.010513
40,0.4,-0.029351,-0.043411,0.109169,-0.012573,-0.0046229999999999995,-0.00946
41,0.41,-0.019516,-0.07369099999999999,0.098248,-0.004059,0.003906,-0.006256
42,0.42,-0.024613,-0.010564,0.03272400000000001,0.0012659999999999993,0.0103,-0.008392
43,0.43,-0.031957,0.027298000000000003,-0.045069999999999985,0.004471,0.008163,-0.008392
44,0.44,-0.047241000000000005,0.039582,-0.11024300000000001,0.0023350000000000003,0.009231999999999999,-0.00946
45,0.45,-0.065447,0.035956,-0.148447,-0.0008539999999999999,0.008163,-0.00946
46,0.46,-0.060256,0.031132,-0.151826,-0.01152,-0.0003659999999999998,-0.007324
47,0.47,-0.047288,0.016295,-0.119144,-0.021103,-0.0035549999999999996,-0.00412
48,0.48,-0.026014,0.015707,-0.066984,-0.027496,-0.0046229999999999995,-0.00412
49,0.49,-0.037208,-0.006322,-0.043991,-0.032822000000000004,-0.0035549999999999996,-0.00412
50,0.5,-0.045551,-0.036945,0.005283999999999997,-0.030685000000000004,-0.001419,0.0012050000000000001
51,0.51,-0.039481,-0.002020000000000001,0.028462,-0.028564,-0.00036599999999999984,0.003326
52,0.52,-0.091697,-0.019185,0.045332,-0.023224,-0.000366,0.0043950000000000005
53,0.53,-0.10105900000000001,-0.010041,0.040648,-0.021103,-0.002487,0.007599
54,0.54,-0.070754,0.0032370000000000003,0.05653,-0.018966999999999998,-0.008881,0.007599
55,0.55,-0.078598,0.028375,0.047005,-0.013641,-0.006744,0.011856
56,0.56,-0.047073000000000004,0.009895000000000001,0.010295000000000002,-0.009384,-0.0035549999999999996,0.00972
57,0.57,-0.06377999999999999,0.010006999999999999,0.009468,-0.010452,-0.0035549999999999996,0.012924000000000001
58,0.58,-0.085622,0.003467,-0.029067000000000003,-0.010452,-0.000366,0.012924000000000001
59,0.59,-0.096964,-0.003556000000000004,-0.08196200000000001,-0.013641,0.003906,0.016113
60,0.6,-0.09160800000000001,0.052722000000000005,-0.06819,-0.020035,0.00177,0.01825
61,0.61,-0.084883,0.07416,-0.072049,-0.021103,-0.006744,0.016113
62,0.62,-0.089812,0.08443400000000001,-0.071508,-0.018966999999999998,-0.008881,0.017181000000000002
63,0.63,-0.073741,0.047047000000000005,-0.068977,-0.014709,-0.011017,0.017181000000000002
64,0.64,-0.056737,0.08296,-0.116531,-0.01152,-0.006744,0.012924000000000001
65,0.65,-0.061202,0.094657,-0.097433,-0.00618,-0.0046229999999999995,0.016113
66,0.66,-0.053538,0.064118,-0.13508,-0.009384,0.002838,0.016113
67,0.67,-0.098748,0.061027,-0.138812,-0.014709,0.002838,0.01825
68,0.68,-0.094011,0.09891699999999999,-0.151298,-0.020035,-0.005692,0.02037
69,0.69,-0.10728499999999999,0.084213,-0.140646,-0.021103,-0.019531,0.019302
70,0.7,-0.11506199999999998,0.09803200000000001,-0.132937,-0.021103,-0.022736000000000003,0.013977000000000002
71,0.71,-0.122373,0.092239,-0.122084,-0.021103,-0.028061000000000003,0.011856
72,0.72,-0.147868,0.100633,-0.155041,-0.022171,-0.026993,0.008652
73,0.73,-0.19739400000000001,0.088897,-0.175972,-0.026427999999999997,-0.03125,0.007599
74,0.74,-0.209362,0.042884999999999986,-0.195244,-0.031754000000000004,-0.029129000000000002,0.00972
75,0.75,-0.18948299999999998,0.050604,-0.21290100000000003,-0.034943,-0.034454000000000005,0.010787999999999999
76,0.76,-0.256782,0.060208000000000005,-0.230429,-0.036011,-0.037643,0.011856
77,0.77,-0.306998,0.134075,-0.41313999999999995,-0.032822000000000004,-0.05575599999999999,0.007599
78,0.78,-0.445478,0.137301,-0.452854,-0.040268,-0.062149,0.0012050000000000001
79,0.79,-0.514971,0.141523,-0.44203000000000003,-0.042404000000000004,-0.06427000000000001,0.003326
80,0.8,-0.560037,0.09641799999999999,-0.364782,-0.042404000000000004,-0.081314,0.00013699999999999994
81,0.81,-0.613769,0.085352,-0.325309,-0.024291999999999998,-0.10688800000000001,0.0043950000000000005
82,0.82,-0.586538,0.10926300000000001,-0.40105,0.010864000000000002,-0.12286400000000001,0.008652
83,0.83,-0.579766,0.186604,-0.523437,0.058792,-0.11328099999999999,0.013977000000000002
84,0.84,-0.647609,0.29835,-0.703339,0.097137,-0.085587,0.011856
85,0.85,-0.7017479999999999,0.432312,-0.888768,0.107803,-0.049362,0.007599
86,0.86,-0.769709,0.522796,-1.072704,0.084366,-0.019531,0.003326
87,0.87,-0.8701549999999999,0.581717,-1.105879,0.033234,0.003906,0.0012050000000000001
88,0.88,-0.968986,0.629613,-1.08582,-0.038147,0.026276,-0.0030670000000000003
89,0.89,-0.9825659999999999,0.667633,-0.9568969999999999,-0.116974,0.039062,-0.00946
90,0.9,-1.051216,0.686298,-0.755238,-0.190475,0.06675700000000001,-0.016907
91,0.91,-1.09881,0.6416069999999999,-0.52422,-0.260788,0.092316,-0.031830000000000004
92,0.92,-1.117423,0.606869,-0.159779,-0.312988,0.111496,-0.047806
93,0.93,-1.0651540000000002,0.592128,0.138497,-0.339615,0.11256400000000001,-0.069107
94,0.94,-1.0172729999999999,0.530723,0.434146,-0.337479,0.09764099999999999,-0.1064
95,0.95,-1.055018,0.50048,0.621367,-0.31192,0.06675700000000001,-0.13942000000000002
96,0.96,-0.973139,0.504303,0.814094,-0.254395,0.04332,-0.169235
97,0.97,-0.839715,0.5092479999999999,0.854461,-0.15745499999999998,0.031601,-0.196945
98,0.98,-0.684786,0.48410600000000004,0.772594,-0.050934,0.040115,-0.217178
99,0.99,-0.49988599999999994,0.495329,0.529831,0.052399,0.056107000000000004,-0.233154
100,1.0,-0.357777,0.566563,0.20889500000000005,0.135498,0.077408,-0.23529099999999997
101,1.01,-0.258977,0.540852,-0.15582100000000002,0.190887,0.08699,-0.23848000000000003
102,1.02,-0.27249,0.68111,-0.45339399999999996,0.207932,0.08699,-0.229965
103,1.03,-0.206469,0.469815,-0.753482,0.187698,0.060364,-0.19480899999999998
104,1.04,0.100863,0.498116,-0.8777,0.157867,0.033722,-0.185226
105,1.05,0.09793099999999999,0.34818000000000005,-0.8788860000000001,0.123779,-0.002487,-0.166046
106,1.06,0.273488,0.219097,-0.882917,0.103531,-0.047226,-0.15325899999999998
107,1.07,0.318872,0.19789600000000002,-0.810591,0.100342,-0.096237,-0.15113800000000002
108,1.08,0.352905,0.260832,-0.759054,0.124847,-0.127121,-0.13942000000000002
109,1.09,0.699418,0.365138,-0.7798649999999999,0.173843,-0.166534,-0.133026
110,1.1,0.9826020000000001,0.5577810000000001,-0.8473450000000001,0.246277,-0.17185999999999998,-0.13942000000000002
111,1.11,1.0966200000000002,0.76918,-1.215451,0.31445300000000004,-0.13351400000000002,-0.141541
112,1.12,1.179935,0.958433,-1.632838,0.34428400000000003,-0.032318,-0.131958
113,1.13,1.246941,0.9977860000000001,-2.112015,0.300613,0.10829200000000001,-0.112778
114,1.14,1.2873780000000001,0.9584799999999999,-2.354529,0.171707,0.242523,-0.095734
115,1.15,1.161678,0.8726870000000001,-2.297088,-0.02749600000000001,0.319214,-0.095734
116,1.16,1.055823,0.7738430000000001,-1.9946,-0.261856,0.294724,-0.098938
117,1.17,0.9730639999999999,0.716144,-1.546783,-0.48768599999999995,0.186066,-0.128769
118,1.18,0.843306,0.7053520000000001,-0.9642780000000001,-0.641083,0.006027000000000005,-0.169235
119,1.19,0.565891,0.8596600000000001,-0.254232,-0.7156520000000001,-0.16334500000000002,-0.207596
120,1.2,0.602338,1.050909,0.14055300000000004,-0.6815640000000001,-0.262421,-0.23848000000000003
121,1.21,0.600793,1.0275729999999998,0.22536399999999998,-0.572906,-0.270935,-0.25766
122,1.22,0.680134,1.1408129999999999,0.204713,-0.435486,-0.200623,-0.26298499999999997
123,1.23,0.641881,1.241128,0.177921,-0.316177,-0.085587,-0.261917
124,1.24,0.633189,1.348349,-0.0011019999999999988,-0.20965599999999998,0.027344,-0.258728
125,1.25,0.724758,1.275993,-0.247129,-0.131882,0.09019500000000001,-0.25340300000000004
126,1.26,0.712391,1.2720799999999999,-0.42048,-0.094604,0.07420299999999999,-0.267242
127,1.27,0.7497510000000001,1.298716,-0.594588,-0.085022,0.0007020000000000012,-0.29068
128,1.28,0.694348,1.235823,-0.7861229999999999,-0.086075,-0.101562,-0.31304899999999997
129,1.29,0.644125,1.244861,-0.8260639999999999,-0.081818,-0.20701599999999998,-0.324768
130,1.3,0.570433,1.293671,-0.967443,-0.057312,-0.270935,-0.327972
131,1.31,0.441453,1.225919,-1.0760370000000001,-0.018966999999999998,-0.314606,-0.31092800000000004
132,1.32,0.43872700000000003,1.233006,-1.19391,0.025772000000000003,-0.320999,-0.280029
133,1.33,0.30127800000000005,1.167333,-1.357035,0.075836,-0.319946,-0.23529099999999997
134,1.34,0.35594899999999996,1.188069,-1.566923,0.124847,-0.296509,-0.186279
135,1.35,0.43138699999999996,1.107389,-1.674088,0.157867,-0.27413899999999997,-0.146866
136,1.36,0.451013,1.026881,-1.8447799999999999,0.18556199999999998,-0.245377,-0.11491400000000002
137,1.37,0.449449,1.005298,-1.995063,0.193024,-0.24005100000000001,-0.08934
138,1.38,0.37304499999999996,0.992474,-2.135838,0.18981900000000002,-0.223007,-0.055251999999999996
139,1.39,0.317103,0.96803,-2.2261439999999997,0.173843,-0.201691,-0.016907
140,1.4,0.31158,0.9353450000000001,-2.311729,0.15466300000000002,-0.175064,0.025695999999999997
141,1.41,0.35284299999999996,0.981792,-2.338243,0.12271099999999999,-0.14843800000000001,0.06405599999999999
142,1.42,0.379343,0.9206690000000001,-2.304451,0.08969099999999999,-0.11221300000000001,0.093872
143,1.43,0.360507,0.915356,-2.24565,0.055603,-0.080261,0.11198399999999999
144,1.44,0.327189,0.948792,-2.1498909999999998,0.02684,-0.05575599999999999,0.122635
145,1.45,0.245342,0.9096,-2.059488,0.00019800000000000023,-0.026993000000000003,0.124771
146,1.46,0.19583499999999998,1.011076,-1.8854650000000002,-0.014709,-0.013138,0.129028
147,1.47,0.142852,0.9782879999999999,-1.797541,-0.015778,0.0007019999999999995,0.123703
148,1.48,0.130921,1.003458,-1.656987,-0.024291999999999998,0.022018,0.11091600000000001
149,1.49,0.07991000000000001,1.018691,-1.4779520000000002,-0.026427999999999997,0.056107000000000004,0.093872
150,1.5,0.017272999999999997,1.026298,-1.244348,-0.029617,0.100845,0.073639
151,1.51,-0.042136,1.041665,-0.9787520000000001,-0.033889999999999997,0.127472,0.055527
152,1.52,-0.142511,1.1147989999999999,-0.689869,-0.020035,0.13172899999999998,0.037415
153,1.53,-0.141914,1.0343280000000001,-0.47615,-0.00618,0.10935999999999998,0.033157
154,1.54,-0.079239,1.13598,-0.24961599999999998,-0.004059,0.06994600000000001,0.025695999999999997
155,1.55,0.040346,1.3435270000000001,-0.049569999999999996,0.008728,0.050766000000000006,0.034225
156,1.56,0.233706,1.541498,0.128262,0.025772000000000003,0.035858,0.04274
157,1.57,0.39487,1.821361,0.21835100000000002,0.027908,0.053970000000000004,0.052338
158,1.58,0.536046,2.207294,0.31599099999999997,0.009796,0.137054,0.065109
159,1.59,0.6070840000000001,2.464194,0.5444939999999999,-0.045609,0.28833000000000003,0.07470700000000001
160,1.6,0.46833800000000003,2.67868,0.972714,-0.130829,0.45770299999999997,0.088547
161,1.61,0.374232,2.917141,1.535616,-0.20965599999999998,0.5770109999999999,0.093872
162,1.62,0.07502,2.997532,1.971327,-0.271439,0.67395,0.107727
163,1.63,-0.330402,2.7970990000000002,2.1584470000000002,-0.335358,0.69313,0.105591
164,1.64,-0.629175,2.6364509999999997,2.255591,-0.40992700000000004,0.629211,0.118378
165,1.65,-0.660551,2.554143,2.286382,-0.480225,0.529083,0.132233
166,1.66,-0.627219,2.3729310000000003,2.334849,-0.5281680000000001,0.41296400000000005,0.129028
167,1.67,-0.7014229999999999,2.3584970000000003,2.281637,-0.561188,0.337326,0.100266
168,1.68,-0.9286620000000001,2.244123,2.4010569999999998,-0.585693,0.365021,0.105591
169,1.69,-1.035733,1.7720650000000002,2.528708,-0.595276,0.42681899999999995,0.118378
170,1.7,-1.200792,1.327022,2.9123069999999998,-0.59314,0.44918800000000003,0.134354
171,1.71,-1.283409,0.865391,3.3713550000000003,-0.565445,0.37248200000000004,0.164185
172,1.72,-1.182274,0.41833400000000004,3.801167,-0.48661800000000005,0.163696,0.19081099999999998
173,1.73,-1.086389,-0.053824999999999984,3.932261,-0.356659,-0.11007699999999998,0.20680199999999999
174,1.74,-0.805187,-0.36818,3.7083459999999997,-0.18196099999999998,-0.343369,0.21424899999999997
175,1.75,-0.5204989999999999,-0.625725,3.184704,0.009796,-0.433929,0.217453
176,1.76,-0.299823,-0.687988,2.5043990000000003,0.18556199999999998,-0.385986,0.21318099999999998
177,1.77,-0.301396,-0.703394,1.829695,0.33576999999999996,-0.22938499999999998,0.212128
178,1.78,-0.413869,-0.701427,1.206634,0.45401,-0.008881,0.235565
179,1.79,-0.535927,-0.7171390000000001,0.615946,0.538162,0.222275,0.27603099999999997
180,1.8,-0.687105,-0.7158770000000001,0.04521599999999998,0.57225,0.37887600000000005,0.31546
181,1.81,-0.776616,-0.769262,-0.610965,0.532837,0.443863,0.351669
182,1.82,-0.790932,-0.840384,-1.2091459999999998,0.424179,0.411896,0.380432
183,1.83,-0.828933,-0.8795620000000001,-1.712665,0.263321,0.310699,0.397476
184,1.84,-0.825048,-0.919657,-2.1135650000000004,0.061996,0.183929,0.415588
185,1.85,-0.7801710000000001,-1.0361040000000001,-2.3425599999999998,-0.1436,0.048645000000000015,0.433701
186,1.86,-0.677184,-1.1848670000000001,-2.480337,-0.331085,-0.0728,0.44541899999999995
187,1.87,-0.587842,-1.220412,-2.397133,-0.47703599999999996,-0.19957,0.455002
188,1.88,-0.369207,-1.294244,-2.224757,-0.561188,-0.312485,0.450745
189,1.89,-0.10592200000000003,-1.5434809999999999,-2.191137,-0.567581,-0.375336,0.430496
190,1.9,0.044797,-1.5676379999999999,-2.033648,-0.521774,-0.41793800000000003,0.378296
191,1.91,0.097616,-1.6552689999999999,-1.8780150000000002,-0.414185,-0.385986,0.317581
192,1.92,0.038976,-1.809724,-1.882064,-0.261856,-0.334854,0.250473
193,1.93,0.074174,-1.821366,-1.8461349999999999,-0.081818,-0.254959,0.19934100000000002
194,1.94,-0.009370999999999996,-1.873217,-1.909761,0.124847,-0.13458299999999998,0.153534
195,1.95,-0.030305000000000002,-1.747855,-2.007247,0.342148,0.0007019999999999942,0.11518900000000001
196,1.96,-0.061267999999999996,-1.673517,-2.303254,0.5616,0.098709,0.091751
197,1.97,-0.062598,-1.564058,-2.652966,0.748016,0.184998,0.088547
198,1.98,0.05870100000000001,-1.401656,-2.93633,0.879044,0.25317399999999995,0.10240199999999999
199,1.99,0.23872800000000002,-1.209749,-3.176113,0.9600069999999999,0.32453899999999997,0.122635
200,2.0,0.34978899999999996,-1.085914,-3.350596,0.9994200000000001,0.39592,0.133286
201,2.01,0.480764,-0.796021,-3.4372550000000004,0.986633,0.466232,0.139679
202,2.02,0.437881,-0.5274310000000001,-3.3314190000000004,0.916336,0.538666,0.13542200000000001
203,2.03,0.40365500000000004,-0.15821500000000002,-3.036991,0.8279110000000001,0.59938,0.140747
204,2.04,0.374673,0.06696999999999999,-2.607776,0.7320399999999999,0.628143,0.14288299999999998
205,2.05,0.288119,0.37554499999999996,-2.134025,0.624451,0.619629,0.143951
206,2.06,0.140594,0.680178,-1.6648009999999998,0.5083310000000001,0.5844729999999999,0.141815
207,2.07,-0.027071,0.919319,-1.0473540000000001,0.378372,0.5429229999999999,0.145004
208,2.08,-0.183113,1.193523,-0.355554,0.27504,0.486465,0.162048
209,2.09,-0.309745,1.4398440000000001,0.302404,0.207932,0.40124499999999996,0.181229
210,2.1,-0.304586,1.5757370000000002,0.8793139999999999,0.164261,0.283005,0.21318099999999998
211,2.11,-0.019200999999999968,1.643299,1.243199,0.129105,0.148773,0.228104
212,2.12,0.27171799999999996,1.9444290000000002,1.422966,0.076904,0.031601,0.21318099999999998
213,2.13,0.47138800000000003,2.0533040000000002,1.482609,-0.002991000000000001,-0.071732,0.17697100000000002
214,2.14,0.651026,2.413186,1.614257,-0.14999399999999996,-0.211288,0.11944600000000001
215,2.15,0.8894540000000001,2.715938,1.8290520000000001,-0.319382,-0.389175,0.050200999999999996
216,2.16,1.1506610000000002,3.104883,2.009163,-0.491943,-0.572403,-0.030762000000000005
217,2.17,1.335584,3.2042580000000003,2.197409,-0.646408,-0.627808,-0.11065699999999999
218,2.18,1.408758,3.069403,2.517475,-0.788086,-0.574539,-0.177765
219,2.19,1.420864,2.594007,2.905576,-0.91806,-0.447769,-0.23208600000000001
220,2.2,1.329113,1.969069,3.6761699999999995,-1.011795,-0.335922,-0.286423
221,2.21,1.2142629999999999,1.086743,4.6204540000000005,-1.040558,-0.279465,-0.350342
222,2.22,1.087124,0.310308,5.561922,-0.965988,-0.280518,-0.407867
223,2.23,1.19039,-0.161928,6.273173,-0.7284390000000001,-0.375336,-0.479233
224,2.24,1.20719,-0.27036,6.177941000000001,-0.10311900000000003,-0.560684,-0.566589
225,2.25,1.398643,-0.098012,5.270988,0.350677,-0.591583,-0.592148
226,2.26,1.516567,-0.006740000000000003,3.9159,0.718201,-0.49676499999999996,-0.595352
227,2.27,1.494708,0.12155099999999999,2.598765,0.9333799999999999,-0.352966,-0.578308
228,2.28,1.568043,0.166105,1.307089,0.9940950000000001,-0.216614,-0.534622
229,2.29,1.695186,0.051822,0.31203499999999995,0.8960879999999999,-0.0728,-0.487762
230,2.3,1.7716900000000002,-0.06443499999999999,-0.3736970000000001,0.67984,0.006027000000000001,-0.461121
231,2.31,1.6431200000000001,-0.36325999999999997,-0.7055520000000001,0.39328,-0.0046229999999999995,-0.446213
232,2.32,1.465626,-0.680405,-0.803249,0.096085,-0.090912,-0.44728100000000004
233,2.33,1.2290860000000001,-1.109086,-0.751825,-0.178757,-0.250702,-0.44407700000000006
234,2.34,1.0609950000000001,-1.505414,-0.676888,-0.404602,-0.446701,-0.43981899999999996
235,2.35,0.991676,-1.922634,-0.613554,-0.564392,-0.612885,-0.425964
236,2.36,0.879876,-2.249499,-0.625501,-0.6570590000000001,-0.7172850000000001,-0.41745
237,2.37,0.7459359999999999,-2.60217,-0.729946,-0.670914,-0.7641600000000001,-0.40679899999999997
238,2.38,0.648567,-2.859552,-0.9160149999999999,-0.617645,-0.775879,-0.400406
239,2.39,0.510939,-2.998655,-1.135575,-0.5271,-0.750305,-0.412125
240,2.4,0.486961,-3.132524,-1.473959,-0.401398,-0.6469729999999999,-0.41958599999999996
241,2.41,0.24578699999999998,-3.097682,-1.8967619999999998,-0.265045,-0.513824,-0.45899999999999996
242,2.42,-0.101717,-2.8939529999999998,-2.218906,-0.137207,-0.35936,-0.489883
243,2.43,-0.547874,-2.6389169999999997,-2.495391,-0.022171,-0.22405999999999998,-0.520782
244,2.44,-0.730946,-2.3735720000000002,-2.82022,0.081161,-0.126068,-0.546341
245,2.45,-0.856292,-2.176565,-3.143088,0.164261,-0.048294,-0.565521
246,2.46,-0.827944,-1.976204,-3.399324,0.23030100000000003,0.017746000000000005,-0.581497
247,2.47,-0.664287,-1.817832,-3.437679,0.28036500000000003,0.04332,-0.603867
248,2.48,-0.896933,-1.405253,-3.435456,0.342148,0.055038,-0.620911
249,2.49,-1.046686,-1.2302959999999998,-3.461504,0.40713499999999997,0.058227999999999995,-0.603867
250,2.5,-1.13368,-0.92853,-3.4295160000000005,0.46040299999999995,0.068878,-0.5559390000000001
251,2.51,-1.083644,-0.7398779999999999,-3.275472,0.49768100000000004,0.100845,-0.48881499999999994
252,2.52,-0.902817,-0.43286099999999994,-3.073181,0.505142,0.140259,-0.41105699999999995
253,2.53,-0.730112,-0.261293,-2.765695,0.49556000000000006,0.164749,-0.327972
254,2.54,-0.576813,-0.11920100000000003,-2.412553,0.458267,0.184998,-0.260849
255,2.55,-0.700721,0.094736,-1.970109,0.383698,0.20310999999999998,-0.20546
256,2.56,-0.781485,0.31080399999999997,-1.301654,0.273972,0.231873,-0.15113800000000002
257,2.57,-0.8182149999999999,0.535855,-0.537267,0.168518,0.25317399999999995,-0.095734
258,2.58,-0.927582,0.709831,0.28568000000000005,0.08862300000000001,0.275543,-0.031830000000000004
259,2.59,-1.0470760000000001,0.93269,1.043025,0.06944299999999999,0.2798,0.031020999999999996
260,2.6,-1.183424,1.015668,1.564559,0.075836,0.29151900000000003,0.09814500000000001
261,2.61,-1.190993,1.1455549999999999,1.821193,0.072647,0.32988,0.165253
262,2.62,-1.1626319999999999,1.2628840000000001,2.039962,0.037491000000000003,0.36183200000000004,0.219574
263,2.63,-1.1549200000000002,1.340576,2.180515,-0.023224,0.394852,0.262192
264,2.64,-1.056659,1.6050209999999998,2.1663040000000002,-0.11483800000000001,0.38952600000000004,0.290955
265,2.65,-1.040709,1.8870330000000002,2.189094,-0.221375,0.366089,0.312256
266,2.66,-1.155557,2.436706,2.066303,-0.363052,0.32988,0.31971700000000003
267,2.67,-1.338596,2.465284,1.8802310000000002,-0.46638500000000005,0.345856,0.31971700000000003
268,2.68,-1.375422,2.414103,1.833632,-0.616577,0.379944,0.327164
269,2.69,-1.321701,2.018729,2.09885,-0.812592,0.38526900000000003,0.331436
270,2.7,-1.192769,1.287934,2.746177,-1.01712,0.326675,0.31012
271,2.71,-1.0871469999999999,0.479396,3.6142220000000003,-1.171585,0.186066,0.27603099999999997
272,2.72,-0.979476,-0.197968,4.610953,-1.212067,0.003906000000000007,0.23449699999999998
273,2.73,-1.0555139999999998,-0.624302,5.347319000000001,-1.090622,-0.16548200000000002,0.192947
274,2.74,-1.050797,-0.720173,5.675159,-0.783829,-0.270935,0.167374
275,2.75,-0.9458219999999999,-0.478271,5.439,-0.335358,-0.234711,0.181229
276,2.76,-0.96949,-0.07608700000000003,4.540114,0.16212499999999996,-0.02592499999999999,0.20680199999999999
277,2.77,-1.141788,0.4336380000000001,3.4362199999999996,0.6063390000000001,0.327744,0.265381
278,2.78,-1.337818,0.804225,2.173915,0.937637,0.724014,0.346344
279,2.79,-1.230434,0.756799,1.105685,1.101685,1.096863,0.420914
280,2.8,-1.089664,0.581494,0.367998,1.086777,1.418579,0.464584
281,2.81,-1.3050629999999999,0.258938,0.041404,0.9174040000000001,1.62204,0.49334700000000004
282,2.82,-1.547606,-0.10591199999999999,-0.095307,0.6500090000000001,1.6209719999999999,0.527435
283,2.83,-1.708019,-0.505977,-0.145479,0.347488,1.4377440000000001,0.573242
284,2.84,-1.7483790000000001,-1.105536,-0.10048,0.041748000000000014,1.1160430000000001,0.630768
285,2.85,-1.596587,-1.652755,-0.035166,-0.228821,0.716568,0.6946869999999999
286,2.86,-1.2367709999999998,-2.180686,-0.027822000000000003,-0.425903,0.296844,0.7660520000000001
287,2.87,-0.857944,-2.602143,-0.037963,-0.5153810000000001,-0.05043,0.8299709999999999
288,2.88,-0.351111,-2.8104310000000003,-0.16656700000000002,-0.48661800000000005,-0.272003,0.880035
289,2.89,0.15391700000000005,-2.93376,-0.469121,-0.36198400000000003,-0.378525,0.905609
290,2.9,0.556625,-2.9407490000000003,-0.9537200000000001,-0.176636,-0.393448,0.894958
291,2.91,0.8819889999999999,-2.9031130000000003,-1.44169,0.03962700000000001,-0.33271799999999996,0.870453
292,2.92,1.084065,-2.760269,-2.036684,0.257996,-0.245377,0.838501
293,2.93,1.2531450000000002,-2.685019,-2.657507,0.452942,-0.151627,0.791626
294,2.94,1.445822,-2.514397,-3.3210010000000003,0.6020810000000001,-0.0728,0.743683
295,2.95,1.469243,-2.3934599999999997,-3.857241,0.689438,-0.015274000000000001,0.689362
296,2.96,1.6463240000000001,-2.2047060000000003,-4.321212,0.717133,-0.001419,0.630768
297,2.97,1.7306580000000003,-1.962784,-4.632543,0.694763,-0.018463,0.565796
298,2.98,1.824714,-1.6914619999999998,-4.790268,0.635101,-0.062149,0.49762
299,2.99,1.825032,-1.484582,-4.835804,0.544556,-0.096237,0.43263199999999996
300,3.0,1.7868380000000001,-1.242667,-4.722075,0.43803400000000003,-0.128189,0.379364
301,3.01,1.6956209999999998,-1.010926,-4.478962999999999,0.322983,-0.127121,0.345276
302,3.02,1.629427,-0.8505450000000001,-4.231511,0.196213,-0.103683,0.32611100000000004
303,3.03,1.594,-0.685105,-3.868924,0.054535,-0.060013,0.312256
304,3.04,1.477042,-0.508939,-3.201805,-0.096741,-0.015274000000000001,0.295212
305,3.05,1.265775,-0.384044,-2.3878470000000003,-0.228821,0.02095,0.27816799999999997
306,3.06,0.982707,-0.16017,-1.522143,-0.335358,0.033722,0.24940500000000002
307,3.07,0.75429,-0.033849000000000004,-0.510337,-0.415253,0.019882,0.22171
308,3.08,0.6079720000000001,0.164525,0.49243000000000003,-0.445068,-0.007811999999999999,0.18975799999999998
309,3.09,0.442456,0.333307,1.3425719999999999,-0.41204799999999997,-0.06854199999999999,0.139679
310,3.1,0.236771,0.57626,2.037055,-0.32150300000000004,-0.137772,0.088547
311,3.11,0.086629,0.83445,2.470291,-0.201126,-0.1772,0.039550999999999996
312,3.12,-0.05385499999999999,1.170875,2.696832,-0.081818,-0.18571500000000002,-0.004120000000000002
313,3.13,-0.133167,1.487916,2.7688599999999997,0.0076600000000000045,-0.175064,-0.033951
314,3.14,-0.044063,1.95397,2.801507,0.044952,-0.17185999999999998,-0.054199000000000004
315,3.15,0.165355,2.395122,2.761149,0.032166,-0.178253,-0.088287
316,3.16,0.382742,2.785534,2.617048,-0.024291999999999998,-0.18145799999999998,-0.129822
317,3.17,0.681575,3.233102,2.437569,-0.147873,-0.154816,-0.20333900000000002
318,3.18,0.8874620000000001,3.443972,2.416035,-0.341751,-0.11114500000000001,-0.288559
319,3.19,0.9984780000000001,3.352504,2.59179,-0.573975,-0.067474,-0.383362
320,3.2,0.846527,2.840832,3.051173,-0.806198,-0.040833,-0.463257
321,3.21,0.639809,1.9596209999999998,3.665339,-1.004333,-0.063217,-0.526108
322,3.22,0.47363599999999995,0.997,4.6413519999999995,-1.126846,-0.156952,-0.565521
323,3.23,0.279968,0.047918000000000016,5.571175,-1.123642,-0.302902,-0.606003
324,3.24,0.247515,-0.600299,6.3246400000000005,-0.968124,-0.495712,-0.641159
325,3.25,0.328646,-0.842616,6.599446,-0.65387,-0.701309,-0.670975
326,3.26,0.455276,-0.720065,6.139426,-0.21072399999999997,-0.83873,-0.692291
327,3.27,0.800245,-0.341804,5.022607,0.264389,-0.85257,-0.683762
328,3.28,1.132217,-0.155392,3.5743980000000004,0.662796,-0.6938479999999999,-0.661392
329,3.29,1.155133,0.194701,2.1884419999999998,0.940826,-0.445633,-0.639023
330,3.3,1.188653,0.40003,0.947289,1.048431,-0.155884,-0.59108
331,3.31,1.21771,0.46261899999999995,-0.153513,0.977051,0.105103,-0.548477
332,3.32,1.1941899999999999,0.387971,-0.863099,0.762939,0.258499,-0.5218510000000001
333,3.33,1.107861,0.137953,-1.28366,0.47212200000000004,0.30004899999999995,-0.5154569999999999
334,3.34,0.8633,-0.23481999999999997,-1.450282,0.166382,0.21269200000000002,-0.5218510000000001
335,3.35,0.786871,-0.644588,-1.503937,-0.11271699999999997,0.019882,-0.546341
336,3.36,0.709488,-1.179463,-1.539442,-0.38649,-0.200623,-0.580429
337,3.37,0.759642,-1.598905,-1.460321,-0.627243,-0.434982,-0.615585
338,3.38,0.9229040000000001,-1.9710990000000002,-1.401964,-0.803009,-0.6757350000000001,-0.6656489999999999
339,3.39,1.119185,-2.2049939999999997,-1.2325959999999998,-0.901016,-0.8653559999999999,-0.731705
340,3.4,1.317901,-2.246353,-1.02986,-0.916992,-0.958038,-0.7966770000000001
341,3.41,1.4629969999999999,-2.205595,-0.858736,-0.837097,-0.971878,-0.8648530000000001
342,3.42,1.6930990000000001,-2.006948,-0.8440489999999999,-0.685822,-0.933533,-0.9351649999999999
343,3.43,1.840023,-1.917559,-0.927472,-0.48768599999999995,-0.8440549999999999,-0.9852290000000001
344,3.44,1.9068439999999998,-1.899763,-1.0710469999999999,-0.255463,-0.691711,-1.022522
345,3.45,1.8879439999999998,-1.852468,-1.262628,-0.004059000000000007,-0.5170140000000001,-1.060867
346,3.46,1.797294,-1.6484130000000001,-1.4785540000000001,0.257996,-0.335922,-1.107742
347,3.47,1.3970639999999999,-1.3705200000000002,-1.685629,0.5136569999999999,-0.198502,-1.153549
348,3.48,1.0814629999999998,-1.2156069999999999,-1.9455099999999999,0.7437590000000001,-0.08345,-1.161011
349,3.49,1.023692,-1.116818,-2.219357,0.934448,0.012420999999999998,-1.140762
350,3.5,1.013818,-1.161195,-2.574659,1.0452270000000001,0.105103,-1.12265
351,3.51,1.005585,-1.127625,-2.758107,1.058014,0.193512,-1.104538
352,3.52,0.868001,-1.078643,-2.691339,1.0004879999999998,0.263824,-1.0896299999999999
353,3.53,0.41718299999999997,-1.097936,-2.54623,0.8960879999999999,0.30749499999999996,-1.072586
354,3.54,-0.036706000000000016,-0.982798,-2.20662,0.757614,0.33413699999999996,-1.019318
355,3.55,-0.500664,-0.902483,-1.6970580000000002,0.622314,0.312836,-0.930908
356,3.56,-0.9313889999999999,-0.8773989999999999,-1.223039,0.510468,0.252106,-0.835037
357,3.57,-1.197643,-0.8192309999999999,-0.7725069999999999,0.427383,0.154099,-0.7253109999999999
358,3.58,-1.3160129999999999,-0.797678,-0.371197,0.367722,0.051834000000000005,-0.623047
359,3.59,-1.216318,-0.7291810000000001,0.06512100000000001,0.32405100000000003,-0.054688,-0.5431520000000001
360,3.6,-1.199798,-0.612071,0.39006799999999997,0.300613,-0.173996,-0.48881499999999994
361,3.61,-1.253018,-0.39987399999999995,0.584674,0.292084,-0.300766,-0.449402
362,3.62,-1.492867,-0.27184400000000003,0.655246,0.286758,-0.39663699999999996,-0.41319300000000003
363,3.63,-1.6190120000000001,-0.094088,0.6219779999999999,0.268646,-0.42753599999999997,-0.360992
364,3.64,-1.606552,-0.014748999999999996,0.59938,0.23136900000000002,-0.406219,-0.304535
365,3.65,-1.628947,0.10516899999999997,0.546599,0.181305,-0.366806,-0.24913000000000002
366,3.66,-1.523227,0.186226,0.441675,0.11738599999999999,-0.33699,-0.20333900000000002
367,3.67,-1.380822,0.510832,0.523357,0.047073000000000004,-0.340179,-0.18309
368,3.68,-1.1879899999999999,1.065348,0.5470659999999999,-0.006179999999999998,-0.38385,-0.19480899999999998
369,3.69,-1.097284,1.634591,0.57753,-0.059448,-0.426468,-0.222504
370,3.7,-1.143461,1.8234130000000002,0.510732,-0.10845899999999999,-0.454163,-0.265121
371,3.71,-1.256256,1.9377790000000001,0.29984099999999997,-0.184082,-0.42114300000000005,-0.301331
372,3.72,-1.382462,1.854954,0.207006,-0.336426,-0.30928,-0.31304899999999997
373,3.73,-1.316583,1.594985,0.42563199999999995,-0.572906,-0.196365,-0.294937
374,3.74,-0.924386,0.786888,1.1535030000000002,-0.8466799999999999,-0.159088,-0.286423
375,3.75,-0.49911700000000003,-0.08727400000000002,2.2760130000000003,-1.079971,-0.21873499999999998,-0.31092800000000004
376,3.76,-0.21230700000000002,-0.7523960000000001,3.552708,-1.171585,-0.385986,-0.352463
377,3.77,-0.167099,-1.050163,4.619975,-1.074646,-0.584122,-0.399338
378,3.78,-0.355819,-1.057361,5.1501470000000005,-0.763596,-0.734329,-0.423843
379,3.79,-0.660925,-0.9626129999999999,4.997006,-0.28527800000000003,-0.759888,-0.415314
380,3.8,-0.920155,-0.489517,4.136272,0.214325,-0.5308689999999999,-0.338623
381,3.81,-1.527123,-0.092592,2.9495,0.632965,-0.13884000000000002,-0.220383
382,3.82,-2.046728,0.177323,1.612263,0.888641,0.312836,-0.057388
383,3.83,-2.018019,0.21365,0.387516,0.916336,0.72934,0.11624099999999997
384,3.84,-1.66523,0.13183,-0.50083,0.728851,1.061707,0.240891
385,3.85,-1.581021,-0.168015,-0.8309799999999999,0.399673,1.22789,0.320786
386,3.86,-1.7525990000000002,-0.39957800000000004,-0.7513770000000001,0.005538999999999988,1.13414,0.347412
387,3.87,-1.828917,-0.651696,-0.501216,-0.366241,0.8358760000000001,0.363388
388,3.88,-1.537317,-1.139543,-0.103049,-0.696472,0.424683,0.36659200000000003
389,3.89,-1.121378,-1.56026,0.357633,-0.948944,-0.08984400000000001,0.32504299999999997
390,3.9,-0.629907,-1.77435,0.782145,-1.074646,-0.574539,0.25793499999999997
391,3.91,-0.33162600000000003,-1.808228,0.9580280000000001,-1.05867,-0.932465,0.203598
392,3.92,0.18006599999999998,-1.800848,0.814736,-0.9105989999999999,-1.1348719999999999,0.179092
393,3.93,0.6512479999999999,-1.683385,0.49867399999999995,-0.669846,-1.166824,0.162048
394,3.94,1.167368,-1.750131,0.015064999999999997,-0.372635,-1.072021,0.15033
395,3.95,1.8728509999999998,-1.680389,-0.569377,-0.05944800000000002,-0.9122309999999999,0.11624100000000001
396,3.96,2.552845,-1.585636,-1.0463559999999998,0.25054899999999997,-0.702362,0.055527
397,3.97,3.082877,-1.4498209999999998,-1.521936,0.537094,-0.474396,-0.035018999999999995
398,3.98,3.395924,-1.340749,-2.0289490000000003,0.792755,-0.263474,-0.143677
399,3.99,3.356425,-1.101779,-2.633124,0.993027,-0.071732,-0.24380500000000002
400,4.0,3.000261,-0.845625,-3.159338,1.118729,0.068878,-0.320511
401,4.01,2.625823,-0.573418,-3.576362,1.1762540000000001,0.159424,-0.367386
402,4.02,2.33252,-0.41948100000000005,-3.8684089999999998,1.165604,0.235062,-0.38655100000000003
403,4.03,2.012496,-0.441903,-3.9794389999999997,1.0974270000000002,0.280869,-0.395081
404,4.04,1.783268,-0.501288,-3.798235,0.9972989999999999,0.280869,-0.390823
405,4.05,1.437079,-0.505297,-3.434416,0.871597,0.257431,-0.373779
406,4.06,1.151657,-0.508406,-2.900634,0.758667,0.210556,-0.346069
407,4.07,0.8204469999999999,-0.46516899999999994,-2.3780580000000002,0.661728,0.150909,-0.319443
408,4.08,0.48789899999999997,-0.431121,-1.8318310000000002,0.5679930000000001,0.10403399999999999,-0.294937
409,4.09,0.15936,-0.328802,-1.1347040000000002,0.478516,0.078476,-0.267242
410,4.1,0.004587999999999996,-0.220212,-0.60438,0.41671800000000003,0.055038,-0.241684
411,4.11,-0.12025599999999999,-0.207839,-0.14150200000000002,0.364532,0.049713,-0.23208600000000001
412,4.12,-0.291263,-0.007398999999999989,0.289472,0.298477,0.052902,-0.23529099999999997
413,4.13,-0.444575,0.087906,0.810682,0.226044,0.016678,-0.241684
414,4.14,-0.528934,0.293383,1.233989,0.156799,-0.04829399999999999,-0.251266
415,4.15,-0.510034,0.43314300000000006,1.599382,0.097137,-0.119675,-0.271515
416,4.16,-0.419212,0.5409619999999999,1.820799,0.053466999999999994,-0.19104000000000002,-0.30027800000000004
417,4.17,-0.054585000000000015,0.535254,2.006814,0.018311,-0.24856599999999998,-0.347137
418,4.18,0.26562600000000003,0.671593,2.197791,0.004471,-0.280518,-0.409988
419,4.19,0.352564,1.0526469999999999,2.207214,0.015121,-0.325272,-0.512253
420,4.2,0.382258,1.374892,1.930377,0.036423000000000004,-0.364685,-0.5559390000000001
421,4.21,0.696944,1.689515,1.515656,0.038558999999999996,-0.413681,-0.592148
422,4.22,0.9388559999999999,1.9950700000000001,1.055878,-0.022171000000000003,-0.424332,-0.6347659999999999
423,4.23,1.0732030000000001,2.122236,0.6572899999999999,-0.144669,-0.41688500000000006,-0.663528
424,4.24,1.1087559999999999,1.975844,0.45172399999999996,-0.306595,-0.413681,-0.686966
425,4.25,1.1072790000000001,1.5579129999999999,0.35738400000000003,-0.48768599999999995,-0.411545,-0.699738
426,4.26,1.016317,1.0668520000000001,0.49676000000000003,-0.663452,-0.461624,-0.7348939999999999
427,4.27,1.068748,0.641392,0.9376329999999999,-0.8307040000000001,-0.544708,-0.808395
428,4.28,1.050465,0.427375,1.8020049999999999,-0.9595950000000001,-0.649109,-0.9127959999999999
429,4.29,1.2736450000000001,0.585437,2.819253,-0.948944,-0.8088989999999999,-1.0374299999999999
430,4.3,1.3380530000000002,0.696662,3.563361,-0.766785,-0.97934,-1.1567379999999998
431,4.31,1.358823,0.710386,3.6331480000000003,-0.465317,-1.0911870000000001,-1.2483520000000001
432,4.32,1.1264530000000001,0.8746120000000001,3.2843839999999997,-0.12123099999999999,-1.142319,-1.30481
433,4.33,0.995458,0.994871,2.4834240000000003,0.16745,-1.0911870000000001,-1.2909700000000002
434,4.34,0.9472649999999999,1.0490190000000001,1.654023,0.334702,-0.97934,-1.219589
435,4.35,0.873309,1.023293,0.9299540000000001,0.364532,-0.881332,-1.118393
436,4.36,1.041353,0.8258200000000001,0.3313,0.24841300000000002,-0.825943,-0.989502
437,4.37,1.311292,0.498012,0.099641,-0.006179999999999991,-0.8536379999999999,-0.869125
438,4.38,1.664051,-0.07883900000000002,0.361718,-0.330032,-0.991058,-0.795624
439,4.39,1.963539,-0.640785,0.932163,-0.640015,-1.179611,-0.7657930000000001
440,4.4,2.054256,-1.302475,1.602121,-0.862656,-1.382004,-0.7711180000000001
441,4.41,2.041636,-2.039285,2.154705,-0.962799,-1.5428620000000002,-0.804138
442,4.42,1.9128740000000002,-2.596132,2.4924459999999997,-0.944687,-1.622757,-0.846756
443,4.43,1.509865,-2.9864669999999998,2.545593,-0.804077,-1.628082,-0.895752
444,4.44,1.133067,-3.3699769999999996,2.383267,-0.57077,-1.5194239999999999,-0.914932
445,4.45,0.931219,-3.4977970000000003,2.080597,-0.25758400000000004,-1.335129,-0.9127959999999999
446,4.46,0.798538,-3.597181,1.499754,0.10566700000000001,-1.074142,-0.901077
447,4.47,0.67074,-3.4780010000000003,0.730688,0.488098,-0.7748109999999999,-0.878708
448,4.48,0.5818979999999999,-3.282218,-0.216236,0.846024,-0.48611499999999996,-0.848877
449,4.49,0.431096,-2.960207,-1.208105,1.136841,-0.23684699999999997,-0.8190609999999999
450,4.5,0.386927,-2.802627,-2.1903,1.354156,-0.052551,-0.8094640000000001
451,4.51,0.42465299999999995,-2.532668,-3.008713,1.479858,0.07633999999999999,-0.8297120000000001
452,4.52,0.899184,-2.418075,-3.547769,1.539505,0.134933,-0.9117280000000001
453,4.53,0.998151,-2.24781,-4.055244999999999,1.5235290000000001,0.186066,-1.038498
454,4.54,0.7482340000000001,-2.12768,-4.3422,1.437241,0.192459,-1.161011
455,4.55,0.402479,-1.672886,-4.450787999999999,1.292374,0.181793,-1.236633
456,4.56,-0.082849,-1.294564,-4.3458120000000005,1.12619,0.13172899999999998,-1.255814
457,4.57,-0.417005,-0.882884,-4.049366,0.9525450000000001,0.06143200000000001,-1.2164
458,4.58,-0.509303,-0.431439,-3.684461,0.7906340000000001,-0.035507,-1.146088
459,4.59,-0.5387569999999999,-0.05201999999999998,-3.368796,0.64682,-0.107956,-1.067261
460,4.6,-0.503838,0.190985,-3.017447,0.504074,-0.13351400000000002,-0.9958950000000001
461,4.61,-0.45163400000000004,0.372636,-2.607487,0.366653,-0.110077,-0.930908
462,4.62,-0.570338,0.48173299999999997,-2.07433,0.249481,-0.067474,-0.882965
463,4.63,-0.813038,0.594237,-1.4647629999999998,0.161057,-0.012085,-0.837158
464,4.64,-0.741572,0.492004,-0.8409709999999999,0.106735,0.025208,-0.78923
465,4.65,-0.5778800000000001,0.461267,-0.292846,0.087555,0.059296,-0.766861
466,4.66,-0.58301,0.464976,0.023926000000000003,0.09287999999999999,0.092316,-0.760468
467,4.67,-0.8324030000000001,0.43197299999999994,0.212189,0.108856,0.110428,-0.745544
468,4.68,-1.139672,0.44641899999999995,0.359033,0.10566700000000001,0.140259,-0.7114560000000001
469,4.69,-1.506111,0.549709,0.379448,0.072647,0.158371,-0.6720430000000001
470,4.7,-2.019279,0.688365,0.581954,0.019379,0.15304600000000002,-0.614517
471,4.71,-2.257643,0.9641620000000001,0.8337540000000001,-0.039215,0.129608,-0.538895
472,4.72,-2.319168,1.2839639999999999,1.079918,-0.0914,0.064621,-0.45047
473,4.73,-2.357105,1.5903909999999999,1.1170799999999999,-0.134018,-0.035507,-0.37696799999999997
474,4.74,-2.310057,2.0583709999999997,0.9048930000000001,-0.18515,-0.151627,-0.316254
475,4.75,-2.338238,2.304418,0.6363949999999999,-0.291672,-0.216614,-0.25766
476,4.76,-2.220049,2.28535,0.602403,-0.46211199999999997,-0.24324,-0.236359
477,4.77,-2.89521,2.301422,0.660117,-0.694351,-0.164413,-0.173508
478,4.78,-3.376701,1.88867,1.094806,-0.974518,-0.142044,-0.08934
479,4.79,-3.46754,1.40842,2.061212,-1.26001,-0.166534,0.0054630000000000034
480,4.8,-2.7283459999999997,0.330093,3.5728050000000002,-1.446426,-0.282654,0.07896399999999999
481,4.81,-1.926341,-0.25443499999999997,5.118253,-1.414459,-0.42753599999999997,0.07470700000000001
482,4.82,-1.608625,-0.48669399999999996,6.176788,-1.128983,-0.577728,0.024643
483,4.83,-1.582171,-0.321239,6.232029,-0.65387,-0.667221,-0.007324
484,4.84,-1.745034,0.005598999999999993,5.644582,-0.08821099999999997,-0.589447,0.00013699999999999994
485,4.85,-2.034552,0.30441999999999997,4.344482,0.45933500000000005,-0.368942,0.07470700000000001
486,4.86,-2.201275,0.46190200000000003,2.83569,0.8279110000000001,-0.085587,0.20680199999999999
487,4.87,-2.046378,0.763764,1.47201,0.975983,0.196716,0.378296
488,4.88,-1.7215610000000001,0.855292,0.22885500000000006,0.9035489999999999,0.43533299999999997,0.538086
489,4.89,-1.62294,0.877494,-0.590431,0.620193,0.539734,0.670181
490,4.9,-1.54409,0.6974520000000001,-0.9273299999999999,0.18556199999999998,0.440659,0.768188
491,4.91,-1.2299639999999998,0.342964,-0.732126,-0.300201,0.16581700000000002,0.833176
492,4.92,-0.6470020000000001,-0.11140599999999999,-0.07651599999999997,-0.714584,-0.201691,0.848083
493,4.93,-0.134214,-0.576911,0.883784,-0.9500120000000001,-0.536194,0.810806
494,4.94,0.265192,-0.9669280000000001,1.5727790000000001,-0.995819,-0.795044,0.752213
495,4.95,0.683207,-1.230451,1.937154,-0.8669129999999999,-0.954834,0.696823
496,4.96,0.910726,-1.2783440000000001,2.064794,-0.606995,-0.988922,0.639297
497,4.97,1.221886,-1.500961,1.8307630000000001,-0.276764,-0.964417,0.595612
498,4.98,1.508659,-1.568769,1.3048950000000001,0.08009300000000003,-0.887726,0.544479
499,4.99,1.84732,-1.7612349999999999,0.6842739999999999,0.42524700000000004,-0.753494,0.510391
500,5.0,2.059166,-1.873255,-0.023364,0.75441,-0.574539,0.47097799999999995
501,5.01,2.247625,-1.947124,-0.782075,1.062271,-0.388123,0.425171
502,5.02,2.283936,-2.043971,-1.509773,1.310486,-0.198502,0.380432
503,5.03,2.217804,-2.062877,-2.30309,1.497971,-0.02166700000000001,0.345276
504,5.04,1.9381709999999999,-1.99478,-3.062575,1.5959780000000001,0.10829200000000001,0.306931
505,5.05,1.71374,-1.916627,-3.8107029999999997,1.600235,0.181793,0.285629
506,5.06,1.636707,-2.0142189999999998,-4.312692,1.519272,0.197784,0.25793499999999997
507,5.07,1.129689,-1.739929,-4.475599,1.368011,0.19458,0.219574
508,5.08,0.605876,-1.662813,-4.693851,1.179459,0.141327,0.22384600000000002
509,5.09,0.40780500000000003,-1.489485,-4.609829,0.937637,0.073151,0.256866
510,5.1,0.35749000000000003,-1.379081,-4.267021,0.6840970000000001,-0.008881,0.295212
511,5.11,0.427012,-1.284775,-3.7908839999999997,0.46147200000000005,-0.114349,0.321838
512,5.12,0.383446,-1.214336,-3.1933439999999997,0.266525,-0.21340900000000002,0.328232
513,5.13,0.46144300000000005,-1.178604,-2.6776020000000003,0.103531,-0.306091,0.314392
514,5.14,0.41998500000000005,-1.118914,-2.0819919999999996,-0.036011,-0.388123,0.27923600000000004
515,5.15,0.373894,-1.0499829999999999,-1.4115799999999998,-0.15213,-0.43605,0.237686
516,5.16,0.430392,-0.8802180000000001,-0.701852,-0.21816999999999998,-0.483994,0.186554
517,5.17,0.5448189999999999,-0.554247,0.02494200000000002,-0.23521399999999998,-0.545776,0.131165
518,5.18,0.696434,-0.361451,0.572471,-0.195801,-0.611816,0.086426
519,5.19,1.044362,-0.10808099999999997,0.915092,-0.128693,-0.63739,0.029968
520,5.2,1.3493950000000001,0.201951,0.999475,-0.088211,-0.5990449999999999,-0.063782
521,5.21,1.437838,0.571797,1.023878,-0.092468,-0.506363,-0.16391
522,5.22,1.4311690000000001,0.782741,1.00358,-0.168106,-0.38385,-0.269379
523,5.23,1.275107,1.230283,1.207231,-0.298065,-0.244308,-0.350342
524,5.24,1.2217770000000001,1.398508,1.513016,-0.437622,-0.130325,-0.43981899999999996
525,5.25,1.0370780000000002,1.414021,1.987718,-0.5271,-0.029128999999999995,-0.52504
526,5.26,0.789759,1.3720219999999999,2.20051,-0.583557,0.017746,-0.6315609999999999
527,5.27,0.270275,1.268723,2.458519,-0.642151,0.035858,-0.71785
528,5.28,-0.104901,1.308625,2.677743,-0.687958,0.024138999999999997,-0.7689819999999999
529,5.29,-0.284059,1.109308,2.881641,-0.70607,-0.035507,-0.7977449999999999
530,5.3,-0.269201,0.8615010000000001,3.096546,-0.696472,-0.10688800000000001,-0.8179930000000001
531,5.31,0.07084399999999998,0.45121700000000003,3.3280309999999997,-0.646408,-0.18571500000000002,-0.8392940000000001
532,5.32,0.647123,0.023914999999999992,3.569618,-0.549469,-0.254959,-0.882965
533,5.33,1.1463430000000001,-0.260362,3.6851279999999997,-0.385422,-0.293304,-0.9468840000000001
534,5.34,1.487303,-0.301938,3.6523809999999997,-0.156387,-0.279465,-1.021454
535,5.35,1.555903,-0.192476,3.277904,0.129105,-0.244308,-1.097092
536,5.36,1.33618,-0.012602000000000002,2.521085,0.43483,-0.19104000000000002,-1.151413
537,5.37,1.043854,0.12026300000000001,1.426226,0.697952,-0.130325,-1.1642
538,5.38,0.7620560000000001,0.44487,0.29319700000000004,0.851349,-0.08984400000000001,-1.127975
539,5.39,0.757536,0.8358409999999998,-0.857008,0.8801120000000001,-0.084518,-1.05661
540,5.4,0.506326,0.9834940000000001,-1.857622,0.770386,-0.143112,-0.961792
541,5.41,0.294269,1.1568209999999999,-2.55078,0.530701,-0.235779,-0.8297120000000001
542,5.42,0.243937,1.208098,-2.8071900000000003,0.17491099999999998,-0.374268,-0.675247
543,5.43,0.370897,1.028817,-2.65813,-0.24054,-0.558563,-0.522903
544,5.44,0.715843,0.628111,-2.145433,-0.646408,-0.779068,-0.400406
545,5.45,1.071603,0.01747599999999999,-1.363485,-0.9606629999999999,-0.9431149999999999,-0.305603
546,5.46,1.3118290000000001,-0.615366,-0.536331,-1.142822,-1.038986,-0.245941
547,5.47,1.3744100000000001,-1.172634,0.22025800000000004,-1.19928,-1.0847930000000001,-0.220383
548,5.48,1.392396,-1.5607360000000001,0.756532,-1.134308,-1.095459,-0.218246
549,5.49,1.346324,-1.760475,0.985917,-0.975571,-1.050705,-0.23422199999999999
550,5.5,1.310135,-1.876326,0.910343,-0.760391,-0.9516450000000001,-0.260849
551,5.51,1.2416969999999998,-1.867932,0.635881,-0.517517,-0.814224,-0.297073
552,5.52,1.104441,-1.860829,0.249171,-0.28527800000000003,-0.667221,-0.343948
553,5.53,0.9583209999999999,-1.774209,-0.2690250000000001,-0.065842,-0.520203,-0.389755
554,5.54,0.8023060000000001,-1.65904,-0.766346,0.12271099999999999,-0.37745700000000004,-0.449402
555,5.55,0.49947700000000006,-1.444911,-1.297294,0.268646,-0.259216,-0.49948100000000006
556,5.56,0.12899100000000002,-1.294219,-1.763743,0.36025999999999997,-0.145233,-0.527176
557,5.57,-0.059765999999999986,-1.067126,-2.1695830000000003,0.400742,-0.061080999999999996,-0.530365
558,5.58,-0.15652,-0.865848,-2.406095,0.404999,-0.032318,-0.52504
559,5.59,-0.23521599999999998,-0.6217229999999999,-2.562227,0.37304699999999996,-0.058945000000000004,-0.520782
560,5.6,-0.272096,-0.451737,-2.548238,0.32617199999999996,-0.11860699999999999,-0.519714
561,5.61,-0.341775,-0.128325,-2.4361,0.27929699999999996,-0.205963,-0.523972
562,5.62,-0.424051,-0.00039399999999999846,-2.1617490000000004,0.23136900000000002,-0.292236,-0.518646
563,5.63,-0.348695,0.13058,-1.847706,0.187698,-0.375336,-0.503738
564,5.64,-0.180609,0.317578,-1.42889,0.14827,-0.450974,-0.50267
565,5.65,-0.088058,0.321942,-1.068959,0.11845399999999999,-0.509552,-0.514389
566,5.66,-0.090654,0.342113,-0.720933,0.104599,-0.556427,-0.539948
567,5.67,-0.150145,0.297012,-0.38493299999999997,0.091812,-0.587326,-0.5623319999999999
568,5.68,-0.123205,0.149569,-0.045586000000000015,0.081161,-0.574539,-0.581497
569,5.69,-0.11010999999999999,0.11421600000000001,0.382283,0.087555,-0.540451,-0.602798
570,5.7,-0.059029,0.097403,0.744256,0.108856,-0.480789,-0.61026
571,5.71,-0.02642,-0.02372,1.054994,0.15361,-0.37745700000000004,-0.5996090000000001
572,5.72,-0.102237,-0.14804,1.225541,0.21858200000000003,-0.263474,-0.582565
573,5.73,-0.354275,-0.13633900000000002,1.273568,0.276108,-0.14949,-0.548477
574,5.74,-0.5738449999999999,-0.059642999999999995,1.232478,0.319778,-0.061080999999999996,-0.495209
575,5.75,-0.804134,0.012908000000000001,1.0595139999999998,0.347488,-0.01741,-0.438751
576,5.76,-1.082519,0.197735,0.953,0.35281399999999996,-0.007812,-0.381226
577,5.77,-1.079232,0.374374,0.79094,0.332565,-0.022736000000000003,-0.311981
578,5.78,-0.937177,0.8702290000000001,0.69081,0.291016,-0.058945000000000004,-0.280029
579,5.79,-1.0860370000000001,1.322976,0.488468,0.23136900000000002,-0.110077,-0.280029
580,5.8,-1.7123830000000002,1.497554,0.08805000000000003,0.14827,-0.14416500000000002,-0.27577199999999996
581,5.81,-2.129282,1.713623,-0.336073,0.006592000000000001,-0.166534,-0.222504
582,5.82,-2.286621,1.720725,-0.621458,-0.22244299999999997,-0.165482,-0.135147
583,5.83,-2.127472,1.439292,-0.578489,-0.535629,-0.18038900000000002,-0.036087000000000015
584,5.84,-1.6538869999999999,0.816056,0.016771999999999954,-0.901016,-0.24217199999999997,0.037415
585,5.85,-0.9050159999999999,0.08950700000000006,1.1540709999999998,-1.225922,-0.352966,0.056595000000000006
586,5.86,-0.15553699999999998,-0.417306,2.793011,-1.408081,-0.459488,0.010788
587,5.87,0.177481,-0.698311,4.384339,-1.352676,-0.536194,-0.09787
588,5.88,0.13583499999999998,-0.71363,5.454154,-1.046951,-0.571335,-0.22676100000000002
589,5.89,-0.360456,-0.649883,5.665258000000001,-0.583557,-0.51915,-0.321579
590,5.9,-0.973339,-0.375792,4.960909,-0.087143,-0.365738,-0.345016
591,5.91,-1.459163,-0.16551400000000002,3.608741,0.30700700000000003,-0.131393,-0.261917
592,5.92,-1.6319110000000001,0.05636600000000001,2.146213,0.49235500000000004,0.126404,-0.10639999999999998
593,5.93,-1.6228200000000002,0.160175,0.751721,0.440155,0.33520500000000003,0.07257100000000001
594,5.94,-1.469087,0.019917000000000004,-0.090899,0.183426,0.418289,0.255798
595,5.95,-1.12414,-0.27929299999999996,-0.340221,-0.190475,0.35436999999999996,0.400681
596,5.96,-0.823118,-0.6230479999999999,0.06359800000000003,-0.54628,0.177536,0.49334700000000004
597,5.97,-0.609991,-0.838084,0.83286,-0.755066,-0.01527400000000001,0.5359649999999999
598,5.98,-0.48508100000000004,-1.099294,1.463111,-0.788086,-0.13458299999999998,0.558334
599,5.99,-0.2556,-1.231017,1.812829,-0.671982,-0.155884,0.564728
600,6.0,-0.025239,-1.1770479999999999,1.820882,-0.447205,-0.100494,0.5476840000000001
601,6.01,0.159622,-1.145066,1.514255,-0.16703800000000002,-0.007811999999999999,0.518921
602,6.02,0.287245,-1.062748,0.8243229999999999,0.123779,0.114685,0.47843900000000006
603,6.03,0.442301,-1.056422,0.078739,0.364532,0.21375999999999998,0.433701
604,6.04,0.565332,-1.087084,-0.704692,0.537094,0.264893,0.377243
605,6.05,0.554092,-1.1564709999999998,-1.421453,0.644684,0.263824,0.31546
606,6.06,0.41259300000000004,-1.211961,-2.0145169999999997,0.693695,0.248917,0.264313
607,6.07,0.07829300000000003,-1.26522,-2.44541,0.7064819999999999,0.248917,0.23129299999999997
608,6.08,-0.19469,-1.2484819999999999,-2.7275669999999996,0.6851649999999999,0.260635,0.236618
609,6.09,-0.437899,-1.251118,-2.874329,0.647888,0.277679,0.273911
610,6.1,-0.629967,-1.284767,-2.881664,0.604218,0.281937,0.330368
611,6.11,-0.757605,-1.323197,-2.796338,0.546692,0.286194,0.391083
612,6.12,-0.94606,-1.30793,-2.6555459999999997,0.48703,0.280869,0.44541899999999995
613,6.13,-1.145046,-1.35738,-2.500851,0.42311099999999996,0.264893,0.49441499999999994
614,6.14,-1.24872,-1.37196,-2.3317900000000003,0.34428400000000003,0.24359099999999997,0.5348970000000001
615,6.15,-1.383522,-1.478143,-2.031584,0.26013200000000003,0.21482800000000002,0.577515
616,6.16,-1.4770459999999999,-1.428167,-1.75983,0.182358,0.18074,0.6126560000000001
617,6.17,-1.483463,-1.460897,-1.383222,0.11738599999999999,0.160492,0.639297
618,6.18,-1.551958,-1.414603,-1.059492,0.075836,0.160492,0.664856
619,6.19,-1.528852,-1.369367,-0.741731,0.04068,0.169022,0.69043
620,6.2,-1.470816,-1.232593,-0.337262,0.017242,0.184998,0.708542
621,6.21,-1.394261,-1.26883,0.011241,-0.014709,0.21589699999999998,0.7074739999999999
622,6.22,-1.391035,-1.0687389999999999,0.457975,-0.033889999999999997,0.256363,0.696823
623,6.23,-1.339238,-0.9638180000000001,0.885626,-0.028564,0.306442,0.685104
624,6.24,-1.421807,-0.851669,1.203735,0.007659999999999999,0.390594,0.675507
625,6.25,-1.4282489999999999,-0.721946,1.4300979999999999,0.059860000000000003,0.50351,0.685104
626,6.26,-1.4626780000000001,-0.46609300000000004,1.437559,0.116318,0.622818,0.7042689999999999
627,6.27,-1.488736,-0.234566,1.3286879999999999,0.152542,0.722961,0.728775
628,6.28,-1.339982,-0.077282,1.143897,0.14721700000000001,0.783676,0.762863
629,6.29,-1.255617,0.096651,0.951656,0.079041,0.791138,0.782043
630,6.3,-1.342623,0.29238200000000003,0.789697,-0.030685000000000004,0.763428,0.801208
631,6.31,-1.4857200000000002,0.509374,0.579753,-0.170242,0.702713,0.826782
632,6.32,-1.5559610000000001,0.778275,0.431328,-0.337479,0.6313479999999999,0.8619379999999999
633,6.33,-1.472189,1.1235680000000001,0.42832,-0.526031,0.543991,0.8832399999999999
634,6.34,-1.279954,1.390601,0.580241,-0.724182,0.444916,0.8970950000000001
635,6.35,-1.091928,1.405908,0.8511709999999999,-0.919113,0.35543800000000003,0.8970950000000001
636,6.36,-0.615697,1.243187,1.489859,-1.090622,0.318161,0.891754
637,6.37,-0.011054999999999982,0.9146059999999999,2.295341,-1.181168,0.31495700000000004,0.870453
638,6.38,0.6643560000000001,0.516857,3.252903,-1.153473,0.34265100000000004,0.8246459999999999
639,6.39,1.345324,0.292628,4.0182199999999995,-0.9904940000000001,0.384201,0.749008
640,6.4,1.8059479999999999,0.190179,4.420667,-0.685822,0.444916,0.640366
641,6.41,1.9263599999999999,0.103038,4.161956,-0.294876,0.529083,0.518921
642,6.42,1.8128650000000002,0.212157,3.4671410000000003,0.107803,0.6366729999999999,0.420914
643,6.43,1.494385,0.264148,2.328705,0.428436,0.749588,0.36552399999999996
644,6.44,1.112142,0.258785,1.081817,0.6095430000000001,0.82309,0.351669
645,6.45,0.895503,0.311712,0.07946999999999993,0.6436310000000001,0.846527,0.377243
646,6.46,0.6129899999999999,0.340944,-0.749865,0.552017,0.818832,0.428375
647,6.47,0.34077199999999996,0.327192,-1.2164629999999998,0.356003,0.7549130000000001,0.5221100000000001
648,6.48,0.252795,0.171499,-1.357954,0.106735,0.656906,0.643555
649,6.49,0.305194,-0.100206,-1.206687,-0.142548,0.562103,0.7543489999999999
650,6.5,0.21051799999999998,-0.429496,-0.8297680000000001,-0.346008,0.502441,0.852341
651,6.51,0.083589,-0.686496,-0.31353000000000003,-0.480225,0.477951,0.941833
652,6.52,0.055469000000000004,-0.9036420000000001,0.16253399999999998,-0.534561,0.48860200000000004,1.019592
653,6.53,0.064969,-1.075569,0.49008500000000005,-0.505798,0.5194850000000001,1.0749819999999999
654,6.54,-0.12131600000000001,-1.243485,0.5798260000000001,-0.43336499999999994,0.5770109999999999,1.1101379999999998
655,6.55,-0.22717199999999999,-1.373419,0.587495,-0.326828,0.633469,1.136765
656,6.56,-0.102408,-1.702348,0.578551,-0.195801,0.679276,1.155945
657,6.57,-0.170382,-1.712419,0.36389499999999997,-0.049866000000000014,0.714432,1.149551
658,6.58,-0.277038,-1.941093,0.013300000000000006,0.08969099999999999,0.760239,1.148483
659,6.59,-0.591445,-1.8813349999999998,-0.369354,0.19728099999999998,0.8422700000000001,1.175125
660,6.6,-0.49622700000000003,-1.861018,-0.685999,0.29422,0.954117,1.2177280000000001
661,6.61,-0.575807,-1.74548,-0.938722,0.39115900000000003,1.096863,1.250748
662,6.62,-0.65081,-1.683802,-1.2333290000000001,0.473175,1.234283,1.281647
663,6.63,-0.991878,-1.3145040000000001,-1.4789379999999999,0.52858,1.333359,1.308273
664,6.64,-1.168105,-0.947649,-1.748443,0.571182,1.382355,1.35408
665,6.65,-1.105291,-0.647213,-1.9845650000000001,0.571182,1.407913,1.407349
666,6.66,-0.8708440000000001,-0.512455,-2.194045,0.536026,1.407913,1.44783
667,6.67,-0.782393,-0.322907,-2.311008,0.458267,1.3908690000000001,1.475525
668,6.68,-0.754919,-0.309934,-2.297784,0.35281399999999996,1.340805,1.506424
669,6.69,-0.7472449999999999,-0.306106,-2.1776720000000003,0.21646100000000001,1.277954,1.541565
670,6.7,-0.776137,-0.381767,-1.827878,0.070511,1.2268219999999999,1.586319
671,6.71,-0.808856,-0.436892,-1.418497,-0.049866,1.155457,1.632126
672,6.72,-0.841773,-0.508382,-0.917006,-0.142548,1.058517,1.664078
673,6.73,-0.7749020000000001,-0.5304369999999999,-0.497855,-0.217102,0.9349370000000001,1.686447
674,6.74,-0.481793,-0.587645,-0.046293,-0.24693299999999999,0.806046,1.69603
675,6.75,-0.223648,-0.575216,0.30688000000000004,-0.23735,0.685669,1.67366
676,6.76,-0.07278899999999999,-0.49391899999999994,0.5558029999999999,-0.183014,0.575943,1.637451
677,6.77,-0.059614,-0.319682,0.6061350000000001,-0.09993000000000002,0.506714,1.594833
678,6.78,-0.103094,-0.17762999999999998,0.515018,-0.038147,0.49604799999999993,1.55542
679,6.79,-0.048745,-0.003367999999999996,0.451588,-0.016846,0.545059,1.5224
680,6.8,-0.082738,0.13531400000000002,0.5109670000000001,-0.033889999999999997,0.624954,1.488312
681,6.81,-0.204398,0.26703499999999997,0.650506,-0.086075,0.6952510000000001,1.459549
682,6.82,-0.193451,0.317801,0.9857049999999999,-0.14041099999999998,0.740005,1.444626
683,6.83,-0.053808,0.325681,1.238832,-0.16703800000000002,0.736801,1.4105379999999998
684,6.84,0.169679,0.518417,1.4661540000000002,-0.156387,0.689926,1.3636780000000002
685,6.85,0.328364,0.9636319999999999,1.552613,-0.12443499999999999,0.598312,1.31041
686,6.86,0.319635,1.1133030000000002,1.379632,-0.092468,0.534409,1.258209
687,6.87,0.41532600000000003,0.9356639999999999,1.116148,-0.103119,0.5429229999999999,1.224121
688,6.88,0.6603899999999999,0.9756229999999999,0.9157280000000001,-0.17236300000000002,0.632401,1.2017520000000002
689,6.89,1.103342,0.7157859999999999,0.996391,-0.312988,0.775146,1.1729889999999998
690,6.9,1.398428,0.26006,1.320959,-0.51326,0.8997959999999999,1.123993
691,6.91,1.532859,-0.485309,1.9510560000000001,-0.747604,0.943466,1.044098
692,6.92,1.763279,-0.968058,2.940301,-0.9457549999999999,0.8475950000000001,0.950348
693,6.93,1.979582,-1.2792459999999999,3.8256069999999998,-1.033096,0.6185609999999999,0.835297
694,6.94,2.0384729999999998,-1.1811459999999998,4.473069000000001,-0.9649200000000001,0.375671,0.745819
695,6.95,1.907391,-0.965484,4.930857,-0.727371,0.20417800000000005,0.696823
696,6.96,1.6987759999999998,-0.608228,4.789185,-0.36091599999999996,0.134933,0.6723180000000001
697,6.97,1.5441850000000001,-0.126957,4.085417,0.03855900000000004,0.197784,0.692551
698,6.98,1.457665,0.198121,3.027864,0.39009099999999997,0.34158299999999997,0.737305
699,6.99,1.366465,0.177351,1.7669529999999998,0.595688,0.553574,0.780975
700,7.0,1.350394,0.028919999999999998,0.644602,0.581833,0.762375,0.819321
701,7.01,1.2668700000000002,-0.181259,-0.14835499999999996,0.37944,0.885941,0.847015
702,7.02,1.04655,-0.408476,-0.461566,0.037491000000000003,0.9157709999999999,0.877914
703,7.03,0.9471219999999999,-0.744896,-0.264545,-0.310852,0.806046,0.880035
704,7.04,0.872093,-0.9937959999999999,0.052089,-0.5878140000000001,0.606842,0.849152
705,7.05,0.6673180000000001,-1.216696,0.366164,-0.7444149999999999,0.42787200000000003,0.822525
706,7.06,0.48991,-1.346841,0.5898,-0.776367,0.277679,0.802277
707,7.07,0.5090439999999999,-1.412806,0.658274,-0.6911470000000001,0.154099,0.779907
708,7.08,0.656768,-1.496056,0.489993,-0.5281680000000001,0.077408,0.755402
709,7.09,0.9845729999999999,-1.450494,0.150488,-0.328964,0.041183,0.713867
710,7.1,1.233083,-1.305957,-0.544096,-0.031754000000000004,0.046508999999999995,0.6126560000000001
711,7.11,1.254132,-1.101551,-1.321858,0.21325700000000003,0.08699,0.481628
712,7.12,1.2056440000000002,-0.978089,-1.789448,0.333633,0.136002,0.390015
713,7.13,1.0206600000000001,-0.829478,-2.170398,0.433762,0.189255,0.309067
714,7.14,0.865058,-0.789766,-2.48697,0.52005,0.24784899999999999,0.236618
715,7.15,0.629455,-0.753304,-2.7644349999999998,0.5946199999999999,0.30856300000000003,0.179092
716,7.16,0.438775,-0.7649600000000001,-2.927483,0.645752,0.3629,0.138626
717,7.17,0.24792199999999998,-0.720437,-2.979546,0.673447,0.383133,0.11412
718,7.18,-0.0010620000000000074,-0.717917,-2.889981,0.681976,0.38739,0.100266
719,7.19,-0.27706,-0.678488,-2.8567099999999996,0.690491,0.37248200000000004,0.105591
720,7.2,-0.468447,-0.68812,-2.7754369999999997,0.678772,0.37355,0.13009600000000002
721,7.21,-0.570852,-0.595495,-2.556966,0.6489560000000001,0.377808,0.179092
722,7.22,-0.45657,-0.521838,-2.25382,0.615921,0.36396799999999996,0.233429
723,7.23,-0.281615,-0.42790500000000004,-2.015956,0.577576,0.350113,0.27816799999999997
724,7.24,-0.11044200000000001,-0.344479,-1.843421,0.525375,0.311768,0.316513
725,7.25,0.127911,-0.19823,-1.5921969999999999,0.44654799999999994,0.277679,0.341019
726,7.26,0.45128100000000004,0.18551700000000002,-1.2770000000000001,0.35281399999999996,0.244644,0.35273699999999997
727,7.27,0.7969890000000001,0.524777,-0.799027,0.257996,0.195648,0.349548
728,7.28,1.038216,0.769642,-0.290526,0.181305,0.163696,0.341019
729,7.29,1.169225,0.868717,0.279271,0.1259,0.16581700000000002,0.328232
730,7.3,1.279613,0.9563149999999999,0.8277469999999999,0.10141,0.174347,0.320786
731,7.31,1.3461610000000002,1.052499,1.258728,0.090759,0.192459,0.320786
732,7.32,1.412934,1.336386,1.540234,0.090759,0.18074,0.32290599999999997
733,7.33,1.5494379999999999,1.557301,1.593387,0.099274,0.155167,0.33676100000000003
734,7.34,1.61966,1.768994,1.410981,0.080093,0.11788900000000001,0.32611100000000004
735,7.35,1.572549,1.9949860000000001,1.122573,0.012984999999999995,0.081665,0.30586199999999997
736,7.36,1.540555,2.2594849999999997,0.768366,-0.11590599999999998,0.052902,0.268585
737,7.37,1.460085,2.342537,0.606915,-0.32043499999999997,0.082733,0.218521
738,7.38,1.304075,2.349771,0.777606,-0.5750430000000001,0.141327,0.13649
739,7.39,0.9256690000000001,2.166875,1.388456,-0.82431,0.19458,0.038482999999999996
740,7.4,0.599585,1.521552,2.506708,-1.008606,0.231873,-0.06485000000000002
741,7.41,0.524077,0.781273,3.892983,-1.086365,0.22973600000000002,-0.174576
742,7.42,0.414117,0.14394599999999996,5.364726,-0.995819,0.18074,-0.277893
743,7.43,0.448272,-0.232258,6.288851999999999,-0.694351,0.085922,-0.364182
744,7.44,0.605174,-0.585304,6.548496,-0.23521400000000006,-0.024857000000000004,-0.42063900000000004
745,7.45,0.554367,-0.6934319999999999,5.934699,0.30593899999999996,-0.081314,-0.461121
746,7.46,0.46549700000000005,-0.637969,4.427168,0.782104,-0.063217,-0.466446
747,7.47,0.333201,-0.5110779999999999,2.6500939999999997,1.077194,0.013489,-0.432358
748,7.48,0.196139,-0.382986,1.0155299999999998,1.143234,0.125336,-0.37696799999999997
749,7.49,0.125338,-0.286044,-0.27616799999999997,1.022858,0.210556,-0.319443
750,7.5,0.123581,-0.415465,-1.155378,0.750153,0.23294099999999998,-0.26298499999999997
751,7.51,-0.177049,-0.443833,-1.511462,0.395416,0.207367,-0.20971700000000001
752,7.52,-0.47872700000000007,-0.64882,-1.309033,0.07157899999999999,0.12000999999999999,-0.182022
753,7.53,-0.661799,-0.859715,-0.9504459999999999,-0.19261199999999998,0.006027000000000005,-0.140488
754,7.54,-0.805396,-1.189965,-0.5856439999999999,-0.35133400000000004,-0.069595,-0.096802
755,7.55,-0.917258,-1.356191,-0.312643,-0.393936,-0.096237,-0.054199000000000004
756,7.56,-1.039406,-1.450442,-0.28663299999999997,-0.35026599999999997,-0.081314,-0.010513000000000002
757,7.57,-1.031228,-1.490739,-0.589158,-0.27462800000000004,-0.03978,0.028899999999999995
758,7.58,-0.9363379999999999,-1.491873,-1.009549,-0.19368,0.023071,0.048065
759,7.59,-0.8177439999999999,-1.455126,-1.444197,-0.12443499999999999,0.080597,0.049132999999999996
760,7.6,-0.792887,-1.438209,-1.833286,-0.075424,0.12107799999999999,0.026764000000000003
761,7.61,-0.8619620000000001,-1.432657,-2.11864,-0.040268,0.139191,-0.014786000000000002
762,7.62,-0.907322,-1.321947,-2.2688080000000004,-0.007248000000000002,0.139191,-0.050995
763,7.63,-1.086789,-1.081397,-2.3062139999999998,0.037491000000000003,0.136002,-0.08934
764,7.64,-1.11012,-0.786251,-2.282191,0.09820599999999999,0.12000999999999999,-0.10745199999999999
765,7.65,-0.809148,-0.608548,-2.178962,0.15361,0.141327,-0.096802
766,7.66,-0.493084,-0.43096999999999996,-2.049138,0.211121,0.21375999999999998,-0.082962
767,7.67,-0.566437,-0.41471899999999995,-1.896238,0.26759299999999997,0.33520500000000003,-0.050995
768,7.68,-0.815763,-0.37061,-1.7592020000000002,0.333633,0.47048999999999996,0.021439000000000003
769,7.69,-0.929126,-0.333255,-1.6404919999999998,0.398621,0.590866,0.126907
770,7.7,-0.9268379999999999,-0.316157,-1.522879,0.45401,0.6771550000000001,0.24408000000000002
771,7.71,-0.8832409999999999,-0.238691,-1.393034,0.49768100000000004,0.7080380000000001,0.353806
772,7.72,-0.7761100000000001,-0.140296,-1.215338,0.536026,0.690994,0.448608
773,7.73,-0.8393290000000001,-0.189057,-1.220353,0.57225,0.645187,0.517853
774,7.74,-0.964041,-0.200808,-1.2678049999999998,0.5786439999999999,0.596191,0.5796359999999999
775,7.75,-0.9867549999999999,-0.19700399999999998,-1.218021,0.546692,0.551453,0.638229
776,7.76,-1.019771,-0.203401,-1.113039,0.512604,0.502441,0.686157
777,7.77,-1.064777,-0.21108200000000002,-1.0138209999999999,0.48489399999999994,0.453445,0.726639
778,7.78,-1.116878,-0.109215,-0.864721,0.46998599999999996,0.405502,0.757538
779,7.79,-1.168099,0.08146299999999998,-0.809588,0.455078,0.368225,0.7841640000000001
780,7.8,-1.244494,0.171657,-0.8603290000000001,0.419922,0.352249,0.8129270000000001
781,7.81,-1.247044,0.303086,-0.849369,0.357071,0.370346,0.842758
782,7.82,-1.140452,0.498742,-0.8009350000000001,0.257996,0.42787200000000003,0.8651280000000001
783,7.83,-1.058664,0.568678,-0.6207,0.124847,0.484329,0.880035
784,7.84,-0.9421350000000001,0.764567,-0.302315,-0.01152,0.512039,0.885376
785,7.85,-1.019931,0.9250280000000001,0.113452,-0.14573699999999998,0.517365,0.877914
786,7.86,-1.1123530000000001,0.991766,0.697206,-0.25758400000000004,0.510971,0.868332
787,7.87,-1.2373040000000002,1.224504,1.2944879999999999,-0.32576,0.466232,0.8459469999999999
788,7.88,-1.469112,1.398259,1.7870849999999998,-0.333221,0.42361499999999996,0.8289030000000001
789,7.89,-1.659354,1.256206,2.0363029999999998,-0.299133,0.430008,0.8246459999999999
790,7.9,-1.61457,1.12604,2.1228580000000004,-0.269302,0.489655,0.831039
791,7.91,-1.475379,0.9655549999999999,2.109292,-0.276764,0.5834050000000001,0.837433
792,7.92,-1.151607,0.622057,2.210643,-0.324707,0.703781,0.8459469999999999
793,7.93,-0.832317,0.309312,2.502152,-0.395004,0.818832,0.838501
794,7.94,-0.68235,-0.21000100000000002,2.9676560000000003,-0.48555,0.8731540000000001,0.825714
795,7.95,-0.560933,-0.5243760000000001,3.58574,-0.548401,0.8379969999999999,0.801208
796,7.96,-0.621855,-0.6995239999999999,4.182525,-0.500473,0.72934,0.8001560000000001
797,7.97,-0.843443,-0.808233,4.443217,-0.35347,0.648392,0.842758
798,7.98,-1.062001,-0.7338939999999999,4.425887,-0.107391,0.645187,0.924789
799,7.99,-1.165483,-0.680331,3.9873819999999998,0.183426,0.760239,1.049423
800,8.0,-1.1072620000000002,-0.511857,3.137114,0.42631499999999994,0.998856,1.186844
801,8.01,-0.9638909999999999,-0.41343100000000005,2.164568,0.57225,1.258789,1.302948
802,8.02,-0.7921229999999999,-0.38648899999999997,1.197708,0.5967560000000001,1.471832,1.390305
803,8.03,-0.603815,-0.5112,0.32966599999999996,0.5030060000000001,1.602859,1.44783
804,8.04,-0.442529,-0.6225149999999999,-0.27753,0.309128,1.627365,1.464874
805,8.05,-0.22748200000000002,-0.618136,-0.604654,0.047073,1.586884,1.460617
806,8.06,-0.044682,-0.625738,-0.7432979999999999,-0.221375,1.5037989999999999,1.44783
807,8.07,0.081695,-0.7827689999999999,-0.818345,-0.45253000000000004,1.389816,1.4265290000000002
808,8.08,0.15804400000000002,-1.04524,-0.803045,-0.66452,1.283279,1.417999
809,8.09,0.183788,-1.422541,-0.660142,-0.8285680000000001,1.165039,1.439301
810,8.1,0.26519299999999996,-1.823855,-0.490883,-0.9340360000000001,1.031876,1.476593
811,8.11,0.478538,-2.027775,-0.314656,-0.9766389999999999,0.897659,1.519196
812,8.12,0.6441819999999999,-2.12007,-0.080728,-0.9553379999999999,0.758102,1.543701
813,8.13,0.953166,-2.099839,0.022851,-0.8754430000000001,0.634537,1.544769
814,8.14,1.277503,-2.029727,0.096673,-0.7284390000000001,0.504578,1.506424
815,8.15,1.437686,-1.743194,0.06487899999999999,-0.542007,0.384201,1.4265290000000002
816,8.16,1.385208,-1.571869,-0.058827,-0.34494,0.309631,1.331711
817,8.17,1.2748899999999999,-1.322629,-0.32199,-0.160645,0.26808200000000004,1.245422
818,8.18,1.284442,-1.1443219999999998,-0.500517,0.020446999999999996,0.262756,1.1708530000000001
819,8.19,1.341005,-1.043979,-0.691231,0.190887,0.309631,1.089905
820,8.2,1.269799,-1.046974,-0.8403959999999999,0.351746,0.38526900000000003,1.015335
821,8.21,1.222428,-1.13142,-1.016716,0.5030060000000001,0.469421,0.955673
822,8.22,1.254316,-1.110905,-1.161125,0.647888,0.557846,0.919464
823,8.23,1.1923780000000002,-1.05456,-1.398879,0.768265,0.635605,0.8928219999999999
824,8.24,1.11165,-1.02367,-1.723266,0.855606,0.692062,0.8864290000000001
825,8.25,1.098265,-0.8901899999999999,-1.9630130000000001,0.897156,0.7155,0.884308
826,8.26,0.916273,-0.696256,-2.215247,0.887573,0.7155,0.87471
827,8.27,0.678669,-0.365151,-2.3685080000000003,0.822586,0.716568,0.8757780000000001
828,8.28,0.554535,-0.062030999999999996,-2.2934650000000003,0.736298,0.703781,0.891754
829,8.29,0.41221800000000003,0.18245699999999998,-2.112908,0.644684,0.657974,0.909866
830,8.3,0.49131499999999995,0.41384099999999996,-1.922311,0.5562739999999999,0.592987,0.934372
831,8.31,0.5682050000000001,0.483778,-1.7395740000000002,0.462524,0.518417,0.9546049999999999
832,8.32,0.647328,0.571257,-1.4582540000000002,0.364532,0.44705200000000006,0.976974
833,8.33,0.631779,0.718091,-1.078747,0.265457,0.38739,0.9908290000000001
834,8.34,0.5987279999999999,0.89717,-0.532196,0.181305,0.347977,1.012131
835,8.35,0.516319,0.937,0.08711200000000002,0.10992400000000001,0.296844,1.022781
836,8.36,0.530365,0.8889819999999999,0.717052,0.054535,0.274475,1.0323790000000002
837,8.37,0.714681,0.8886280000000001,1.213816,0.009796,0.25317399999999995,1.038773
838,8.38,0.977029,1.083815,1.5636219999999998,-0.023224,0.242523,1.030243
839,8.39,1.1853040000000001,1.540182,1.848955,-0.024291999999999998,0.248917,1.030243
840,8.4,1.470583,1.926023,1.8802459999999999,-0.0051270000000000005,0.30217,0.997223
841,8.41,1.61798,2.1592849999999997,1.561279,0.005539,0.393784,0.940765
842,8.42,1.604242,2.20831,1.2545620000000002,-0.029617,0.515228,0.87471
843,8.43,1.504135,2.130985,0.923249,-0.13295,0.635605,0.795883
844,8.44,1.1231360000000001,1.624526,0.786347,-0.317245,0.727219,0.726639
845,8.45,0.67735,0.791523,0.977402,-0.565445,0.764496,0.679779
846,8.46,0.550291,0.12550899999999998,1.783325,-0.789154,0.645187,0.635025
847,8.47,0.74531,-0.35944499999999996,2.790675,-0.9031370000000001,0.416153,0.603073
848,8.48,0.942427,-0.572804,3.9051519999999997,-0.829636,0.127472,0.558334
849,8.49,1.147691,-0.506139,4.55888,-0.571838,-0.123932,0.511459
850,8.5,1.3841809999999999,-0.3965,4.537209,-0.202194,-0.253891,0.462463
851,8.51,1.686177,-0.299126,3.8927650000000003,0.15679899999999994,-0.23684699999999997,0.40387
852,8.52,1.804936,-0.23565999999999998,2.910377,0.432709,-0.098358,0.34848
853,8.53,1.758134,-0.173713,1.8515110000000001,0.597824,0.094452,0.274979
854,8.54,1.6266690000000001,-0.152251,0.771437,0.635101,0.286194,0.20253
855,8.55,1.367114,-0.261768,-0.15143299999999998,0.5562739999999999,0.44918800000000003,0.122635
856,8.56,0.8849870000000001,-0.30798600000000004,-0.777948,0.40181,0.57489,0.056595000000000006
857,8.57,0.494737,-0.368525,-1.096447,0.22711199999999998,0.6515810000000001,0.008652
858,8.58,0.076321,-0.6034689999999999,-1.2216879999999999,0.059860000000000003,0.671829,-0.032882999999999996
859,8.59,-0.437329,-0.733286,-1.2458770000000001,-0.067978,0.676086,-0.061646000000000006
860,8.6,-0.799558,-0.8332790000000001,-1.284356,-0.158524,0.671829,-0.074432
861,8.61,-1.178885,-0.938758,-1.310071,-0.22563200000000003,0.676086,-0.061646000000000006
862,8.62,-1.225506,-0.9300780000000001,-1.335943,-0.21923800000000002,0.639862,-0.058455999999999994
863,8.63,-1.1944860000000002,-0.954149,-1.393905,-0.170242,0.5791470000000001,-0.050995
864,8.64,-1.067153,-0.9991909999999999,-1.580925,-0.10206599999999999,0.509903,-0.072296
865,8.65,-0.9947459999999999,-0.9370620000000001,-1.7513279999999998,-0.021103,0.44172700000000004,-0.088287
866,8.66,-0.796672,-1.03125,-1.982045,0.051330999999999995,0.383133,-0.096802
867,8.67,-0.471189,-1.054457,-2.260199,0.129105,0.32135,-0.122375
868,8.68,-0.20854700000000004,-1.105758,-2.405034,0.196213,0.277679,-0.15007
869,8.69,0.076714,-1.199284,-2.497531,0.24841300000000002,0.2798,-0.187347
870,8.7,0.24585500000000002,-1.3163989999999999,-2.391875,0.298477,0.296844,-0.23208600000000001
871,8.71,0.272096,-1.271574,-2.297768,0.331497,0.309631,-0.27684000000000003
872,8.72,0.312225,-1.287628,-2.155678,0.36132800000000004,0.31709299999999996,-0.298141
873,8.73,0.614188,-1.330797,-1.919758,0.406067,0.333069,-0.304535
874,8.74,0.832902,-1.392457,-1.749955,0.439087,0.3629,-0.316254
875,8.75,0.819092,-1.398477,-1.4683680000000001,0.45613100000000006,0.40657,-0.315186
876,8.76,0.926409,-1.377319,-1.232064,0.47212200000000004,0.43640100000000004,-0.29921
877,8.77,1.005168,-1.339588,-0.916227,0.485962,0.466232,-0.274704
878,8.78,1.065513,-1.257075,-0.755364,0.494492,0.489655,-0.24913000000000002
879,8.79,1.126447,-1.1125969999999998,-0.528029,0.494492,0.50032,-0.220383
880,8.8,1.215198,-0.9253610000000001,-0.282779,0.48489399999999994,0.508835,-0.192673
881,8.81,1.293651,-0.516833,0.054353,0.46998599999999996,0.492859,-0.176697
882,8.82,1.232349,-0.190679,0.302101,0.46998599999999996,0.430008,-0.16178900000000002
883,8.83,1.157368,0.196918,0.375381,0.466797,0.35543800000000003,-0.143677
884,8.84,1.032223,0.695387,0.385123,0.443359,0.286194,-0.118103
885,8.85,0.9779459999999999,1.093342,0.353749,0.395416,0.258499,-0.07656900000000001
886,8.86,0.9155110000000001,1.5634059999999999,0.269279,0.325104,0.276611,-0.025436
887,8.87,0.902675,1.8662869999999998,0.28503,0.23988299999999999,0.34692399999999995,0.036345999999999996
888,8.88,0.687133,2.091832,0.328855,0.13868699999999998,0.451309,0.077896
889,8.89,0.318449,2.2627990000000002,0.498277,0.022583000000000002,0.557846,0.11091600000000001
890,8.9,-0.09124700000000001,2.353209,0.723989,-0.10206599999999999,0.612167,0.15033
891,8.91,-0.45128999999999997,2.708959,1.110021,-0.220306,0.567429,0.19081099999999998
892,8.92,-0.6847409999999999,3.08108,1.564219,-0.295944,0.422546,0.219574
893,8.93,-0.902866,3.014254,1.9744979999999999,-0.34494,0.248917,0.23129299999999997
894,8.94,-0.9366059999999999,2.793768,2.3770860000000003,-0.36730999999999997,0.088058,0.25260900000000003
895,8.95,-0.9102620000000001,2.2867610000000003,2.784802,-0.39074699999999996,-0.09730499999999999,0.246216
896,8.96,-1.0545010000000001,1.7559049999999998,2.880442,-0.395004,-0.182526,0.25154099999999996
897,8.97,-1.189367,1.224151,2.913924,-0.370514,-0.246429,0.27284200000000003
898,8.98,-1.216145,0.583867,2.78266,-0.326828,-0.319946,0.316513
899,8.99,-1.3440159999999999,0.6280720000000001,2.4720720000000003,-0.20539899999999997,-0.45842,0.393219
900,9.0,-1.552626,0.9110719999999999,2.047677,-0.06691,-0.480789,0.474182
901,9.01,-1.534096,1.07831,1.592078,0.079041,-0.41900600000000005,0.565796
902,9.02,-1.329317,1.158028,1.011017,0.203674,-0.258148,0.633972
903,9.03,-1.05539,1.24613,0.50033,0.310196,-0.016341999999999995,0.697876
904,9.04,-0.8789290000000001,1.30453,-0.14700000000000008,0.40181,0.24678000000000003,0.725586
905,9.05,-0.9010389999999999,1.256,-0.911064,0.440155,0.528015,0.72345
906,9.06,-1.022872,1.0806280000000001,-1.630277,0.398621,0.773026,0.702148
907,9.07,-1.1550049999999998,0.878208,-2.325875,0.25906399999999996,0.9509280000000001,0.6605989999999999
908,9.08,-1.352144,0.441634,-2.657433,0.02896100000000001,1.042542,0.599884
909,9.09,-1.5002149999999999,0.046597,-2.760105,-0.249069,1.0222930000000001,0.521042
910,9.1,-1.559107,-0.49363599999999996,-2.388741,-0.540955,0.8784790000000001,0.43688999999999995
911,9.11,-1.381758,-1.023596,-1.849443,-0.7912899999999999,0.653717,0.349548
912,9.12,-1.247729,-1.507666,-1.1168049999999998,-0.944687,0.38526900000000003,0.27177399999999996
913,9.13,-0.987138,-1.829206,-0.5000720000000001,-0.9606629999999999,0.07634000000000005,0.203598
914,9.14,-0.801823,-1.903139,-0.10665699999999999,-0.855209,-0.178253,0.15779100000000001
915,9.15,-0.482846,-2.037737,0.052555999999999985,-0.662384,-0.36254899999999995,0.122635
916,9.16,0.036298000000000004,-1.9626740000000003,-0.121462,-0.403534,-0.479721,0.0811
917,9.17,0.3449180000000001,-1.8849619999999998,-0.427647,-0.138275,-0.473343,0.035294
918,9.18,0.617866,-1.808959,-0.8439049999999999,0.11738599999999999,-0.378525,-0.0030670000000000003
919,9.19,0.756887,-1.70618,-1.204903,0.365585,-0.227264,-0.037155
920,9.2,0.881374,-1.608659,-1.6295309999999998,0.582901,-0.06214900000000001,-0.050995
921,9.21,0.980665,-1.520414,-2.000536,0.758667,0.094452,-0.054199000000000004
922,9.22,1.096056,-1.3612739999999999,-2.394957,0.8822479999999999,0.22866799999999998,-0.035019
923,9.23,1.218076,-1.1823299999999999,-2.676358,0.9525450000000001,0.32988,-0.0009310000000000012
924,9.24,1.197948,-0.961131,-2.879628,0.9940950000000001,0.379944,0.038482999999999996
925,9.25,1.27702,-0.8709389999999999,-3.142943,0.991974,0.399109,0.07257100000000001
926,9.26,1.3283280000000002,-0.588478,-3.386479,0.9312440000000001,0.368225,0.11091600000000001
927,9.27,1.506977,-0.26271300000000003,-3.48831,0.8097989999999999,0.326675,0.14714100000000002
928,9.28,1.6124290000000001,-0.010650999999999994,-3.533092,0.645752,0.281937,0.163116
929,9.29,1.6440080000000001,0.229764,-3.508846,0.441223,0.22654699999999997,0.166321
930,9.3,1.538342,0.404706,-3.276832,0.214325,0.176468,0.162048
931,9.31,1.4262540000000001,0.51867,-2.85596,-0.012573,0.12000999999999999,0.15779100000000001
932,9.32,1.362525,0.504908,-2.218814,-0.21816999999999998,0.024138999999999997,0.15567
933,9.33,1.322044,0.596967,-1.594877,-0.372635,-0.113281,0.158859
934,9.34,1.242996,0.708012,-0.9203399999999999,-0.46211199999999997,-0.280518,0.15246600000000002
935,9.35,1.275009,0.8403510000000001,-0.30786099999999994,-0.48982200000000004,-0.44351199999999996,0.139679
936,9.36,1.411842,0.934649,0.20916300000000002,-0.46106,-0.580933,0.118378
937,9.37,1.661859,1.066875,0.619157,-0.39926100000000003,-0.67894,0.07257100000000001
938,9.38,1.912807,1.3603459999999998,0.950809,-0.30339099999999997,-0.73645,0.00972
939,9.39,2.178513,1.5375,1.2202879999999998,-0.202194,-0.73645,-0.073364
940,9.4,2.2321310000000003,1.709741,1.453173,-0.10739100000000001,-0.690643,-0.176697
941,9.41,2.359138,1.940389,1.605728,-0.043472000000000004,-0.596909,-0.287491
942,9.42,2.49266,2.370907,1.680368,-0.015778,-0.487183,-0.390823
943,9.43,2.672173,2.667606,1.712143,-0.002991000000000001,-0.372131,-0.48881499999999994
944,9.44,2.790469,2.803359,1.7090400000000001,-0.009384,-0.233658,-0.5974729999999999
945,9.45,2.825944,2.885662,1.6651099999999999,-0.06691,-0.08345,-0.697617
946,9.46,2.820606,2.799472,1.680402,-0.159592,0.025208,-0.7817689999999999
947,9.47,2.592178,2.5330310000000003,1.8089810000000002,-0.269302,0.057159,-0.8574069999999999
948,9.48,2.221324,1.7512349999999999,1.937271,-0.40033,0.024138999999999997,-0.9191889999999999
949,9.49,1.750044,0.848766,2.032452,-0.552673,-0.080261,-0.9820399999999999
950,9.5,1.332196,-0.026548000000000016,2.432898,-0.705002,-0.282654,-1.028915
951,9.51,0.9230360000000001,-0.558466,3.008312,-0.807266,-0.627808,-1.05661
952,9.52,0.7207020000000001,-0.6451140000000001,3.4606230000000004,-0.808334,-1.061356,-1.0587309999999999
953,9.53,0.97345,-0.472976,3.6652519999999997,-0.667709,-1.4789430000000001,-1.061935
954,9.54,1.409339,-0.258454,3.3618370000000004,-0.450409,-1.759109,-1.1056059999999999
955,9.55,1.843922,0.056788999999999985,2.775387,-0.256531,-1.8592529999999998,-1.1972200000000002
956,9.56,2.115935,0.377736,2.2435490000000002,-0.11271700000000001,-1.786804,-1.2739260000000001
957,9.57,2.2773950000000003,0.48934799999999995,1.82587,-0.021103000000000004,-1.592926,-1.348495
958,9.58,2.321283,0.253044,1.4218979999999999,-0.009384,-1.339401,-1.411346
959,9.59,2.239127,0.014877,1.279707,-0.051987,-1.090118,-1.460342
960,9.6,2.06727,-0.470005,1.226168,-0.130829,-0.929276,-1.490173
961,9.61,1.740745,-0.982677,1.219243,-0.195801,-0.886658,-1.5168
962,9.62,1.457268,-1.4076309999999999,1.097337,-0.24054,-0.9260709999999999,-1.537048
963,9.63,1.1527370000000001,-1.943719,0.8304030000000001,-0.273575,-1.013428,-1.553024
964,9.64,0.85275,-2.23763,0.47264700000000004,-0.31192,-1.121017,-1.578583
965,9.65,0.611388,-2.494339,0.103232,-0.358795,-1.236069,-1.609482
966,9.66,0.293454,-2.681917,-0.136399,-0.40779099999999996,-1.339401,-1.644638
967,9.67,0.059309,-2.91883,-0.425908,-0.450409,-1.442734,-1.690445
968,9.68,-0.09549699999999997,-2.847858,-0.628255,-0.46638500000000005,-1.5396729999999998,-1.7373049999999999
969,9.69,-0.165641,-2.923142,-0.790982,-0.43336499999999994,-1.6099700000000001,-1.7735290000000001
970,9.7,-0.278721,-2.794033,-0.995033,-0.356659,-1.655777,-1.8118740000000002
971,9.71,-0.34980700000000003,-2.6045990000000003,-1.1543459999999999,-0.23628200000000002,-1.6898650000000002,-1.841705
972,9.72,-0.329965,-2.420418,-1.344481,-0.092468,-1.6898650000000002,-1.883255
973,9.73,-0.414997,-2.1850259999999997,-1.411352,0.06944299999999999,-1.655777,-1.909882
974,9.74,-0.425308,-1.8710849999999999,-1.4108610000000001,0.237762,-1.612106,-1.917343
975,9.75,-0.286323,-1.606729,-1.47595,0.371979,-1.5492549999999998,-1.91095
976,9.76,-0.046186000000000005,-1.376044,-1.4234719999999998,0.451874,-1.464035,-1.8726040000000002
977,9.77,0.364304,-1.126193,-1.421869,0.500885,-1.38414,-1.824661
978,9.78,0.80928,-1.0256399999999999,-1.3597620000000001,0.500885,-1.29039,-1.7735290000000001
979,9.79,0.927271,-0.818826,-1.175222,0.45080600000000004,-1.179611,-1.7042849999999998
980,9.8,1.036541,-0.673254,-0.91254,0.376236,-1.063492,-1.6148069999999999
981,9.81,1.0675059999999998,-0.560569,-0.558867,0.295288,-0.9356690000000001,-1.515732
982,9.82,1.077548,-0.504097,-0.121701,0.240952,-0.81102,-1.408142
983,9.83,0.98525,-0.534804,0.388194,0.21751399999999999,-0.691711,-1.299484
984,9.84,0.776263,-0.6813130000000001,0.680086,0.228165,-0.609695,-1.202545
985,9.85,0.690948,-0.920206,0.958247,0.25267,-0.568146,-1.114136
986,9.86,0.5321899999999999,-1.074682,1.143303,0.287827,-0.559616,-1.036362
987,9.87,0.313368,-1.056433,1.207168,0.32617199999999996,-0.608627,-0.967133
988,9.88,-0.018205000000000002,-0.865289,1.263483,0.362396,-0.685318,-0.898956
989,9.89,-0.209959,-0.596831,1.131518,0.39115900000000003,-0.754562,-0.835037
990,9.9,-0.421196,-0.30515,0.9548270000000001,0.40181,-0.793976,-0.784958
991,9.91,-0.632584,-0.057258,0.767057,0.363464,-0.775879,-0.746613
992,9.92,-0.71191,0.185771,0.653935,0.27504,-0.7353970000000001,-0.698685
993,9.93,-0.75516,0.32311,0.6403770000000001,0.158936,-0.708755,-0.668854
994,9.94,-0.805372,0.434515,0.713138,0.02151499999999999,-0.702362,-0.658203
995,9.95,-0.766953,0.67173,0.834407,-0.12123099999999999,-0.73645,-0.673111
996,9.96,-0.787481,1.039315,1.031325,-0.25119,-0.799301,-0.705078
997,9.97,-0.8258209999999999,1.240167,1.1625860000000001,-0.354523,-0.8365940000000001,-0.744492
998,9.98,-0.820767,1.283305,1.207529,-0.450409,-0.827011,-0.800949
999,9.99,-0.877125,1.170353,1.333245,-0.569717,-0.757767,-0.8595280000000001
1000,10.0,-1.049598,0.884815,1.58225,-0.710327,-0.6427149999999999,-0.9096069999999999
1001,10.01,-1.2278280000000001,0.304632,1.9450939999999999,-0.853073,-0.5308689999999999,-0.940491
1002,10.02,-1.464518,-0.521465,2.398458,-0.9841,-0.46267700000000006,-0.9681850000000001
1003,10.03,-1.846334,-1.107163,2.800631,-1.0714569999999999,-0.49890100000000004,-0.9937590000000001
1004,10.04,-2.258367,-1.302957,2.963287,-1.076782,-0.6427149999999999,-0.990555
1005,10.05,-2.488583,-1.227754,3.0096130000000003,-0.979843,-0.8515010000000001,-0.955414
1006,10.06,-2.5190080000000004,-0.941566,2.895991,-0.812592,-1.011292,-0.901077
1007,10.07,-2.478208,-0.558232,2.734779,-0.600601,-1.040054,-0.8414309999999999
1008,10.08,-2.442332,-0.193096,2.4151130000000003,-0.366241,-0.9569700000000001,-0.775375
1009,10.09,-2.385916,0.018721,2.069618,-0.153198,-0.771606,-0.702942
1010,10.1,-2.162292,0.076713,1.7489580000000002,0.005539000000000002,-0.5298,-0.619843
1011,10.11,-1.953756,-0.041687000000000016,1.314454,0.091812,-0.296509,-0.5431520000000001
1012,10.12,-1.7121689999999998,-0.338303,0.944652,0.102478,-0.107956,-0.49201999999999996
1013,10.13,-1.6159299999999999,-0.592939,0.59228,0.058792,0.004973999999999999,-0.460052
1014,10.14,-1.504192,-0.837319,0.31669,-0.023224,0.073151,-0.441956
1015,10.15,-1.3977620000000002,-1.068594,0.11478499999999998,-0.103119,0.100845,-0.431305
1016,10.16,-1.422857,-1.195749,-0.09334400000000001,-0.176636,0.09552000000000001,-0.438751
1017,10.17,-1.423073,-1.28454,-0.20265899999999998,-0.22563200000000003,0.053970000000000004,-0.44407700000000006
1018,10.18,-1.436252,-1.366706,-0.363481,-0.252258,-0.021667,-0.448349
1019,10.19,-1.344806,-1.491606,-0.504474,-0.24374400000000002,-0.12925699999999998,-0.449402
1020,10.2,-1.249275,-1.466667,-0.578475,-0.19261199999999998,-0.275192,-0.449402
1021,10.21,-1.036417,-1.389751,-0.7698020000000001,-0.09353600000000001,-0.42753599999999997,-0.451538
1022,10.22,-0.8975420000000001,-1.327518,-1.025404,0.03642299999999999,-0.573471,-0.462189
1023,10.23,-0.6815979999999999,-1.165944,-1.380754,0.18663,-0.706635,-0.479233
1024,10.24,-0.471895,-1.039803,-1.851435,0.341095,-0.798248,-0.493088
1025,10.25,-0.481813,-0.8216190000000001,-2.348046,0.473175,-0.81955,-0.49948100000000006
1026,10.26,-0.345529,-0.807862,-2.841479,0.5658569999999999,-0.784393,-0.504807
1027,10.27,-0.36228299999999997,-0.670053,-3.183125,0.6031489999999999,-0.687454,-0.5101319999999999
1028,10.28,-0.383722,-0.577404,-3.3695190000000004,0.5935520000000001,-0.557495,-0.49201999999999996
1029,10.29,-0.501988,-0.45994300000000005,-3.358426,0.538162,-0.426468,-0.456863
1030,10.3,-0.48516400000000004,-0.317379,-3.2985839999999995,0.464661,-0.322067,-0.407867
1031,10.31,-0.538586,-0.199976,-3.1329279999999997,0.39009099999999997,-0.253891,-0.349274
1032,10.32,-0.671287,-0.12901700000000002,-3.046903,0.32405100000000003,-0.211288,-0.281097
1033,10.33,-0.720631,-0.07857,-2.896016,0.25906399999999996,-0.18571500000000002,-0.210785
1034,10.34,-0.786974,-0.018456,-2.7369380000000003,0.188751,-0.155884,-0.140488
1035,10.35,-0.773307,0.07455700000000001,-2.505314,0.09287999999999999,-0.126068,-0.07869
1036,10.36,-0.8396459999999999,0.019543000000000005,-2.118457,-0.01152,-0.09196499999999999,-0.022232
1037,10.37,-0.940117,0.019264,-1.584168,-0.11911,-0.060013,0.024643
1038,10.38,-0.987084,0.010738,-0.8982370000000001,-0.197937,-0.03978,0.068314
1039,10.39,-0.997548,0.06428400000000001,-0.259866,-0.23521399999999998,-0.029129000000000002,0.10665899999999999
1040,10.4,-1.0920450000000002,0.14494200000000002,0.2528440000000001,-0.21923800000000002,-0.036575,0.13542200000000001
1041,10.41,-1.064024,0.364124,0.7396560000000001,-0.178757,-0.042969,0.15779100000000001
1042,10.42,-0.986649,0.409385,1.062534,-0.116974,-0.029129000000000002,0.171646
1043,10.43,-0.808656,0.592692,1.2986870000000001,-0.057312,0.006026999999999999,0.166321
1044,10.44,-0.722896,0.724953,1.539405,-0.017899,0.042252,0.145004
1045,10.45,-0.598399,0.762137,1.7354080000000003,0.009796,0.073151,0.11412
1046,10.46,-0.434208,0.76878,1.889199,0.04068,0.094452,0.068314
1047,10.47,-0.435532,1.113265,1.9165709999999998,0.07157899999999999,0.102966,0.031020999999999996
1048,10.48,-0.482641,1.286551,1.78252,0.11418199999999999,0.11256400000000001,0.015045
1049,10.49,-0.269104,1.3682239999999999,1.465198,0.155731,0.12854000000000002,0.015045
1050,10.5,0.1787,1.60457,1.146765,0.14827,0.177536,0.012924000000000001
1051,10.51,0.597512,1.7759080000000003,0.82478,0.074768,0.25531,-0.0009309999999999996
1052,10.52,0.9403299999999999,1.7886939999999998,0.536406,-0.07223500000000001,0.34053,-0.033951
1053,10.53,1.075042,1.52831,0.49917399999999995,-0.319382,0.422546,-0.098938
1054,10.54,1.0227540000000002,0.9708180000000001,0.817609,-0.625107,0.486465,-0.166046
1055,10.55,1.0041639999999998,0.316307,1.577484,-0.9127200000000001,0.43640100000000004,-0.255524
1056,10.56,1.023832,-0.154352,2.644831,-1.098083,0.28833000000000003,-0.308792
1057,10.57,0.9787549999999999,-0.400971,3.6625129999999997,-1.093826,0.058227999999999995,-0.350342
1058,10.58,0.9001020000000001,-0.306821,4.1737,-0.883957,-0.223007,-0.387619
1059,10.59,0.939472,-0.125147,4.0839360000000005,-0.531357,-0.474396,-0.403595
1060,10.6,1.04671,0.120322,3.454134,-0.142548,-0.577728,-0.39826999999999996
1061,10.61,1.224216,0.46256400000000003,2.523331,0.16531400000000002,-0.554291,-0.37696799999999997
1062,10.62,1.3933959999999999,0.577681,1.5908309999999999,0.36132800000000004,-0.433929,-0.343948
1063,10.63,1.467773,0.663856,0.69305,0.419922,-0.297562,-0.317322
1064,10.64,1.64342,0.478695,-0.013514000000000026,0.320847,-0.156952,-0.30027800000000004
1065,10.65,1.661468,0.24428200000000003,-0.488403,0.097137,-0.014205999999999996,-0.287491
1066,10.66,1.458649,-0.01961399999999996,-0.569643,-0.20005799999999999,0.092316,-0.29068
1067,10.67,1.1402379999999999,-0.524463,-0.19070100000000004,-0.495148,0.125336,-0.306656
1068,10.68,0.940565,-0.8992290000000001,0.268266,-0.71991,0.06675700000000001,-0.336487
1069,10.69,0.635734,-1.356215,0.6658890000000001,-0.841354,-0.044037,-0.371643
1070,10.7,0.471369,-1.70563,0.791196,-0.862656,-0.146301,-0.399338
1071,10.71,0.273416,-1.8627630000000002,0.890175,-0.8157810000000001,-0.21340900000000002,-0.41958599999999996
1072,10.72,0.135075,-1.921835,0.86879,-0.690079,-0.256027,-0.43342600000000003
1073,10.73,-0.02022,-1.860982,0.611156,-0.48982200000000004,-0.261353,-0.44514499999999996
1074,10.74,-0.06437199999999997,-1.8111259999999998,0.19908,-0.244812,-0.23259000000000002,-0.46751400000000004
1075,10.75,-0.21590900000000002,-1.603502,-0.322865,0.01724199999999999,-0.156952,-0.48030100000000003
1076,10.76,-0.215104,-1.412048,-0.9712930000000001,0.268646,-0.07386799999999999,-0.503738
1077,10.77,-0.254146,-1.183471,-1.686052,0.481705,0.003906000000000007,-0.527176
1078,10.78,-0.349607,-1.070575,-2.317402,0.652145,0.11788900000000001,-0.5410159999999999
1079,10.79,-0.31406,-0.905092,-2.782352,0.781036,0.21589699999999998,-0.581497
1080,10.8,-0.403472,-0.675059,-3.0950159999999998,0.869461,0.301117,-0.603867
1081,10.81,-0.40407600000000005,-0.499395,-3.2693209999999997,0.9152680000000001,0.384201,-0.601746
1082,10.82,-0.38466999999999996,-0.349213,-3.3475660000000005,0.9472200000000001,0.418289,-0.5878909999999999
1083,10.83,-0.335454,-0.183505,-3.3924,0.9600069999999999,0.422546,-0.565521
1084,10.84,-0.24462399999999998,-0.104626,-3.392132,0.954681,0.416153,-0.5218510000000001
1085,10.85,-0.226727,-0.033414,-3.423259,0.9312440000000001,0.418289,-0.47709700000000005
1086,10.86,-0.20602800000000002,-0.031785,-3.347862,0.8705290000000001,0.43426499999999996,-0.42703199999999997
1087,10.87,-0.244775,0.20750900000000003,-3.1498310000000003,0.783173,0.444916,-0.35992399999999997
1088,10.88,-0.269688,0.17743599999999998,-2.874422,0.683044,0.45237700000000003,-0.282166
1089,10.89,-0.259167,0.173788,-2.550777,0.58078,0.45237700000000003,-0.19906600000000002
1090,10.9,-0.21483200000000002,0.263226,-2.102944,0.48277299999999995,0.424683,-0.131958
1091,10.91,-0.271638,0.240356,-1.6732150000000001,0.395416,0.37248200000000004,-0.082962
1092,10.92,-0.29651700000000003,0.16764400000000002,-1.340958,0.315521,0.294724,-0.048874
1093,10.93,-0.275652,0.125962,-0.988742,0.237762,0.187134,-0.037155
1094,10.94,-0.33989400000000003,0.178998,-0.641125,0.17491099999999998,0.07420299999999999,-0.037155
1095,10.95,-0.48102399999999995,0.187815,-0.39379000000000003,0.11738599999999999,-0.025925,-0.035019
1096,10.96,-0.7114149999999999,0.413426,-0.177549,0.080093,-0.09196499999999999,-0.011581
1097,10.97,-0.992024,0.531261,-0.126595,0.06518600000000001,-0.103683,0.041687
1098,10.98,-1.190494,0.741618,-0.121511,0.048141,-0.05043,0.10665899999999999
1099,10.99,-1.229198,0.9969979999999999,-0.10640999999999999,0.014053,0.044388,0.172714
1100,11.0,-1.287193,1.3231030000000001,-0.043725,-0.037079,0.15304600000000002,0.228104
1101,11.01,-1.2045370000000002,1.636995,0.097303,-0.09567300000000001,0.248917,0.270706
1102,11.02,-1.009362,1.959069,0.317281,-0.164917,0.301117,0.273911
1103,11.03,-1.073345,2.367696,0.5293,-0.244812,0.323486,0.241943
1104,11.04,-1.299423,2.5674770000000002,0.767365,-0.307663,0.330933,0.20253
1105,11.05,-1.4209,2.557497,0.9982270000000001,-0.357727,0.34265100000000004,0.15246600000000002
1106,11.06,-1.492832,2.470801,1.291299,-0.431229,0.367157,0.09494
1107,11.07,-1.7169400000000001,2.181965,1.719973,-0.522842,0.398056,0.054459
1108,11.08,-1.9246740000000002,1.632174,2.2224369999999998,-0.600601,0.40231300000000003,0.039550999999999996
1109,11.09,-2.045505,0.986495,2.703584,-0.662384,0.37248200000000004,0.044876
1110,11.1,-2.1302060000000003,0.302485,3.245162,-0.713516,0.30749499999999996,0.071503
1111,11.11,-2.2652919999999996,-0.037531000000000016,3.654,-0.718842,0.21482800000000002,0.15567
1112,11.12,-2.4613959999999997,-0.20031500000000002,3.8987879999999997,-0.633621,0.11256400000000001,0.281357
1113,11.13,-2.575486,-0.20799600000000001,3.7760860000000003,-0.450409,0.058227999999999995,0.444351
1114,11.14,-2.570374,-0.071572,3.3759089999999996,-0.221375,0.098709,0.620117
1115,11.15,-2.388292,0.113605,2.753635,-0.009384000000000005,0.24145500000000003,0.771393
1116,11.16,-2.1844759999999996,0.245067,2.167908,0.1259,0.431076,0.8928219999999999
1117,11.17,-1.7982310000000001,0.23458299999999999,1.6745330000000003,0.168518,0.6079100000000001,0.9748540000000001
1118,11.18,-1.50473,0.141264,1.3165,0.103531,0.712296,0.994034
1119,11.19,-1.363391,-0.121092,1.021562,-0.043472,0.713364,0.9844360000000001
1120,11.2,-1.061128,-0.388547,0.9274469999999999,-0.24800100000000003,0.596191,0.96846
1121,11.21,-0.798908,-0.7210439999999999,0.8434309999999999,-0.45892299999999997,0.377808,0.948227
1122,11.22,-0.502926,-1.053995,0.781299,-0.636826,0.13172899999999998,0.92691
1123,11.23,-0.152978,-1.379438,0.71308,-0.745483,-0.088776,0.9120030000000001
1124,11.24,0.301075,-1.624733,0.600799,-0.757202,-0.252823,0.8928219999999999
1125,11.25,0.740372,-1.818828,0.345796,-0.677307,-0.35936,0.8757780000000001
1126,11.26,1.111584,-1.907414,0.051148,-0.5164489999999999,-0.389175,0.856613
1127,11.27,1.475922,-1.969337,-0.362132,-0.30445900000000004,-0.33165,0.8299709999999999
1128,11.28,1.803996,-2.046495,-0.8026989999999999,-0.063705,-0.204895,0.799088
1129,11.29,1.955373,-1.937719,-1.1826219999999998,0.178101,-0.033386,0.76712
1130,11.3,1.917555,-1.9381169999999999,-1.5418399999999999,0.40820300000000004,0.141327,0.738358
1131,11.31,1.863819,-1.917234,-1.910095,0.5946199999999999,0.30217,0.726639
1132,11.32,1.854081,-1.840958,-2.243409,0.724579,0.416153,0.725586
1133,11.33,1.955369,-1.7675020000000001,-2.455819,0.820465,0.475815,0.729843
1134,11.34,1.9466740000000002,-1.660677,-2.7231389999999998,0.871597,0.509903,0.725586
1135,11.35,1.74873,-1.4473,-3.029934,0.8843690000000001,0.5248109999999999,0.72345
1136,11.36,1.8557860000000002,-1.3741889999999999,-3.272512,0.862,0.521622,0.726639
1137,11.37,1.7141819999999999,-1.1268129999999998,-3.359218,0.804474,0.491791,0.7191930000000001
1138,11.38,1.525344,-0.841417,-3.3664129999999997,0.704346,0.430008,0.7042689999999999
1139,11.39,1.360801,-0.561126,-3.281423,0.591431,0.36396799999999996,0.7064060000000001
1140,11.4,1.367923,-0.30437,-3.132809,0.48277299999999995,0.305374,0.70108
1141,11.41,1.467942,-0.11436500000000001,-2.883019,0.37944,0.26915,0.686157
1142,11.42,1.450007,0.10575199999999997,-2.556492,0.282501,0.254242,0.653137
1143,11.43,1.322948,0.332552,-2.0365990000000003,0.203674,0.24571199999999999,0.604141
1144,11.44,1.128937,0.511487,-1.508908,0.132294,0.240387,0.5668489999999999
1145,11.45,1.043584,0.607509,-0.9249940000000001,0.076904,0.235062,0.545547
1146,11.46,1.108655,0.816725,-0.41266800000000003,0.070511,0.21694899999999998,0.5348970000000001
1147,11.47,1.283332,1.009284,-0.08523,0.095016,0.182861,0.514664
1148,11.48,1.312393,1.183125,0.05820800000000001,0.116318,0.17009000000000002,0.476303
1149,11.49,1.372927,1.332609,0.148127,0.09287999999999999,0.183929,0.429443
1150,11.5,1.441537,1.463342,0.364209,0.007659999999999999,0.184998,0.36552399999999996
1151,11.51,1.366456,1.524681,0.788276,-0.111649,0.183929,0.27816799999999997
1152,11.52,1.256865,1.6733069999999999,1.292749,-0.245865,0.150909,0.18548599999999998
1153,11.53,1.068307,2.128761,1.807263,-0.34387199999999996,0.073151,0.090683
1154,11.54,0.988341,2.427352,2.1911169999999998,-0.37796,-0.036575,-0.0009310000000000012
1155,11.55,1.15524,2.640677,2.289313,-0.355591,-0.14949,-0.10745199999999999
1156,11.56,1.250861,2.301269,2.345914,-0.352402,-0.201691,-0.22676100000000002
1157,11.57,1.20858,1.755109,2.5814220000000003,-0.42057799999999995,-0.22938499999999998,-0.33969099999999997
1158,11.58,1.065379,1.014657,3.196452,-0.5281680000000001,-0.307159,-0.428101
1159,11.59,1.256018,0.288137,4.119754,-0.588882,-0.4776,-0.48669399999999996
1160,11.6,1.454536,-0.159355,5.0246129999999996,-0.534561,-0.6938479999999999,-0.537827
1161,11.61,1.637542,-0.254226,5.557137,-0.330032,-0.918625,-0.560196
1162,11.62,1.977857,-0.183884,5.378049,0.008727999999999986,-1.089066,-0.565521
1163,11.63,2.3477040000000002,0.081802,4.554596,0.369858,-1.105042,-0.556992
1164,11.64,2.505825,0.359217,3.474353,0.6542819999999999,-0.9516450000000001,-0.532501
1165,11.65,2.545313,0.627163,2.411748,0.838562,-0.713028,-0.500534
1166,11.66,2.608011,0.8351719999999999,1.2185219999999999,0.883316,-0.495712,-0.498413
1167,11.67,2.4192709999999997,0.768169,0.32311799999999996,0.71286,-0.25709499999999996,-0.49948100000000006
1168,11.68,2.2361419999999996,0.647026,-0.076448,0.347488,-0.04083300000000002,-0.507996
1169,11.69,1.674809,0.258187,0.07167699999999999,-0.07542399999999999,0.07633999999999999,-0.516525
1170,11.7,1.1184530000000001,-0.18965,0.421104,-0.431229,0.029465000000000005,-0.532501
1171,11.71,0.622771,-0.772033,0.606305,-0.68689,-0.09730499999999999,-0.536758
1172,11.72,0.202202,-1.325309,0.646616,-0.854141,-0.21340900000000002,-0.534622
1173,11.73,-0.232822,-1.7546580000000003,0.580811,-0.9457549999999999,-0.299698,-0.514389
1174,11.74,-0.5320739999999999,-1.9910189999999999,0.573004,-0.9553379999999999,-0.384918,-0.48881499999999994
1175,11.75,-0.7847430000000001,-2.245875,0.375893,-0.89035,-0.454163,-0.463257
1176,11.76,-0.8845860000000001,-2.4372279999999997,0.24266500000000002,-0.765717,-0.480789,-0.440887
1177,11.77,-1.155677,-2.412054,0.196351,-0.5633239999999999,-0.46588100000000005,-0.437683
1178,11.78,-1.341267,-2.266943,-0.13742200000000002,-0.29274,-0.46801800000000005,-0.474976
1179,11.79,-1.6393229999999999,-2.134207,-0.47355600000000003,0.01405300000000001,-0.438187,-0.487762
1180,11.8,-1.8186069999999999,-1.871775,-0.909192,0.332565,-0.384918,-0.498413
1181,11.81,-1.662061,-1.72692,-1.479866,0.635101,-0.316742,-0.504807
1182,11.82,-1.3746,-1.383168,-2.211712,0.8896940000000001,-0.21554600000000002,-0.530365
1183,11.83,-1.140225,-1.024856,-2.85233,1.055878,-0.080261,-0.564453
1184,11.84,-0.8212,-0.706741,-3.233654,1.131516,0.075272,-0.59108
1185,11.85,-0.586137,-0.41316099999999994,-3.454746,1.1549530000000001,0.17541500000000002,-0.614517
1186,11.86,-0.332841,-0.221221,-3.4176559999999996,1.156021,0.218018,-0.625183
1187,11.87,-0.12907000000000002,-0.130906,-3.278835,1.1549530000000001,0.22973600000000002,-0.620911
1188,11.88,-0.10561300000000001,-0.133017,-3.064645,1.152817,0.202042,-0.5974729999999999
1189,11.89,-0.207618,-0.116076,-2.702824,1.1389770000000001,0.155167,-0.54422
1190,11.9,-0.17971300000000004,-0.216694,-2.407848,1.112335,0.125336,-0.44514499999999996
1191,11.91,0.15240600000000004,-0.452686,-1.977121,1.080383,0.11361700000000001,-0.345016
1192,11.92,0.212601,-0.5693819999999999,-1.565179,1.0431059999999999,0.154099,-0.272568
1193,11.93,0.042134000000000005,-0.534137,-1.1406319999999999,1.0036770000000002,0.207367,-0.207596
1194,11.94,-0.28103899999999993,-0.5733060000000001,-0.7907310000000001,0.9504239999999999,0.25531,-0.140488
1195,11.95,-0.547725,-0.49873599999999996,-0.505021,0.897156,0.259567,-0.06271399999999999
1196,11.96,-0.780081,-0.35199400000000003,-0.465606,0.841766,0.22654699999999997,0.020370000000000003
1197,11.97,-0.9197709999999999,-0.206682,-0.515195,0.77359,0.195648,0.11412
1198,11.98,-0.896977,-0.016953999999999997,-0.7839470000000001,0.667053,0.172211,0.20253
1199,11.99,-0.7955300000000001,0.195618,-1.064901,0.514725,0.164749,0.281357
1200,12.0,-0.685689,0.444597,-1.339789,0.315521,0.16155999999999998,0.330368
1201,12.01,-0.596499,0.6219859999999999,-1.462874,0.059860000000000003,0.138123,0.351669
1202,12.02,-0.499396,0.980532,-1.370935,-0.21816999999999998,0.06675700000000001,0.346344
1203,12.03,-0.343643,1.488543,-1.122417,-0.491943,-0.044036999999999986,0.312256
1204,12.04,-0.345814,1.837955,-0.756727,-0.729507,-0.13884000000000002,0.245148
1205,12.05,-0.613596,2.149059,-0.221331,-0.9926149999999999,-0.166534,0.124771
1206,12.06,-1.01045,2.0738090000000002,0.19520099999999999,-1.139633,-0.078125,0.055527
1207,12.07,-1.361063,1.7845520000000001,0.802664,-1.275986,0.039062,0.008652
1208,12.08,-1.6032899999999999,1.1541290000000002,1.589069,-1.395294,0.127472,-0.028625
1209,12.09,-1.6882830000000002,0.31450700000000004,2.61064,-1.476257,0.15304600000000002,-0.068039
1210,12.1,-1.872136,-0.2597,3.83549,-1.45282,0.12428299999999999,-0.098938
1211,12.11,-2.065188,-0.422912,4.937171,-1.252548,0.062485,-0.1064
1212,12.12,-2.371443,-0.193133,5.452208000000001,-0.8754430000000001,0.016678,-0.07975800000000001
1213,12.13,-2.6414150000000003,0.15913900000000006,5.4394089999999995,-0.373703,0.05610699999999999,-0.012650000000000002
1214,12.14,-2.570145,0.686895,4.6018550000000005,0.189819,0.14238,0.075775
1215,12.15,-2.577978,1.0525129999999998,3.3433370000000004,0.6659999999999999,0.33200100000000005,0.19081099999999998
1216,12.16,-2.329588,1.101805,2.0836580000000002,0.934448,0.732544,0.328232
1217,12.17,-1.894528,1.138033,1.1332950000000002,0.981308,1.19487,0.43156400000000006
1218,12.18,-1.772513,0.964759,0.44119899999999995,0.8193969999999999,1.562378,0.49762
1219,12.19,-1.918554,0.434697,0.07926799999999999,0.48384099999999997,1.696609,0.543427
1220,12.2,-2.057817,-0.102813,0.05531900000000001,0.051331000000000016,1.543213,0.575378
1221,12.21,-1.955077,-0.665442,0.150454,-0.357727,1.219376,0.590286
1222,12.22,-1.785984,-1.2827549999999999,0.28176799999999996,-0.696472,0.849716,0.592422
1223,12.23,-1.577674,-1.822541,0.527195,-0.923386,0.489655,0.59668
1224,12.24,-1.254834,-2.172663,0.803055,-1.002213,0.18074,0.6126560000000001
1225,12.25,-0.8610540000000001,-2.4449009999999998,0.8825430000000001,-0.9297639999999999,-0.08345,0.627579
1226,12.26,-0.195298,-2.634341,0.64676,-0.724182,-0.279465,0.6297
1227,12.27,0.400863,-2.653786,0.12820399999999998,-0.46318100000000006,-0.39238,0.6169279999999999
1228,12.28,0.973758,-2.555517,-0.57619,-0.190475,-0.426468,0.576447
1229,12.29,1.381826,-2.4769650000000003,-1.431499,0.053466999999999994,-0.401962,0.5253140000000001
1230,12.3,1.838444,-2.318306,-2.120276,0.24415599999999998,-0.33271799999999996,0.452866
1231,12.31,2.150575,-2.1694310000000003,-2.767969,0.382629,-0.24856599999999998,0.374039
1232,12.32,2.4569490000000003,-2.023434,-3.221702,0.464661,-0.165482,0.285629
1233,12.33,2.586286,-1.882255,-3.5422589999999996,0.505142,-0.079193,0.21424899999999997
1234,12.34,2.646521,-1.7437369999999999,-3.769251,0.529648,-0.011017,0.15246600000000002
1235,12.35,2.584109,-1.514282,-3.956021,0.532837,0.05503799999999999,0.11091600000000001
1236,12.36,2.4192080000000002,-1.1522299999999999,-3.9807620000000004,0.498749,0.12000999999999999,0.097076
1237,12.37,2.203792,-0.850417,-3.8919050000000004,0.44868500000000006,0.18074,0.118378
1238,12.38,1.914727,-0.496742,-3.7351730000000005,0.395416,0.22334299999999999,0.166321
1239,12.39,1.5963,-0.238621,-3.5853330000000003,0.332565,0.258499,0.217453
1240,12.4,1.3887209999999999,0.11252200000000002,-3.270565,0.245209,0.30217,0.284561
1241,12.41,1.183577,0.321727,-2.8218,0.15361,0.349045,0.349548
1242,12.42,0.893492,0.526201,-2.369314,0.059860000000000003,0.38101199999999996,0.41239899999999996
1243,12.43,0.6682020000000001,0.5613670000000001,-1.785621,-0.050934,0.40124499999999996,0.480576
1244,12.44,0.494925,0.67333,-1.1694639999999998,-0.155319,0.368225,0.5359649999999999
1245,12.45,0.40852,0.745155,-0.652316,-0.252258,0.286194,0.567917
1246,12.46,0.390775,0.869233,-0.111861,-0.331085,0.17114300000000002,0.573242
1247,12.47,0.364087,0.9836860000000001,0.314806,-0.38116500000000003,0.02946500000000002,0.546616
1248,12.48,0.26413600000000004,1.131289,0.612963,-0.41098,-0.115402,0.49334700000000004
1249,12.49,0.47374700000000003,1.309031,0.878141,-0.43229700000000004,-0.247498,0.419846
1250,12.5,0.738038,1.535474,1.1528129999999999,-0.46850600000000003,-0.339111,0.30586199999999997
1251,12.51,1.0270700000000001,1.8362349999999998,1.4995969999999998,-0.521774,-0.410492,0.153534
1252,12.52,1.230526,2.292154,1.885218,-0.571838,-0.47866800000000004,-0.007323999999999997
1253,12.53,1.409143,2.590023,2.1704939999999997,-0.591019,-0.546844,-0.157532
1254,12.54,1.747796,2.83482,2.31547,-0.583557,-0.611816,-0.306656
1255,12.55,2.206404,2.992654,2.339614,-0.581436,-0.624603,-0.463257
1256,12.56,2.407213,2.792793,2.431732,-0.6219020000000001,-0.54364,-0.600677
1257,12.57,2.23685,2.363449,2.772271,-0.724182,-0.43605,-0.7242430000000001
1258,12.58,1.932316,1.592325,3.448463,-0.847748,-0.345505,-0.8116
1259,12.59,1.745555,0.68258,4.517218,-0.9287110000000001,-0.339111,-0.8638
1260,12.6,1.5103959999999998,-0.031079000000000023,5.570428,-0.886093,-0.43179300000000004,-0.9021450000000001
1261,12.61,1.283094,-0.336308,6.209249,-0.6794279999999999,-0.6416470000000001,-0.908539
1262,12.62,1.282343,-0.27065100000000003,6.283542,-0.307663,-0.918625,-0.9064030000000001
1263,12.63,1.509218,-0.006765999999999993,5.432139,0.13336199999999998,-1.140198,-0.898956
1264,12.64,1.7330450000000002,0.23275500000000002,4.0990720000000005,0.507278,-1.213699,-0.884033
1265,12.65,1.930284,0.512115,2.7728330000000003,0.729904,-1.164688,-0.847809
1266,12.66,2.183087,0.77564,1.5716629999999998,0.807678,-1.0517729999999998,-0.8094640000000001
1267,12.67,2.376703,0.7895979999999999,0.5883470000000001,0.7320399999999999,-0.9058379999999999,-0.7966770000000001
1268,12.68,2.397612,0.701176,-0.06334499999999997,0.49768100000000004,-0.723679,-0.7977449999999999
1269,12.69,2.297714,0.4201,-0.306433,0.171707,-0.568146,-0.8116
1270,12.7,2.029867,-0.02398800000000001,-0.19631600000000002,-0.16278100000000004,-0.511688,-0.840363
1271,12.71,1.681871,-0.535003,0.17748200000000006,-0.441879,-0.575607,-0.875519
1272,12.72,1.353616,-1.222672,0.49468599999999996,-0.630432,-0.704498,-0.9191889999999999
1273,12.73,1.2152530000000001,-1.8394990000000002,0.5493520000000001,-0.732697,-0.860031,-0.96286
1274,12.74,1.031342,-2.278947,0.480832,-0.7721100000000001,-1.01236,-1.011871
1275,12.75,0.8288040000000001,-2.637434,0.317309,-0.767853,-1.119949,-1.0534059999999998
1276,12.76,0.564681,-2.984754,0.0005519999999999692,-0.722046,-1.230743,-1.101349
1277,12.77,0.124624,-3.218604,-0.40063699999999997,-0.635757,-1.2626950000000001,-1.121582
1278,12.78,-0.261758,-3.220879,-0.9074399999999999,-0.51326,-1.25737,-1.1258540000000001
1279,12.79,-0.630853,-3.139989,-1.420871,-0.341751,-1.175339,-1.112
1280,12.8,-0.815908,-3.01918,-1.996002,-0.18515,-1.032608,-1.116257
1281,12.81,-1.106659,-2.754526,-2.428907,-0.043472000000000004,-0.795044,-1.107742
1282,12.82,-1.313682,-2.568457,-2.714381,0.055603,-0.5511020000000001,-1.116257
1283,12.83,-1.3730799999999999,-2.2482189999999997,-2.8342169999999998,0.14827,-0.301834,-1.135437
1284,12.84,-1.4878149999999999,-1.9904529999999998,-2.881754,0.25906399999999996,-0.131393,-1.161011
1285,12.85,-1.526422,-1.738119,-2.951607,0.378372,-0.030182,-1.176987
1286,12.86,-1.502599,-1.613228,-3.033137,0.498749,0.016678,-1.176987
1287,12.87,-1.416614,-1.4181110000000001,-3.137778,0.6074069999999999,0.015625,-1.159943
1288,12.88,-1.365098,-1.1974069999999999,-3.27432,0.6883699999999999,-0.016342,-1.1311799999999999
1289,12.89,-1.337961,-0.9241870000000001,-3.265318,0.7309720000000001,-0.06640599999999999,-1.071518
1290,12.9,-1.153456,-0.574821,-3.247962,0.723526,-0.109024,-0.983109
1291,12.91,-1.051115,-0.427278,-3.1288259999999997,0.661728,-0.100494,-0.8723139999999999
1292,12.92,-0.9822489999999999,-0.185806,-2.8890029999999998,0.5605319999999999,-0.044037,-0.748749
1293,12.93,-0.935701,-0.063114,-2.432243,0.44975299999999996,0.047577,-0.613464
1294,12.94,-0.925474,0.045054000000000004,-1.9382080000000002,0.33576999999999996,0.16155999999999998,-0.48349
1295,12.95,-0.839756,0.218867,-1.1833989999999999,0.23562600000000003,0.251038,-0.364182
1296,12.96,-0.914585,0.423339,-0.469235,0.18981900000000002,0.295792,-0.261917
1297,12.97,-1.07434,0.554632,0.102189,0.193024,0.283005,-0.18309
1298,12.98,-1.077361,0.769352,0.42053100000000004,0.22711199999999998,0.235062,-0.112778
1299,12.99,-0.9534469999999999,0.8992290000000001,0.418595,0.23669400000000002,0.186066,-0.06271399999999999
1300,13.0,-0.761817,1.140994,0.406699,0.17491099999999998,0.151978,-0.031830000000000004
1301,13.01,-0.5761270000000001,1.337977,0.497852,0.031097000000000003,0.110428,-0.01265
1302,13.02,-0.43928900000000004,1.677199,0.7225739999999999,-0.16597,0.03160099999999999,-0.0233
1303,13.03,-0.50705,2.147711,0.938932,-0.372635,-0.058945000000000004,-0.037155
1304,13.04,-0.660148,2.441794,1.151153,-0.559052,-0.119675,-0.050995
1305,13.05,-0.8892030000000001,2.54743,1.3659709999999998,-0.707138,-0.140976,-0.063782
1306,13.06,-1.187663,2.371683,1.633966,-0.859467,-0.096237,-0.061646000000000006
1307,13.07,-1.33651,1.885623,2.148909,-1.05014,-0.044037,-0.048874
1308,13.08,-1.2904959999999999,1.009188,2.9492439999999998,-1.2770540000000001,-0.018463,-0.041412
1309,13.09,-0.9941469999999999,-0.01856999999999992,4.251797,-1.465591,-0.084518,-0.048874
1310,13.1,-0.680413,-0.7256729999999999,5.650987000000001,-1.525253,-0.245377,-0.08934
1311,13.11,-0.829226,-0.992525,6.7551,-1.380371,-0.395569,-0.128769
1312,13.12,-1.006458,-0.779712,6.975801,-1.023514,-0.56282,-0.196945
1313,13.13,-1.337595,-0.196572,6.282748000000001,-0.5505369999999999,-0.6235350000000001,-0.193741
1314,13.14,-1.52209,0.449441,5.219996,-0.054123,-0.46481300000000003,-0.135147
1315,13.15,-1.451214,1.113966,3.474585,0.5616,0.033722,-0.027557
1316,13.16,-1.2875530000000002,1.279018,2.3791900000000004,0.793823,0.46728500000000006,0.055527000000000014
1317,13.17,-1.2681719999999999,1.1235,1.499047,0.8492280000000001,0.841202,0.146072
1318,13.18,-1.127199,0.607011,0.984252,0.744827,1.053192,0.236618
1319,13.19,-0.729441,0.117189,0.593987,0.527512,1.056381,0.295212
1320,13.2,-0.5317529999999999,-0.440032,0.278995,0.25054899999999997,0.8688959999999999,0.31971700000000003
1321,13.21,-0.49144899999999997,-0.880199,0.063165,-0.061584,0.535461,0.32611100000000004
1322,13.22,-0.37149,-1.406472,-0.034069999999999996,-0.365173,0.17114300000000002,0.327164
1323,13.23,-0.054359999999999985,-1.814904,0.033582,-0.5633239999999999,-0.14949,0.3293
1324,13.24,0.198548,-2.135159,0.056437,-0.6101989999999999,-0.411545,0.316513
1325,13.25,0.41511800000000004,-2.351593,-0.065786,-0.522842,-0.5958399999999999,0.304794
1326,13.26,0.552611,-2.423355,-0.423683,-0.32150300000000004,-0.687454,0.297348
1327,13.27,0.701212,-2.4696990000000003,-0.902942,-0.04560900000000001,-0.697037,0.29628000000000004
1328,13.28,0.9821799999999999,-2.3750709999999997,-1.526391,0.246277,-0.603302,0.294144
1329,13.29,1.146496,-2.275146,-2.170952,0.516861,-0.449905,0.27284200000000003
1330,13.3,1.328683,-2.114774,-2.804437,0.751221,-0.28479,0.238754
1331,13.31,1.5864559999999999,-1.9194069999999999,-3.333368,0.92485,-0.11114500000000001,0.198273
1332,13.32,1.720377,-1.796509,-3.83598,1.0409700000000002,0.028396999999999988,0.13755799999999999
1333,13.33,1.7841740000000001,-1.6498419999999998,-4.2823709999999995,1.098495,0.127472,0.075775
1334,13.34,1.788377,-1.48885,-4.585344999999999,1.099564,0.19458,0.015045
1335,13.35,1.7218529999999999,-1.2333319999999999,-4.798355,1.052689,0.24784899999999999,-0.024368
1336,13.36,1.7177310000000001,-1.018709,-4.867973,0.9621430000000001,0.2798,-0.048874
1337,13.37,1.733977,-0.813131,-4.768976,0.841766,0.293655,-0.05632
1338,13.38,1.640993,-0.574232,-4.5284510000000004,0.709671,0.293655,-0.058455999999999994
1339,13.39,1.529962,-0.356576,-4.240245,0.5605319999999999,0.277679,-0.052063
1340,13.4,1.299668,-0.19231700000000002,-3.801028,0.400742,0.23613,-0.033951
1341,13.41,0.9943299999999999,0.090241,-3.2826419999999996,0.22071799999999997,0.204178,-0.0019990000000000008
1342,13.42,0.8553950000000001,0.153646,-2.4415310000000003,0.035354999999999984,0.181793,0.05978399999999999
1343,13.43,0.7754989999999999,0.272509,-1.480889,-0.126556,0.126404,0.09600800000000001
1344,13.44,0.6432770000000001,0.314773,-0.452129,-0.23948699999999998,0.073151,0.11624100000000001
1345,13.45,0.44505900000000004,0.49833999999999995,0.425112,-0.28527800000000003,0.006026999999999991,0.11518900000000001
1346,13.46,0.26748299999999997,0.620062,1.105947,-0.271439,-0.079193,0.104538
1347,13.47,0.36183000000000004,0.868189,1.613764,-0.21923800000000002,-0.160156,0.088547
1348,13.48,0.609846,1.091796,1.8809369999999999,-0.136154,-0.22833299999999998,0.031020999999999996
1349,13.49,0.836397,1.321588,1.965542,-0.062653,-0.256027,-0.055252
1350,13.5,1.058646,1.525321,1.9694580000000002,-0.036011,-0.24110399999999998,-0.155396
1351,13.51,1.278483,1.635923,2.0224860000000002,-0.06051599999999999,-0.217667,-0.274704
1352,13.52,1.433263,1.9465139999999999,2.102711,-0.129761,-0.216614,-0.40892
1353,13.53,1.3178219999999998,2.033583,2.2196990000000003,-0.201126,-0.205963,-0.5090640000000001
1354,13.54,1.4570889999999999,2.238121,2.336432,-0.262909,-0.22405999999999998,-0.606003
1355,13.55,1.588529,2.173634,2.4260900000000003,-0.32043499999999997,-0.221939,-0.707199
1356,13.56,1.558533,2.041791,2.543788,-0.39714099999999997,-0.178253,-0.804138
1357,13.57,1.5109620000000001,1.691396,2.932415,-0.482361,-0.131393,-0.873383
1358,13.58,1.479327,1.058071,3.355398,-0.53775,-0.119675,-0.936234
1359,13.59,1.576919,0.488308,3.9149269999999996,-0.536682,-0.169739,-0.986298
1360,13.6,1.707641,0.18679,4.379117,-0.43868999999999997,-0.282654,-1.02359
1361,13.61,1.797068,0.23079499999999997,4.535586,-0.221375,-0.44244399999999995,-1.050217
1362,13.62,1.943566,0.49821400000000005,4.100274,0.09608500000000003,-0.611816,-1.065125
1363,13.63,2.085075,0.821923,3.053826,0.406067,-0.7140810000000001,-1.066193
1364,13.64,2.299357,0.9890450000000001,1.8543029999999998,0.6031489999999999,-0.716217,-1.051285
1365,13.65,2.445981,1.154261,0.88836,0.6404270000000001,-0.660828,-1.029984
1366,13.66,2.628951,1.154508,0.138003,0.540298,-0.596909,-1.0022739999999999
1367,13.67,2.774873,0.9786030000000001,-0.249007,0.304871,-0.5298,-0.977783
1368,13.68,2.531384,0.74547,-0.266615,-0.02322399999999997,-0.49038699999999996,-0.9490200000000001
1369,13.69,2.387832,0.306531,0.11321300000000001,-0.383286,-0.51062,-0.9074709999999999
1370,13.7,2.244628,-0.192857,0.602355,-0.709259,-0.5947720000000001,-0.87764
1371,13.71,1.990191,-0.866934,1.123307,-0.965988,-0.704498,-0.8574069999999999
1372,13.72,1.769686,-1.479985,1.60191,-1.118317,-0.8078310000000001,-0.8499450000000001
1373,13.73,1.593615,-2.014214,1.913598,-1.1513520000000002,-0.894119,-0.8659209999999999
1374,13.74,1.346573,-2.4572119999999997,2.045945,-1.0682530000000001,-0.953766,-0.8882899999999999
1375,13.75,0.959074,-2.748573,1.8450970000000002,-0.8829040000000001,-0.9686889999999999,-0.9042819999999999
1376,13.76,0.656816,-2.908937,1.50813,-0.613388,-0.939926,-0.9159999999999999
1377,13.77,0.392385,-2.90713,0.9506549999999999,-0.28741500000000003,-0.860031,-0.914932
1378,13.78,0.15435,-2.821951,0.234589,0.07157900000000003,-0.738586,-0.9021450000000001
1379,13.79,0.087142,-2.611312,-0.567592,0.409271,-0.611816,-0.894684
1380,13.8,0.096442,-2.464499,-1.4099549999999998,0.71286,-0.461624,-0.885101
1381,13.81,0.099325,-2.235796,-2.245231,0.9621430000000001,-0.310349,-0.870193
1382,13.82,0.143904,-2.116324,-2.917707,1.150696,-0.175064,-0.8659209999999999
1383,13.83,0.268073,-1.8040919999999998,-3.537578,1.272125,-0.074921,-0.8818969999999999
1384,13.84,0.43077600000000005,-1.4441680000000001,-3.938679,1.329651,-0.004623000000000002,-0.895752
1385,13.85,0.5294800000000001,-1.09607,-4.312142,1.321136,0.029464999999999998,-0.9127959999999999
1386,13.86,0.642757,-0.793471,-4.541989,1.255081,0.031601,-0.926651
1387,13.87,0.814562,-0.43477299999999997,-4.6475029999999995,1.133652,0.015625,-0.930908
1388,13.88,0.8332510000000001,-0.193922,-4.494,0.975983,0.0007019999999999995,-0.9170530000000001
1389,13.89,0.7450720000000001,-0.10359600000000001,-4.230313,0.803421,-0.021667,-0.887238
1390,13.9,0.7422,-0.08737400000000001,-3.8907809999999996,0.60527,-0.052551,-0.8499450000000001
1391,13.91,0.6566029999999999,-0.0107,-3.3340629999999996,0.394348,-0.046173,-0.798813
1392,13.92,0.495252,-0.07899300000000001,-2.617225,0.196213,-0.036575,-0.748749
1393,13.93,0.200681,-0.23834900000000006,-1.566941,0.026840000000000003,-0.034454000000000005,-0.6933590000000001
1394,13.94,-0.002633999999999997,-0.22589499999999998,-0.3499130000000001,-0.07223500000000001,-0.051498,-0.6443479999999999
1395,13.95,-0.204532,-0.198227,0.67625,-0.07756,-0.126068,-0.598541
1396,13.96,-0.323176,-0.11658199999999999,1.394965,-0.021103000000000004,-0.21447800000000003,-0.569778
1397,13.97,-0.397692,0.060353999999999984,1.750587,0.081161,-0.302902,-0.546341
1398,13.98,-0.49284300000000003,0.290912,1.697834,0.183426,-0.347641,-0.516525
1399,13.99,-0.486387,0.465941,1.463343,0.240952,-0.330597,-0.48136899999999994
1400,14.0,-0.421995,0.723751,1.202605,0.234558,-0.272003,-0.451538
1401,14.01,-0.38755,1.026937,1.0885040000000001,0.164261,-0.20808400000000002,-0.431305
1402,14.02,-0.327452,1.460789,1.100335,0.04921,-0.175064,-0.423843
1403,14.03,-0.371897,1.965644,1.1168770000000001,-0.087143,-0.197433,-0.42063900000000004
1404,14.04,-0.374069,2.584573,1.141248,-0.21072399999999997,-0.233658,-0.432358
1405,14.05,-0.5765060000000001,2.9809650000000003,1.041627,-0.33215300000000003,-0.24217199999999997,-0.446213
1406,14.06,-0.738682,3.070016,0.9944850000000001,-0.490875,-0.221939,-0.45472700000000005
1407,14.07,-0.7658020000000001,2.884823,1.131124,-0.7156520000000001,-0.21234099999999997,-0.47604399999999997
1408,14.08,-0.710037,2.084188,1.743698,-1.008606,-0.24324,-0.5112
1409,14.09,-0.668929,1.0425799999999998,2.9704919999999997,-1.301544,-0.334854,-0.566589
1410,14.1,-0.524918,-0.04184200000000005,4.5455190000000005,-1.4773100000000001,-0.5170140000000001,-0.621979
1411,14.11,-0.6416649999999999,-0.9016360000000001,6.295999,-1.4592129999999999,-0.7801359999999999,-0.680573
1412,14.12,-0.707242,-1.1341620000000001,7.351014,-1.1769100000000001,-1.0752110000000001,-0.713593
1413,14.13,-0.761171,-1.021531,7.420157000000001,-0.655991,-1.287201,-0.697617
1414,14.14,-0.851535,-0.696001,6.461308,-0.010452000000000015,-1.250977,-0.6315609999999999
1415,14.15,-0.907899,-0.14458699999999994,5.038939,0.6020810000000001,-0.97934,-0.517578
