,ts,ax,ay,az,wx,wy,wz
0,0.0,-0.03681,-0.014297,0.055702,-0.011765000000000001,0.033752,-0.005936
1,0.01,-0.027498,-0.034124,0.031234,-0.00856,0.038025,-0.007004000000000001
2,0.02,-0.059787,-0.016850000000000004,0.053637,-0.010695999999999999,0.035889,-0.005936
3,0.03,-0.029813,-0.019538,0.039538,-0.014953999999999999,0.036957,-0.00914
4,0.04,-0.03154,0.005403999999999999,0.042469,-0.016022,0.039093,-0.00914
5,0.05,-0.060413999999999995,-0.047694,0.035747,-0.01709,0.044418,-0.00914
6,0.06,-0.035148,-0.0586,0.049238,-0.019211000000000002,0.044418,-0.00914
7,0.07,-0.031161,-0.014463,0.003922000000000003,-0.018143,0.045471,-0.005936
8,0.08,-0.019653999999999998,-0.004683,0.009170999999999999,-0.018143,0.039093,-0.007004000000000001
9,0.09,-0.02024,0.048116,-0.021205,-0.014953999999999999,0.036957,-0.007004000000000001
10,0.1,-0.014838999999999998,0.038599,0.011648000000000002,-0.011765000000000001,0.030563,-0.007004000000000001
11,0.11,-0.030409,8.499999999999827e-05,0.033535,-0.00856,0.031631,-0.003815
12,0.12,-0.048911,0.025581,0.029126,-0.009628,0.029495,-0.003815
13,0.13,0.007979,0.010094,0.067115,-0.005371,0.0327,-0.002747
14,0.14,-0.031392,0.009367,0.038049,-4.600000000000047e-05,0.035889,-0.00061
15,0.15,-0.019968,0.012208,0.042526,-4.6e-05,0.038025,-0.0006100000000000001
16,0.16,-0.037526,-0.019219999999999998,0.029717,-0.001099,0.041214,-0.0006100000000000001
17,0.17,-0.031103,-0.016628,0.005771999999999999,-0.002167,0.042282,-0.0006100000000000001
18,0.18,-0.018822,0.013219,-0.04368799999999999,-0.002167,0.042282,-0.002747
19,0.19,-0.026701999999999997,-0.013375999999999999,-0.005458000000000001,-0.002167,0.041214,-0.001678
20,0.2,0.0021420000000000002,-0.023934,-0.029761,-0.003235,0.045471,-0.003815
21,0.21,-0.00022699999999999974,-0.032977,-0.005628,-0.004303,0.045471,-0.0006100000000000001
22,0.22,0.006804999999999999,0.0013919999999999974,-0.017699,-0.00856,0.046539,-0.002747
23,0.23,0.021683,0.008999,0.013544,-0.00856,0.040146,-0.004883
24,0.24,-0.007013999999999999,0.013978999999999998,0.013215000000000001,-0.004303,0.038025,-0.003815
25,0.25,-0.010403000000000004,0.022042,0.024027,0.0010220000000000001,0.033752,-0.005936
26,0.26,0.011343000000000002,-0.0034030000000000032,0.018074,0.005295,0.030563,-0.004883
27,0.27,-0.004945000000000001,0.016751,0.025247,0.005295,0.030563,-0.007004000000000001
28,0.28,0.002928,0.003386,-0.045662,0.004227000000000001,0.029495,-0.004883
29,0.29,0.027941000000000004,-0.016669,-0.09852999999999999,0.00209,0.026306,-0.005936
30,0.3,0.02506,-0.008819,-0.07622000000000001,-0.0010989999999999997,0.025238,-0.002747
31,0.31,0.037110000000000004,-0.007968000000000001,-0.09626,-0.007492,0.020981,-0.003815
32,0.32,0.027371,-0.0014720000000000009,-0.041152999999999995,-0.018143,0.018844999999999997,-0.002747
33,0.33,0.035883,-0.010743,-0.02043,-0.025604000000000002,0.018844999999999997,0.001511
34,0.34,-0.008135,-0.02327,0.023948,-0.023468,0.019913,-0.002747
35,0.35,-0.0021170000000000013,-0.0038369999999999997,0.052603,-0.021347,0.017776,-0.002747
36,0.36,-0.035623,-0.004874,0.031932,-0.011765000000000001,0.022049000000000003,-0.004883
37,0.37,-0.040172,0.0031620000000000016,0.006735999999999999,-0.004303,0.018844999999999997,-0.003815
38,0.38,-0.024499,0.023206,-0.0241,-0.003235,0.018844999999999997,-0.002747
39,0.39,-0.0024649999999999997,0.037991000000000004,-0.004461,-0.0010990000000000002,0.018844999999999997,-0.001678
40,0.4,-0.029192000000000003,0.047513,0.037466,0.0031589999999999995,0.023102,-0.0006100000000000001
41,0.41,0.049588,0.062834,0.07649199999999999,0.008484,0.023102,-0.0016779999999999998
42,0.42,0.07008400000000001,-0.00045599999999999813,0.06073200000000001,0.014877000000000001,0.020981,0.000443
43,0.43,0.022963,-0.021358000000000002,0.040713,0.018066,0.022049000000000003,0.002579
44,0.44,0.009938000000000002,-0.030852000000000008,0.01149,0.015944999999999997,0.028426999999999997,0.003647
45,0.45,0.009879,-0.026687,-0.051334000000000005,0.012740999999999999,0.02417,0.003647
46,0.46,-0.0006339999999999991,-0.026806,-0.11161300000000002,0.003159,0.020981,0.003647
47,0.47,-0.0039510000000000005,-0.027457,-0.101711,-0.009628,0.017776,0.003647
48,0.48,-0.0009849999999999998,0.043826,-0.131832,-0.012816999999999999,0.023102,0.01004
49,0.49,0.030846,0.065023,-0.126673,-0.013885,0.031631,0.011108
50,0.5,0.055751999999999996,-0.010987000000000005,-0.089792,-0.011765000000000001,0.034821,0.005783
51,0.51,0.05451,-0.10406900000000001,-0.065674,0.0010219999999999986,0.025238,-0.0006099999999999999
52,0.52,-0.005788000000000001,-0.155548,-0.096775,0.009552,0.025238,-0.007004000000000001
53,0.53,-0.062327,-0.117444,-0.15518099999999999,0.0010219999999999997,0.023102,-0.010208
54,0.54,-0.048268,-0.08521000000000001,-0.154889,-0.009628,0.023102,-0.008072
55,0.55,-0.004993000000000001,-0.017297999999999997,-0.160502,-0.026672,0.015656,-0.002747
56,0.56,0.07197999999999999,-0.017419999999999998,-0.142807,-0.036255,0.013519,0.004715
57,0.57,0.135977,0.038261,-0.030645,-0.042648,0.008194,0.007904000000000001
58,0.58,0.233023,0.025138,-0.026373,-0.047974,0.008194,0.012161
59,0.59,0.20880100000000001,0.0002570000000000003,-0.038359,-0.051177999999999994,0.000732,0.015366
60,0.6,0.21554299999999998,-0.006945000000000001,-0.06791900000000001,-0.055435000000000005,-0.005660999999999999,0.015366
61,0.61,0.188645,-0.008339,-0.034565,-0.057555999999999996,-0.010986,0.012161
62,0.62,0.128875,-0.009677000000000002,-0.0008299999999999974,-0.056503,-0.014175,0.007904000000000001
63,0.63,0.038761000000000004,0.011056999999999999,-0.047448000000000004,-0.054367,-0.010986,0.002579
64,0.64,-0.0033359999999999987,-0.03067,-0.05600499999999999,-0.05223099999999999,-0.007781999999999999,-0.001678
65,0.65,-0.016632,-0.019823,-0.09762799999999999,-0.054367,-0.002457,-0.001678
66,0.66,0.0004989999999999977,-0.010912,-0.081236,-0.056503,0.000732,-0.002747
67,0.67,-0.009378000000000001,-0.0007649999999999996,-0.096716,-0.06076,0.005005,-0.001678
68,0.68,0.039423,0.010817999999999998,-0.054178,-0.059691999999999995,0.006058,0.0015109999999999993
69,0.69,0.058065,0.034697000000000006,-0.072839,-0.059691999999999995,0.014587000000000001,0.002579
70,0.7,0.097231,0.058303,-0.05644299999999999,-0.051177999999999994,0.019913,0.0015110000000000002
71,0.71,0.096581,0.061501,-0.028799000000000005,-0.047974,0.02417,-0.001678
72,0.72,0.07287,0.061564,-0.042837,-0.043716000000000005,0.028426999999999997,-0.007004000000000001
73,0.73,0.045831000000000004,0.046206,-0.014385,-0.031998,0.038025,-0.011276000000000001
74,0.74,-0.004285999999999997,0.035459,-0.03077,-0.021347,0.049744,-0.011276000000000001
75,0.75,0.03825,0.026494999999999998,-0.054894000000000005,-0.011765000000000001,0.064651,-0.013397
76,0.76,0.046975,0.028675,-0.086268,-0.005371,0.073181,-0.014465
77,0.77,0.058078,-0.009983,-0.11508099999999999,-0.004303,0.07850599999999999,-0.012329000000000001
78,0.78,0.07093300000000001,-0.011576999999999999,-0.174341,-0.00856,0.087021,-0.012329000000000001
79,0.79,0.083603,-0.007175,-0.247094,-0.012816999999999999,0.088089,-0.010208
80,0.8,0.074645,-0.025966,-0.237727,-0.018143,0.090225,-0.010208
81,0.81,0.095527,-0.060158,-0.25801999999999997,-0.026672,0.091278,-0.004883
82,0.82,0.101689,-0.054762,-0.2526,-0.035187,0.089157,-0.004883
83,0.83,0.081523,-0.046071,-0.202676,-0.042648,0.093414,-0.001678
84,0.84,0.048927,-0.009300999999999995,-0.200011,-0.047974,0.092346,-0.001678
85,0.85,0.081411,-0.027029,-0.19058599999999998,-0.05011,0.091278,-0.00061
86,0.86,0.11935699999999999,-0.012622,-0.180599,-0.049042,0.084885,0.000443
87,0.87,0.14215899999999998,0.0006099999999999994,-0.129178,-0.05011,0.081696,0.0015110000000000002
88,0.88,0.204531,0.011382999999999999,-0.130943,-0.046906,0.079559,-0.002747
89,0.89,0.179557,0.013345,-0.136613,-0.047974,0.079559,-0.002747
90,0.9,0.22528,0.0025720000000000014,-0.063345,-0.051177999999999994,0.084885,-0.002747
91,0.91,0.241619,-0.012916,-0.071684,-0.06076,0.082764,-0.003815
92,0.92,0.188367,-0.012142,-0.053567,-0.061828999999999995,0.081696,-0.0016779999999999998
93,0.93,0.17816099999999999,0.0028990000000000023,-0.053084000000000006,-0.066086,0.07637000000000001,-0.004883
94,0.94,0.200267,-0.04964,-0.014536999999999996,-0.072479,0.064651,-0.001678
95,0.95,0.200166,-0.047456,-0.034994,-0.076736,0.066788,0.0004429999999999998
96,0.96,0.206367,-0.044594999999999996,-0.010121,-0.08313,0.060394,-0.001678
97,0.97,0.201776,-0.020574000000000002,-0.052237,-0.086319,0.05719,-0.001678
98,0.98,0.24753499999999998,-0.018624,-0.06603300000000001,-0.087387,0.052933,-0.005936
99,0.99,0.306277,-0.029071,-0.109944,-0.08845499999999999,0.048676,-0.010208
100,1.0,0.369595,-0.024194,-0.080113,-0.09059099999999999,0.040146,-0.015533000000000002
101,1.01,0.398878,-0.032087,-0.050233,-0.092712,0.031631,-0.020859
102,1.02,0.398912,-0.03845,-0.046482,-0.095917,0.036957,-0.021927000000000002
103,1.03,0.390367,-0.016724,-0.032548,-0.095917,0.041214,-0.025116
104,1.04,0.349099,0.030855000000000007,-0.079312,-0.096985,0.045471,-0.027252
105,1.05,0.275006,0.090558,-0.056675,-0.091644,0.049744,-0.027252
106,1.06,0.21045,0.101513,-0.052896000000000006,-0.085266,0.051864999999999994,-0.027252
107,1.07,0.19301,0.131197,0.024229,-0.072479,0.05506900000000001,-0.030441000000000003
108,1.08,0.148575,0.126095,0.08180499999999999,-0.06076,0.051864999999999994,-0.032577999999999996
109,1.09,0.10603599999999999,0.065969,0.121978,-0.044785000000000005,0.066788,-0.035767
110,1.1,0.045651,0.012298999999999996,0.129071,-0.030930000000000003,0.082764,-0.038971
111,1.11,-0.001568,-0.048126999999999996,0.029695,-0.01709,0.104065,-0.046417
112,1.12,-0.019517,-0.09412100000000001,-0.07508300000000001,-0.01709,0.116852,-0.047485
113,1.13,-0.040975,-0.16684200000000002,-0.197148,-0.026672,0.13708499999999998,-0.046417
114,1.14,-0.0023849999999999982,-0.215273,-0.247669,-0.039458999999999994,0.15945399999999998,-0.05069
115,1.15,0.00019699999999999929,-0.259864,-0.182678,-0.057555999999999996,0.179703,-0.051743
116,1.16,0.044817,-0.28179,-0.09273299999999997,-0.075668,0.191422,-0.046417
117,1.17,0.059499,-0.320713,0.036748,-0.089523,0.20846599999999998,-0.043227999999999996
118,1.18,0.11288900000000003,-0.324098,0.08694,-0.095917,0.22230500000000003,-0.035767
119,1.19,0.178377,-0.372616,0.09870599999999999,-0.087387,0.23934899999999998,-0.027252
120,1.2,0.173044,-0.431142,0.048243000000000015,-0.08099400000000001,0.246811,-0.016602000000000002
121,1.21,0.09084099999999999,-0.484755,0.007351000000000001,-0.094849,0.27876300000000004,-0.0027469999999999994
122,1.22,0.040819,-0.507869,0.139287,-0.117218,0.29794299999999996,0.01004
123,1.23,-0.16613,-0.465471,0.083035,-0.143845,0.32563800000000004,0.026016
124,1.24,-0.29849899999999996,-0.272257,-0.033471,-0.167282,0.368256,0.044128
125,1.25,-0.42857700000000004,-0.10666500000000001,-0.030436,-0.183258,0.400208,0.056915
126,1.26,-0.7327060000000001,0.10458900000000002,-0.047072,-0.186462,0.410858,0.06329299999999999
127,1.27,-0.979039,0.248425,0.049128,-0.184326,0.42257700000000004,0.062241
128,1.28,-1.142834,0.36854699999999996,0.128642,-0.174744,0.446014,0.06543
129,1.29,-1.221325,0.412355,0.08113499999999997,-0.151306,0.48542799999999997,0.070755
130,1.3,-1.264084,0.32185,-0.170239,-0.11508199999999999,0.504608,0.07928500000000001
131,1.31,-1.135098,0.276982,-0.5472100000000001,-0.06501799999999999,0.486496,0.088867
132,1.32,-0.93474,0.289638,-0.9654530000000001,-0.025604000000000002,0.44068900000000005,0.095261
133,1.33,-0.6433949999999999,0.35867899999999997,-1.364731,-0.0021670000000000005,0.37677,0.09738200000000001
134,1.34,-0.333953,0.46624499999999997,-1.6896529999999998,-0.007492,0.308594,0.087799
135,1.35,0.007623999999999992,0.619264,-1.858848,-0.038391,0.23615999999999998,0.068619
136,1.36,0.179722,0.7370979999999999,-1.888624,-0.082062,0.163727,0.033477999999999994
137,1.37,0.219054,0.7523310000000001,-1.5950790000000001,-0.14917,0.067841,-0.025116000000000003
138,1.38,0.10728,0.701793,-1.37594,-0.182205,0.034821,-0.066666
139,1.39,-0.12580099999999994,0.48793100000000006,-1.121841,-0.20883200000000002,0.026306,-0.102875
140,1.4,-0.39357,0.30702199999999996,-0.885342,-0.219482,0.030563,-0.132706
141,1.41,-0.87154,-0.02225600000000001,-0.664658,-0.183258,0.050797,-0.163605
142,1.42,-1.029922,-0.108127,-0.734819,-0.1577,0.042282,-0.166794
143,1.43,-1.142686,-0.23762800000000003,-0.8737290000000001,-0.137451,0.022049000000000003,-0.164673
144,1.44,-1.162809,-0.280962,-0.976351,-0.13000499999999998,-0.013106999999999999,-0.1604
145,1.45,-1.167576,-0.257733,-1.090867,-0.136398,-0.034424,-0.14868199999999998
146,1.46,-1.098775,-0.242052,-1.209017,-0.153442,-0.058914,-0.14230299999999999
147,1.47,-0.9498219999999999,-0.223782,-1.251606,-0.167282,-0.082352,-0.138031
148,1.48,-0.796308,-0.15753,-1.2338120000000001,-0.17687999999999998,-0.100464,-0.12738
149,1.49,-0.728751,-0.135525,-1.262355,-0.180069,-0.11750799999999999,-0.11673
150,1.5,-0.6138279999999999,-0.164338,-1.302037,-0.175812,-0.137741,-0.098618
151,1.51,-0.626614,-0.20386500000000002,-1.3256139999999998,-0.171539,-0.15266400000000002,-0.08796699999999999
152,1.52,-0.669783,-0.21814299999999998,-1.401399,-0.169418,-0.169708,-0.071991
153,1.53,-0.7270810000000001,-0.20966100000000001,-1.468673,-0.171539,-0.192078,-0.057067999999999994
154,1.54,-0.773122,-0.141914,-1.49813,-0.180069,-0.215515,-0.041092000000000004
155,1.55,-0.782744,-0.123029,-1.479364,-0.196045,-0.245346,-0.026184
156,1.56,-0.836224,-0.107999,-1.417453,-0.213089,-0.273041,-0.011276
157,1.57,-0.8067840000000001,-0.037197,-1.2966959999999998,-0.226944,-0.293274,0.007904000000000001
158,1.58,-0.806365,0.041381,-1.160862,-0.233337,-0.314575,0.023880000000000002
159,1.59,-0.808053,0.15696,-1.04839,-0.235458,-0.33482399999999995,0.041992
160,1.6,-0.776334,0.265029,-0.8819319999999999,-0.22906500000000002,-0.358261,0.06329299999999999
161,1.61,-0.772142,0.322497,-0.742819,-0.20883200000000002,-0.37316900000000003,0.082474
162,1.62,-0.878172,0.42961499999999997,-0.728617,-0.180069,-0.395538,0.099518
163,1.63,-0.936225,0.454776,-0.800122,-0.154495,-0.42218,0.103775
164,1.64,-1.068653,0.46770100000000003,-0.9472700000000001,-0.139587,-0.46052600000000005,0.09845
165,1.65,-1.108172,0.595804,-1.190772,-0.138519,-0.498871,0.08461
166,1.66,-1.105409,0.7935979999999999,-1.3543040000000002,-0.148117,-0.534027,0.06543
167,1.67,-1.1055620000000002,1.050016,-1.5548600000000001,-0.143845,-0.556396,0.048386
168,1.68,-1.0617450000000002,1.300122,-1.7204580000000003,-0.12254300000000001,-0.5681149999999999,0.029205000000000002
169,1.69,-1.030081,1.509426,-1.7983779999999998,-0.024536,-0.599014,0.015366
170,1.7,-0.909905,1.485198,-1.853643,0.06601,-0.627777,0.017487
171,1.71,-0.700982,1.3427149999999999,-1.8507200000000001,0.12779200000000002,-0.67038,0.026016
172,1.72,-0.578551,1.220138,-1.616817,0.12353499999999999,-0.73642,0.022827
173,1.73,-0.39625900000000003,1.4921360000000001,-1.222445,0.034042,-0.801407,-0.004883
174,1.74,-0.26803299999999997,2.1371860000000003,-0.683017,-0.111893,-0.8408200000000001,-0.045364
175,1.75,-0.162198,2.669288,0.156219,-0.233337,-0.8205870000000001,-0.067734
176,1.76,-0.24380100000000002,2.902217,1.134233,-0.263153,-0.726837,-0.092224
177,1.77,-0.384282,2.795876,2.102882,-0.221619,-0.5681149999999999,-0.14335599999999998
178,1.78,-0.7006220000000001,2.3555599999999997,2.822125,-0.134262,-0.428558,-0.18277000000000002
179,1.79,-0.8125640000000001,1.554504,3.025427,-0.0010990000000000028,-0.35186799999999996,-0.178513
180,1.8,-0.39315500000000003,0.727036,2.678759,0.115005,-0.329498,-0.156143
181,1.81,0.146781,-0.124695,2.161033,0.166138,-0.36145,-0.14230299999999999
182,1.82,0.660611,-1.028122,1.785355,0.17040999999999998,-0.464783,-0.111404
183,1.83,1.28072,-1.7436490000000002,1.448288,0.148026,-0.580902,-0.073059
184,1.84,1.823389,-2.205174,1.073428,0.11288499999999999,-0.685287,-0.035767
185,1.85,2.022868,-2.217859,0.651738,0.072403,-0.7470859999999999,0.002579000000000001
186,1.86,1.967122,-1.913041,0.390171,0.039383,-0.730042,0.039871
187,1.87,1.756311,-1.265074,0.175301,0.025528,-0.677841,0.068619
188,1.88,1.441961,-0.54023,0.182529,0.013809000000000002,-0.596878,0.08033799999999999
189,1.89,1.054083,0.079597,0.443536,0.004227000000000001,-0.513794,0.075012
190,1.9,0.46004300000000004,0.398564,0.817766,0.009552,-0.420044,0.070755
191,1.91,-0.02635700000000002,0.526978,1.023684,0.03511,-0.312454,0.061172000000000004
192,1.92,-0.490775,0.458606,1.105284,0.062805,-0.208054,0.061172000000000004
193,1.93,-0.817001,0.19578399999999999,1.0528110000000002,0.097961,-0.16864,0.078217
194,1.94,-0.8993639999999999,-0.06685700000000001,0.8714559999999999,0.136322,-0.171829,0.11763
195,1.95,-0.646173,-0.398742,0.513779,0.186386,-0.195267,0.161301
196,1.96,-0.168149,-0.978405,0.014549000000000006,0.24496500000000002,-0.23468000000000003,0.206039
197,1.97,0.20080600000000004,-1.352992,-0.20981,0.260956,-0.261322,0.223083
198,1.98,0.5345989999999999,-1.599244,-0.37927,0.25242600000000004,-0.274109,0.21775799999999998
199,1.99,0.798734,-1.7375150000000001,-0.534346,0.21514899999999998,-0.271973,0.197525
200,2.0,0.888856,-1.8620849999999998,-0.650778,0.155487,-0.255997,0.161301
201,2.01,0.870292,-1.7920330000000002,-0.696986,0.09689299999999999,-0.24107399999999998,0.12402300000000001
202,2.02,0.762707,-1.656377,-0.735665,0.047897,-0.21763600000000002,0.096329
203,2.03,0.661179,-1.3460020000000001,-0.6833899999999999,0.0031589999999999986,-0.195267,0.078217
204,2.04,0.576958,-0.973103,-0.626031,-0.040512,-0.171829,0.069687
205,2.05,0.58638,-0.6663020000000001,-0.465084,-0.075668,-0.15478499999999998,0.064362
206,2.06,0.598852,-0.382683,-0.252619,-0.089523,-0.146271,0.05796799999999999
207,2.07,0.572279,-0.11336600000000001,-0.067989,-0.098038,-0.14413499999999999,0.055847
208,2.08,0.418292,0.18623599999999998,0.04579600000000001,-0.084198,-0.137741,0.061172000000000004
209,2.09,0.25806100000000004,0.296464,0.047697,-0.054367,-0.130295,0.050522000000000004
210,2.1,0.14244400000000002,0.339452,-0.033777,-0.018143,-0.122833,0.033477999999999994
211,2.11,0.00673,0.325338,-0.11048,0.029785000000000002,-0.120697,0.016434
212,2.12,-0.060799,0.31341199999999997,-0.25824600000000003,0.07772799999999999,-0.113251,0.002579
213,2.13,-0.007175000000000002,0.26965700000000004,-0.448122,0.119278,-0.096207,-0.011276
214,2.14,0.070219,0.27026100000000003,-0.640847,0.143768,-0.06423999999999999,-0.024048
215,2.15,0.130842,0.176209,-0.8636530000000001,0.154419,-0.028030000000000003,-0.030441000000000003
216,2.16,0.163665,0.006071999999999994,-0.9945809999999999,0.137375,0.020981,-0.033645999999999995
217,2.17,0.088639,-0.196687,-1.082684,0.10968,0.068909,-0.034698
218,2.18,0.013430999999999998,-0.372758,-1.151874,0.07666,0.108322,-0.037903
219,2.19,-0.115531,-0.538925,-1.179135,0.039383,0.134964,-0.036835
220,2.2,-0.242966,-0.682589,-1.264674,0.0010219999999999986,0.161591,-0.040024000000000004
221,2.21,-0.329137,-0.8094180000000001,-1.254664,-0.027739999999999997,0.191422,-0.052811000000000004
222,2.22,-0.343381,-0.898517,-1.197492,-0.055435000000000005,0.23402399999999998,-0.066666
223,2.23,-0.367899,-1.0109709999999998,-1.128596,-0.08313,0.287292,-0.081573
224,2.24,-0.276925,-0.967462,-1.020475,-0.110825,0.340561,-0.092224
225,2.25,-0.147884,-0.8250959999999999,-0.943212,-0.133194,0.402344,-0.09436
226,2.26,-0.02619200000000001,-0.632494,-0.959316,-0.160889,0.46626300000000004,-0.086899
227,2.27,0.11206500000000001,-0.358674,-0.927716,-0.183258,0.515259,-0.080505
228,2.28,0.21420999999999998,-0.04915699999999998,-0.811094,-0.2099,0.544022,-0.065598
229,2.29,0.350463,0.26774899999999996,-0.641834,-0.219482,0.554672,-0.046417
230,2.3,0.572375,0.5439729999999999,-0.395003,-0.210968,0.547211,-0.020859
231,2.31,0.778804,0.800187,-0.187243,-0.180069,0.528046,0.002579
232,2.32,0.8862639999999999,0.9338270000000001,-0.153264,-0.127869,0.5110020000000001,0.031342
233,2.33,0.9401450000000001,0.8936870000000001,-0.172279,-0.068222,0.505676,0.055847
234,2.34,0.861708,0.77653,-0.23171399999999998,-0.021347,0.507797,0.08354199999999999
235,2.35,0.820682,0.6764640000000001,-0.394113,0.014877,0.515259,0.104843
236,2.36,0.764033,0.697675,-0.587238,0.036179,0.525909,0.118698
237,2.37,0.704334,0.750895,-0.813707,0.051086,0.544022,0.126144
238,2.38,0.648191,1.005559,-1.053175,0.06813,0.5706479999999999,0.11763
239,2.39,0.610521,1.227114,-1.235111,0.074524,0.589828,0.096329
240,2.4,0.33605999999999997,1.673819,-1.215225,0.072403,0.605804,0.08461
241,2.41,-0.018996999999999983,2.282466,-1.028092,0.03299,0.648422,0.099518
242,2.42,0.0050029999999999936,3.064665,-0.7342569999999999,-0.043716000000000005,0.695282,0.126144
243,2.43,0.21904899999999997,3.54101,-0.26211100000000004,-0.12254300000000001,0.6803739999999999,0.143188
244,2.44,0.515709,3.6730080000000003,0.314512,-0.154495,0.574921,0.176224
245,2.45,1.151066,3.583661,0.9800260000000001,-0.120407,0.448151,0.21882600000000002
246,2.46,1.9541950000000001,3.31155,1.515727,-0.042648,0.307526,0.27528400000000003
247,2.47,2.593701,2.870962,1.884675,0.060684,0.21485900000000002,0.320023
248,2.48,2.692225,2.2338709999999997,2.041657,0.173599,0.176498,0.323227
249,2.49,2.255779,1.4435870000000002,1.8802860000000001,0.276932,0.169052,0.295532
250,2.5,1.517614,0.354034,1.7537049999999998,0.331253,0.23083499999999998,0.24865700000000002
251,2.51,0.571488,-0.9597250000000002,1.795421,0.333389,0.369324,0.185806
252,2.52,-0.569507,-2.3466299999999998,1.943202,0.29930100000000004,0.581299,0.121887
253,2.53,-1.658366,-3.514107,2.068292,0.253494,0.798615,0.06543
254,2.54,-2.33954,-4.350441,1.989107,0.227921,0.950958,0.023880000000000002
255,2.55,-2.577497,-4.577666000000001,1.574366,0.214081,0.9807739999999999,0.002579
256,2.56,-2.312096,-4.296685,0.8021240000000001,0.17999300000000001,0.89769,-0.00061
257,2.57,-1.756504,-3.493593,-0.047669999999999935,0.091568,0.7240449999999999,0.024948
258,2.58,-1.197474,-2.217613,-0.627307,-0.05862400000000001,0.506744,0.067566
259,2.59,-0.610441,-0.933254,-0.627684,-0.247177,0.265991,0.125092
260,2.6,-0.038026999999999984,0.2652919999999999,-0.007830999999999977,-0.42933699999999997,0.029494999999999993,0.182602
261,2.61,0.513063,1.0585200000000001,1.0881459999999998,-0.5486449999999999,-0.1026,0.210312
262,2.62,0.93601,1.562611,1.9804380000000001,-0.55397,-0.118576,0.182602
263,2.63,0.954208,1.667425,2.486666,-0.46556099999999995,-0.09407,0.10272200000000001
264,2.64,0.9158620000000001,1.553858,2.52342,-0.31749,-0.054657000000000004,-0.0027469999999999994
265,2.65,0.549294,1.155699,2.177441,-0.169418,0.000732,-0.12738
266,2.66,0.186244,0.673316,1.724707,-0.036255,0.062515,-0.236038
267,2.67,-0.072683,0.19356700000000002,1.2329809999999999,0.069199,0.104065,-0.323395
268,2.68,-0.329572,-0.199474,0.878083,0.130981,0.09448200000000001,-0.385178
269,2.69,-0.578488,-0.482872,0.581447,0.157623,0.05825799999999999,-0.407547
270,2.7,-0.748894,-0.721196,0.345308,0.15123,0.008194,-0.397964
271,2.71,-0.8085680000000001,-0.97721,0.128442,0.11288499999999999,-0.035477,-0.37027
272,2.72,-0.8423510000000001,-1.223639,-0.082775,0.062805,-0.07809400000000001,-0.344696
273,2.73,-0.930399,-1.4683629999999999,-0.180882,0.015945000000000004,-0.110046,-0.32658400000000004
274,2.74,-0.9347979999999999,-1.469575,-0.301338,-0.025604000000000002,-0.143082,-0.324463
275,2.75,-0.967484,-1.4419389999999999,-0.421324,-0.058624,-0.170776,-0.31700100000000003
276,2.76,-0.9360219999999999,-1.419186,-0.481051,-0.078873,-0.20912199999999997,-0.29995700000000003
277,2.77,-0.8541989999999999,-1.353524,-0.536696,-0.10231,-0.242142,-0.285034
278,2.78,-0.796858,-1.286319,-0.47571599999999997,-0.119354,-0.27623000000000003,-0.261612
279,2.79,-0.6901229999999999,-1.125645,-0.5137729999999999,-0.139587,-0.296478,-0.241364
280,2.8,-0.600486,-1.004818,-0.5612090000000001,-0.15983599999999998,-0.314575,-0.22006199999999998
281,2.81,-0.5411239999999999,-0.8964610000000001,-0.56297,-0.174744,-0.318848,-0.203018
282,2.82,-0.489568,-0.800012,-0.532003,-0.181137,-0.324173,-0.178513
283,2.83,-0.493766,-0.725825,-0.5087520000000001,-0.175812,-0.32203699999999996,-0.155075
284,2.84,-0.47509799999999996,-0.641829,-0.501635,-0.15983599999999998,-0.32203699999999996,-0.12419100000000001
285,2.85,-0.481072,-0.555451,-0.47222700000000006,-0.128937,-0.318848,-0.091156
286,2.86,-0.478175,-0.4939,-0.541321,-0.079941,-0.318848,-0.06134
287,2.87,-0.5370729999999999,-0.342206,-0.59565,-0.01709,-0.299667,-0.038971
288,2.88,-0.674635,-0.21600300000000003,-0.656542,0.050033999999999995,-0.28476,-0.027252
289,2.89,-0.748683,-0.166601,-0.7678119999999999,0.11181600000000001,-0.27623000000000003,-0.016602000000000002
290,2.9,-0.931075,-0.175451,-0.8033239999999999,0.150162,-0.265579,-0.0016780000000000009
291,2.91,-1.112454,-0.07597999999999999,-0.82588,0.17466700000000002,-0.21977199999999997,0.026016
292,2.92,-1.324099,0.06982200000000001,-0.838418,0.177856,-0.145203,0.06329299999999999
293,2.93,-1.363337,0.229028,-0.8552569999999999,0.186386,-0.073837,0.096329
294,2.94,-1.3163209999999999,0.27721999999999997,-0.966733,0.197037,-0.019500999999999998,0.114426
295,2.95,-1.233602,0.300804,-1.160561,0.199173,0.01033,0.126144
296,2.96,-1.188688,0.368895,-1.260518,0.176788,0.022049000000000003,0.126144
297,2.97,-1.0934760000000001,0.554762,-1.275559,0.12460299999999999,0.002869,0.11123699999999999
298,2.98,-1.052915,0.7555,-1.245875,0.057479999999999996,-0.032288,0.087799
299,2.99,-0.965507,1.021348,-1.1762629999999998,-0.002166999999999999,-0.080231,0.070755
300,3.0,-0.791662,1.354826,-1.04811,-0.046906,-0.123901,0.056915
301,3.01,-0.6238520000000001,1.667445,-0.808068,-0.058624,-0.15373199999999998,0.047318
302,3.02,-0.487321,1.9377970000000002,-0.57203,-0.037323,-0.15799000000000002,0.028151999999999996
303,3.03,-0.361394,2.08344,-0.39823200000000003,0.020203,-0.167572,0.002579
304,3.04,-0.190832,2.064762,-0.514604,0.10328699999999999,-0.197403,-0.029373000000000003
305,3.05,-0.166152,1.870716,-0.756026,0.18850699999999998,-0.235748,-0.062408000000000005
306,3.06,-0.130502,1.6497080000000002,-1.051984,0.243912,-0.26239,-0.097549
307,3.07,-0.120149,1.4602,-1.284086,0.278,-0.296478,-0.13484200000000002
308,3.08,-0.259952,1.269714,-1.471618,0.28865100000000005,-0.345474,-0.172119
309,3.09,-0.35686,1.08761,-1.429775,0.273727,-0.41685500000000003,-0.188095
310,3.1,-0.196724,1.137411,-1.283749,0.211945,-0.5244449999999999,-0.218994
311,3.11,-0.209786,1.51311,-0.795235,0.089447,-0.623505,-0.250946
312,3.12,-0.452479,1.9156119999999999,-0.006402999999999992,-0.045853000000000005,-0.6245729999999999,-0.265869
313,3.13,-0.932681,2.1257509999999997,0.8673139999999999,-0.134262,-0.5776979999999999,-0.273331
314,3.14,-1.211908,2.0102349999999998,1.8600439999999998,-0.14491300000000001,-0.5361630000000001,-0.301025
315,3.15,-1.272326,1.6593380000000002,2.8614669999999998,-0.120407,-0.475433,-0.34362800000000004
316,3.16,-0.9270229999999999,1.285025,3.8119940000000003,-0.09059099999999999,-0.338013,-0.374527
317,3.17,-0.638937,0.601456,4.283773,-0.029861000000000002,-0.20059200000000002,-0.381973
318,3.18,0.021235999999999974,-0.283767,4.0067010000000005,0.07772799999999999,-0.118576,-0.37345900000000004
319,3.19,0.9924430000000001,-1.389002,3.3136010000000002,0.205551,-0.120697,-0.36174
320,3.2,1.7986240000000002,-2.2630630000000003,2.381919,0.300369,-0.21019000000000002,-0.354279
321,3.21,2.593241,-2.803275,1.469981,0.326996,-0.324173,-0.340439
322,3.22,3.135045,-2.98897,0.767544,0.276932,-0.421112,-0.315933
323,3.23,3.261761,-2.7311330000000003,0.27735,0.168274,-0.503128,-0.278656
324,3.24,3.008126,-2.364403,0.087112,0.029784999999999992,-0.5702510000000001,-0.233902
325,3.25,2.351623,-1.849506,0.095356,-0.104431,-0.633102,-0.19555699999999998
326,3.26,1.349921,-1.087375,0.34102,-0.21629299999999999,-0.657593,-0.1604
327,3.27,0.409023,-0.227723,0.612046,-0.296188,-0.645874,-0.113541
328,3.28,-0.3660490000000001,0.538641,0.952527,-0.340927,-0.612854,-0.068787
329,3.29,-0.9571350000000001,1.083469,1.465861,-0.33666999999999997,-0.546814,-0.029373000000000003
330,3.3,-1.316494,1.466781,1.872338,-0.274872,-0.451996,0.004715
331,3.31,-1.391741,1.380069,2.102937,-0.147049,-0.37316900000000003,0.037735000000000005
332,3.32,-1.029807,0.8994139999999999,1.936532,0.037247,-0.339081,0.078217
333,3.33,-0.584413,0.193498,1.5079639999999999,0.20982399999999998,-0.32203699999999996,0.108047
334,3.34,-0.04111599999999999,-0.550863,0.909168,0.314209,-0.32629400000000003,0.134674
335,3.35,0.563653,-1.1931450000000001,0.309869,0.34510799999999997,-0.356125,0.15065
336,3.36,1.1540920000000001,-1.562208,-0.17827700000000002,0.32806399999999997,-0.375305,0.16983
337,3.37,1.4368610000000002,-1.6537990000000002,-0.494618,0.296112,-0.409393,0.173019
338,3.38,1.557574,-1.562794,-0.675178,0.256683,-0.443481,0.16555799999999998
339,3.39,1.388822,-1.407874,-0.7990970000000001,0.20343,-0.45838900000000005,0.15704300000000002
340,3.4,1.129377,-1.257666,-0.899516,0.138443,-0.439224,0.15278599999999998
341,3.41,0.755792,-1.109094,-0.9040229999999999,0.062805,-0.401932,0.144257
342,3.42,0.286118,-0.914925,-0.868711,-0.011765,-0.340149,0.141068
343,3.43,-0.160775,-0.7477020000000001,-0.803092,-0.075668,-0.279434,0.13681
344,3.44,-0.45993599999999996,-0.547953,-0.688438,-0.11508199999999999,-0.21337899999999999,0.138931
345,3.45,-0.654666,-0.427259,-0.664285,-0.12361099999999998,-0.172897,0.135742
346,3.46,-0.771328,-0.31482899999999997,-0.643062,-0.10231,-0.151596,0.133606
347,3.47,-0.703824,-0.281508,-0.683554,-0.06395,-0.133484,0.125092
348,3.48,-0.504092,-0.43039499999999997,-0.77863,-0.033066000000000005,-0.10578900000000001,0.118698
349,3.49,-0.339967,-0.6037239999999999,-0.934242,-0.018143,-0.067444,0.110168
350,3.5,-0.152528,-0.818315,-1.026952,-0.028808999999999998,-0.023758,0.100586
351,3.51,0.04367399999999999,-0.86135,-1.1799110000000002,-0.043716000000000005,0.011382999999999999,0.082474
352,3.52,0.16389600000000001,-0.783519,-1.2833729999999999,-0.047974,0.056137,0.068619
353,3.53,0.184222,-0.7095090000000001,-1.417254,-0.049042,0.090225,0.055847
354,3.54,0.178006,-0.59453,-1.47971,-0.049042,0.116852,0.052642999999999995
355,3.55,0.291025,-0.701846,-1.533216,-0.068222,0.134964,0.060104
356,3.56,0.401258,-0.9403309999999999,-1.463661,-0.111893,0.166916,0.06543
357,3.57,0.38235,-1.2679850000000001,-1.300237,-0.17793299999999998,0.204208,0.064362
358,3.58,0.296941,-1.45098,-1.099012,-0.243988,0.263855,0.050522000000000004
359,3.59,0.13467200000000001,-1.380011,-1.002275,-0.29086300000000004,0.345886,0.038803
360,3.6,-0.223958,-1.094013,-0.8594139999999999,-0.331329,0.41725200000000007,0.023880000000000002
361,3.61,-0.702133,-0.6390170000000001,-0.732889,-0.36648600000000003,0.495026,0.021759
362,3.62,-0.829578,0.07831899999999997,-0.5679649999999999,-0.388855,0.582367,0.026016
363,3.63,-0.63694,1.060483,-0.387706,-0.386734,0.6324310000000001,0.03241
364,3.64,-0.15396299999999996,1.9503599999999999,-0.211175,-0.356903,0.64415,0.059036
365,3.65,0.4616480000000001,2.555628,0.093583,-0.316422,0.634567,0.115494
366,3.66,1.037785,2.784673,0.486462,-0.255707,0.642029,0.18367
367,3.67,1.39424,2.5896150000000002,0.64947,-0.171539,0.650543,0.239075
368,3.68,1.5474809999999999,2.154337,0.476886,-0.055435000000000005,0.6643979999999999,0.272095
369,3.69,1.405535,1.61083,0.019094999999999997,0.083054,0.653748,0.280609
370,3.7,0.796981,1.2916940000000001,-0.2646,0.19278,0.675049,0.260376
371,3.71,-0.0016419999999999768,1.529462,-0.738988,0.20982399999999998,0.74855,0.261444
372,3.72,0.254419,2.554001,-0.8531479999999999,0.08305399999999999,0.765594,0.280609
373,3.73,1.193805,3.28956,-0.380863,-0.072479,0.654816,0.279541
374,3.74,1.867694,3.2102209999999998,0.46252600000000005,-0.13000499999999998,0.472641,0.300858
375,3.75,2.403534,3.190179,1.229364,-0.138519,0.37464899999999995,0.326416
376,3.76,2.423532,3.401277,1.963999,-0.155563,0.303268,0.354111
377,3.77,2.488323,3.4863690000000003,2.535571,-0.16835,0.273438,0.380753
378,3.78,2.386029,3.044604,3.0386580000000003,-0.121475,0.26811199999999996,0.375427
379,3.79,1.571891,2.1617029999999997,3.27166,-0.014954000000000004,0.307526,0.324295
380,3.8,0.622607,1.005947,3.139154,0.10116599999999999,0.3853,0.261444
381,3.81,-0.379821,-0.488095,2.972194,0.20875500000000002,0.468384,0.19859300000000002
382,3.82,-1.370196,-2.145937,2.759819,0.29504400000000003,0.540833,0.148514
383,3.83,-2.135765,-3.549601,2.2438540000000002,0.35789499999999996,0.571716,0.11976600000000001
384,3.84,-2.512512,-4.4277120000000005,1.609877,0.390915,0.57811,0.11656199999999999
385,3.85,-2.438469,-4.707858,0.8602700000000001,0.380264,0.5578770000000001,0.13253800000000002
386,3.86,-1.9282830000000002,-4.398695,0.06613600000000003,0.301437,0.5291140000000001,0.149582
387,3.87,-1.249396,-3.627168,-0.57511,0.15123,0.472641,0.15918
388,3.88,-0.683154,-2.634936,-0.8708540000000001,-0.043716000000000005,0.38209499999999996,0.154907
389,3.89,-0.23597600000000002,-1.533659,-0.6100439999999999,-0.23652600000000001,0.27131700000000003,0.139999
390,3.9,0.067642,-0.421608,-0.09546300000000002,-0.376083,0.15094000000000002,0.11656199999999999
391,3.91,0.141574,0.743039,0.5645220000000001,-0.448517,0.058258,0.078217
392,3.92,0.250128,1.618599,1.1182370000000001,-0.43998699999999996,0.013519,0.024947999999999998
393,3.93,0.184868,2.067581,1.660178,-0.365417,0.008194,-0.048553
394,3.94,0.116225,2.073482,2.020043,-0.22480799999999998,0.050797,-0.117798
395,3.95,-0.020817,1.681772,2.03261,-0.043716000000000005,0.09980800000000001,-0.184906
396,3.96,-0.24204,1.046648,1.854018,0.110748,0.153076,-0.23710599999999998
397,3.97,-0.55037,0.277238,1.5059200000000001,0.23326100000000002,0.19781500000000002,-0.25840799999999997
398,3.98,-0.866733,-0.3776010000000001,1.071749,0.326996,0.22230500000000003,-0.271194
399,3.99,-1.194676,-0.991677,0.622364,0.372803,0.22230500000000003,-0.26799
400,4.0,-1.382882,-1.3448930000000001,0.16481299999999996,0.37706,0.20739699999999997,-0.248825
401,4.01,-1.334267,-1.503407,-0.214364,0.333389,0.18928499999999998,-0.22325100000000003
402,4.02,-1.246306,-1.6481459999999999,-0.41804300000000005,0.26947,0.17012,-0.20620700000000003
403,4.03,-1.051046,-1.444396,-0.6702319999999999,0.18850699999999998,0.152008,-0.189163
404,4.04,-0.7565930000000001,-1.240716,-0.7648659999999999,0.106491,0.10513299999999999,-0.172119
405,4.05,-0.47821499999999995,-0.977188,-0.877505,0.053223,0.046539,-0.155075
406,4.06,-0.21401799999999999,-0.734957,-0.8398770000000001,0.012741000000000002,0.013519,-0.14230299999999999
407,4.07,0.00010300000000000586,-0.56199,-0.687241,-0.019211000000000002,-0.003525000000000001,-0.138031
408,4.08,0.13600399999999999,-0.458383,-0.53435,-0.033066000000000005,-0.025894,-0.14230299999999999
409,4.09,0.211015,-0.414828,-0.537362,-0.025604000000000002,-0.06105,-0.147629
410,4.1,0.227667,-0.407543,-0.575149,-0.005371000000000001,-0.095139,-0.14230299999999999
411,4.11,0.171958,-0.46995600000000004,-0.6814640000000001,0.018066,-0.123901,-0.133774
412,4.12,-0.016997999999999985,-0.541983,-0.777401,0.031921,-0.151596,-0.11566199999999999
413,4.13,-0.217621,-0.683295,-0.757598,0.046829,-0.18782000000000001,-0.095428
414,4.14,-0.452392,-0.6865939999999999,-0.666193,0.072403,-0.23895300000000003,-0.073059
415,4.15,-0.6760550000000001,-0.6396069999999999,-0.589571,0.106491,-0.285812,-0.047485
416,4.16,-0.850058,-0.487458,-0.492393,0.1427,-0.315643,-0.017654
417,4.17,-0.951095,-0.28619,-0.450399,0.186386,-0.325241,0.007904000000000001
418,4.18,-1.0063,-0.048441000000000005,-0.458417,0.23326100000000002,-0.307129,0.03241
419,4.19,-1.06122,0.125131,-0.46387700000000004,0.285446,-0.27516199999999996,0.037735000000000005
420,4.2,-1.062144,0.164824,-0.491857,0.34510799999999997,-0.228302,0.038803
421,4.21,-0.9802040000000001,-0.008608000000000005,-0.478732,0.407959,-0.189941,0.034531
422,4.22,-1.000945,-0.23017800000000002,-0.583371,0.46548500000000004,-0.162247,0.031342
423,4.23,-1.06019,-0.565638,-0.807481,0.49424700000000005,-0.133484,0.036667
424,4.24,-0.986669,-0.9017950000000001,-1.148201,0.487854,-0.129227,0.047318
425,4.25,-0.811812,-1.230306,-1.454936,0.435654,-0.171829,0.055847
426,4.26,-0.690253,-1.3133059999999999,-1.848839,0.33552600000000005,-0.24320999999999998,0.068619
427,4.27,-0.611472,-1.115132,-1.991155,0.197037,-0.32203699999999996,0.08461
428,4.28,-0.578652,-0.6714760000000001,-1.9616740000000001,0.036179,-0.404068,0.103775
429,4.29,-0.533408,-0.049437000000000016,-1.6936959999999999,-0.103363,-0.48503100000000005,0.121887
430,4.3,-0.350837,1.119645,-1.122517,-0.217346,-0.56279,0.12721300000000002
431,4.31,-0.349141,1.93039,-0.7449939999999999,-0.21415700000000001,-0.580902,0.10591099999999999
432,4.32,-0.5229229999999999,2.5327330000000003,-0.392251,-0.141724,-0.572372,0.061172000000000004
433,4.33,-0.727336,2.846981,-0.28848,-0.030930000000000003,-0.534027,0.008971999999999999
434,4.34,-0.93174,2.8979779999999997,-0.418576,0.092636,-0.49673500000000004,-0.040024000000000004
435,4.35,-1.192668,2.677712,-0.609789,0.200226,-0.457321,-0.074112
436,4.36,-1.404678,2.364345,-0.753161,0.263077,-0.443481,-0.10607899999999999
437,4.37,-1.358574,2.3521360000000002,-0.8564719999999999,0.249237,-0.49247700000000005,-0.141235
438,4.38,-1.09922,2.704784,-0.690988,0.139511,-0.5595859999999999,-0.18277000000000002
439,4.39,-1.074128,3.015291,0.08007400000000002,-0.012816999999999995,-0.54361,-0.198761
440,4.4,-1.417604,2.942226,0.9465950000000001,-0.094849,-0.408325,-0.203018
441,4.41,-1.672034,2.67498,1.725544,-0.11828599999999999,-0.211258,-0.241364
442,4.42,-1.8350970000000002,2.3146299999999997,2.429695,-0.128937,-0.052521000000000005,-0.28930700000000004
443,4.43,-1.868127,1.578919,3.018895,-0.126801,0.072113,-0.2957
444,4.44,-1.520002,0.7398359999999999,2.955952,-0.101242,0.169052,-0.257339
445,4.45,-0.736404,-0.27181700000000003,2.5418580000000004,-0.078873,0.185028,-0.22431900000000002
446,4.46,0.030409999999999993,-1.4171,2.188997,-0.068222,0.07743799999999999,-0.17639200000000002
447,4.47,1.1647459999999998,-2.368264,1.951859,-0.057555999999999996,-0.080231,-0.109268
448,4.48,2.307856,-2.8472470000000003,1.675921,-0.066086,-0.212311,-0.059204
449,4.49,3.084496,-2.874779,1.401053,-0.09378099999999999,-0.28369099999999997,-0.032577999999999996
450,4.5,3.2823480000000003,-2.421236,1.118977,-0.14491300000000001,-0.320969,-0.030441000000000003
451,4.51,2.931657,-1.7410849999999998,0.9618389999999999,-0.199249,-0.324173,-0.036835
452,4.52,2.2782560000000003,-0.919741,0.980766,-0.245056,-0.300735,-0.046417
453,4.53,1.420536,-0.08379399999999998,1.189398,-0.270615,-0.252792,-0.052811000000000004
454,4.54,0.627409,0.56689,1.547755,-0.271683,-0.181427,-0.041092000000000004
455,4.55,-0.09405700000000004,1.072266,1.731815,-0.24078400000000003,-0.10899400000000001,-0.018723
456,4.56,-0.60983,1.304509,2.014196,-0.17687999999999998,-0.058914,0.023880000000000002
457,4.57,-0.9705239999999999,1.329337,2.030607,-0.08099400000000001,-0.045074,0.08354199999999999
458,4.58,-1.052222,1.2773,1.8042919999999998,0.031921,-0.06318700000000001,0.146393
459,4.59,-0.885418,0.881942,1.511361,0.152298,-0.087677,0.211365
460,4.6,-0.606405,0.26979200000000003,0.999554,0.254562,-0.106857,0.260376
461,4.61,-0.169455,-0.419907,0.554887,0.31101999999999996,-0.115372,0.293396
462,4.62,0.317659,-1.1284040000000002,0.22519299999999998,0.331253,-0.10578900000000001,0.302979
463,4.63,0.631421,-1.815178,-0.07447900000000003,0.320602,-0.07809400000000001,0.289139
464,4.64,0.789641,-2.355603,-0.422549,0.278,-0.05146799999999999,0.26889
465,4.65,0.866878,-2.668653,-0.701102,0.222595,-0.016312,0.239075
466,4.66,0.7777850000000001,-2.8324290000000003,-0.87077,0.154419,0.010329999999999999,0.210312
467,4.67,0.5185890000000001,-2.504994,-0.9108879999999999,0.088379,0.039093,0.1922
468,4.68,0.28832399999999997,-2.224254,-0.941679,0.031921,0.080627,0.178345
469,4.69,0.0043390000000000095,-1.7331330000000003,-0.891286,-0.024536000000000002,0.107269,0.16450499999999998
470,4.7,-0.24104699999999998,-1.146892,-0.6728729999999999,-0.08099400000000001,0.130692,0.154907
471,4.71,-0.310108,-0.453586,-0.34870300000000004,-0.095917,0.144547,0.15065
472,4.72,-0.2441,0.31455,-0.201715,-0.045853,0.152008,0.146393
473,4.73,-0.130833,0.894228,-0.177254,0.055359000000000005,0.14561500000000002,0.13681
474,4.74,0.001327999999999996,1.243141,-0.279023,0.17999300000000001,0.125366,0.12721300000000002
475,4.75,0.13228199999999998,1.244622,-0.385954,0.303558,0.11898800000000001,0.115494
476,4.76,0.255302,0.860459,-0.484721,0.410095,0.130692,0.094193
477,4.77,0.263343,0.09737999999999997,-0.634509,0.49211099999999997,0.14135699999999998,0.062241
478,4.78,0.287761,-0.743436,-0.932271,0.552826,0.14773599999999998,0.029205000000000002
479,4.79,0.294491,-1.5554709999999998,-1.359836,0.565613,0.160522,-0.002747000000000001
480,4.8,0.252374,-2.179219,-1.843862,0.529404,0.171173,-0.027252
481,4.81,0.293684,-2.623024,-2.354355,0.43778999999999996,0.175446,-0.046417
482,4.82,0.42307100000000003,-2.8370290000000002,-2.747378,0.28225700000000004,0.18395999999999998,-0.062408000000000005
483,4.83,0.594072,-2.710922,-2.858348,0.071335,0.21379099999999998,-0.071991
484,4.84,0.754232,-2.242999,-2.7008509999999997,-0.143845,0.256393,-0.076248
485,4.85,0.70875,-1.55987,-2.205186,-0.318558,0.309662,-0.080505
486,4.86,0.49050299999999997,-0.711637,-1.586476,-0.42189,0.350143,-0.08477799999999999
487,4.87,0.205327,0.261223,-0.890418,-0.445312,0.367188,-0.086899
488,4.88,-0.079073,1.202681,-0.27836500000000003,-0.388855,0.365051,-0.091156
489,4.89,-0.22956,1.7762799999999999,0.036275,-0.280197,0.340561,-0.091156
490,4.9,-0.342525,2.020993,0.28662,-0.15983599999999998,0.31073,-0.069855
491,4.91,-0.17524800000000001,1.985516,0.253785,-0.045852999999999984,0.30540500000000004,-0.025116
492,4.92,0.197459,1.777251,-0.009538999999999992,0.037247,0.321381,0.030273
493,4.93,0.6163,1.4167379999999998,-0.483633,0.092636,0.317123,0.08461
494,4.94,0.908742,1.031875,-0.934573,0.11714200000000001,0.29794299999999996,0.13253800000000002
495,4.95,1.148682,0.747503,-1.385137,0.097961,0.286224,0.168762
496,4.96,1.2450700000000001,0.46091800000000005,-1.6615400000000002,0.046829,0.279831,0.182602
497,4.97,1.114496,0.23326999999999998,-1.7905810000000002,-0.027740000000000004,0.290482,0.181549
498,4.98,0.877108,0.172095,-1.904437,-0.121475,0.330963,0.16555799999999998
499,4.99,0.597824,0.346328,-1.8505770000000001,-0.219482,0.390625,0.13253800000000002
500,5.0,0.057746000000000026,0.7468060000000001,-1.580427,-0.299377,0.481171,0.092056
501,5.01,-0.5143,1.447154,-1.220222,-0.384598,0.601547,0.073959
502,5.02,-0.7386010000000001,2.528094,-0.558746,-0.518829,0.685699,0.092056
503,5.03,-0.173288,3.527472,0.6049859999999999,-0.609375,0.707001,0.114426
504,5.04,0.512544,3.826289,1.548561,-0.5625,0.627106,0.144257
505,5.05,1.04949,3.9686739999999996,2.403675,-0.48579399999999995,0.546158,0.21243299999999998
506,5.06,1.6360709999999998,4.209225,3.338264,-0.44212299999999993,0.490753,0.27528400000000003
507,5.07,2.167335,3.962883,3.986622,-0.347321,0.42045600000000005,0.34346
508,5.08,2.4357740000000003,2.91093,3.733342,-0.16835,0.390625,0.349854
509,5.09,1.646006,1.398482,2.895573,0.007416000000000006,0.44068900000000005,0.307251
510,5.1,0.589303,-0.453805,2.205037,0.125656,0.513123,0.240128
511,5.11,-0.622989,-2.400208,1.773638,0.20875500000000002,0.572784,0.16450499999999998
512,5.12,-1.6614919999999997,-4.075482,1.334747,0.25563,0.602615,0.094193
513,5.13,-2.339296,-4.9936620000000005,0.874008,0.25135799999999997,0.6175229999999999,0.053711
514,5.14,-2.301453,-5.093978,0.236612,0.185318,0.620728,0.024947999999999998
515,5.15,-1.879562,-4.312366,-0.41805,0.050034,0.590897,0.013229
516,5.16,-1.265886,-3.154591,-0.751127,-0.151306,0.521652,0.022827
517,5.17,-0.522092,-1.8549189999999998,-0.605243,-0.379272,0.40873699999999996,0.050522000000000004
518,5.18,0.052566999999999996,-0.571503,0.16518700000000008,-0.566757,0.255341,0.08461
519,5.19,0.433087,0.840197,1.207827,-0.656235,0.130692,0.112305
520,5.2,0.806292,2.20034,2.118896,-0.618958,0.080627,0.104843
521,5.21,0.92871,3.073243,2.653887,-0.46235699999999996,0.09980800000000001,0.047318
522,5.22,0.6914600000000001,3.2860419999999997,2.668447,-0.126801,0.176498,-0.11566199999999999
523,5.23,0.29789499999999997,2.841182,2.267246,0.09903,0.21485900000000002,-0.217926
524,5.24,-0.20722,2.0847740000000003,1.69281,0.292908,0.211655,-0.30209400000000003
525,5.25,-0.651596,1.012576,1.131358,0.41328400000000004,0.191422,-0.354279
526,5.26,-0.9476379999999999,-0.13761399999999996,0.678883,0.467606,0.157333,-0.38092
527,5.27,-1.087334,-1.216394,0.34051,0.481461,0.11792000000000001,-0.395828
528,5.28,-1.150898,-2.0527919999999997,0.045485000000000005,0.46015900000000004,0.082764,-0.39050300000000004
529,5.29,-1.035358,-2.575768,-0.15145800000000004,0.406891,0.066788,-0.36387600000000003
530,5.3,-0.9440350000000001,-2.889174,-0.354736,0.3302,0.066788,-0.330841
531,5.31,-0.805321,-3.006544,-0.44328900000000004,0.253494,0.048676,-0.285034
532,5.32,-0.5257649999999999,-2.8500799999999997,-0.541469,0.167206,0.025238,-0.23817399999999997
533,5.33,-0.233039,-2.482671,-0.592807,0.078796,-0.023758,-0.196625
534,5.34,-0.104006,-2.131507,-0.5652,0.0020900000000000016,-0.08128400000000001,-0.162537
535,5.35,-0.039792,-1.7793880000000002,-0.616346,-0.061828999999999995,-0.14840699999999998,-0.138031
536,5.36,-0.043864,-1.347206,-0.5506220000000001,-0.10656700000000001,-0.212311,-0.122055
537,5.37,-0.076467,-0.962231,-0.45359399999999994,-0.127869,-0.273041,-0.108215
538,5.38,-0.16695100000000002,-0.53089,-0.30445500000000003,-0.126801,-0.327362,-0.100754
539,5.39,-0.311242,-0.21559699999999998,-0.218547,-0.104431,-0.365707,-0.093292
540,5.4,-0.42906000000000005,-0.02404000000000002,-0.248959,-0.069275,-0.39021300000000003,-0.07518
541,5.41,-0.47108,-0.040956,-0.288713,-0.021347,-0.395538,-0.056014999999999995
542,5.42,-0.509374,-0.138178,-0.47695600000000005,0.038314999999999995,-0.396606,-0.045364
543,5.43,-0.561996,-0.316816,-0.650512,0.105423,-0.395538,-0.038971
544,5.44,-0.611023,-0.43389799999999995,-0.8987959999999999,0.16507,-0.382751,-0.035767
545,5.45,-0.57213,-0.46779499999999996,-1.035809,0.211945,-0.37742600000000004,-0.026184
546,5.46,-0.585412,-0.570103,-1.078869,0.234314,-0.387024,-0.020859
547,5.47,-0.5691609999999999,-0.60526,-1.013525,0.23645,-0.409393,-0.004883
548,5.48,-0.727687,-0.691338,-1.001541,0.218338,-0.41258199999999995,0.020691
549,5.49,-0.892181,-0.748672,-0.979409,0.19278,-0.396606,0.044128
550,5.5,-1.114853,-0.8064,-1.0419040000000002,0.158691,-0.36145,0.068619
551,5.51,-1.186677,-0.896241,-1.087999,0.122467,-0.331619,0.088867
552,5.52,-1.20481,-0.8220780000000001,-1.186252,0.081985,-0.327362,0.103775
553,5.53,-1.0553700000000001,-0.58714,-1.3229879999999998,0.021271,-0.34333800000000003,0.110168
554,5.54,-0.777864,-0.163578,-1.39907,-0.051177999999999994,-0.393417,0.108047
555,5.55,-0.49374700000000005,0.4428030000000001,-1.461233,-0.128937,-0.465851,0.10272200000000001
556,5.56,-0.25972,1.184901,-1.467402,-0.19072,-0.550003,0.099518
557,5.57,-0.21732800000000002,2.011647,-1.387338,-0.213089,-0.618179,0.092056
558,5.58,-0.182842,2.7112979999999998,-1.1325290000000001,-0.19178800000000001,-0.638428,0.078217
559,5.59,-0.341798,3.062291,-0.7601600000000001,-0.120407,-0.609665,0.05796799999999999
560,5.6,-0.704542,2.977478,-0.43698100000000006,0.053223,-0.502075,-0.0016779999999999955
561,5.61,-1.045654,2.485128,-0.595295,0.158691,-0.421112,-0.047485
562,5.62,-1.311128,1.831948,-1.024418,0.239639,-0.374237,-0.076248
563,5.63,-1.430539,1.201249,-1.524089,0.278,-0.364655,-0.080505
564,5.64,-1.2711629999999998,0.803005,-1.8304080000000003,0.25563,-0.399796,-0.067734
565,5.65,-0.565926,1.057817,-1.9021009999999998,0.121399,-0.506332,-0.07838400000000001
566,5.66,-0.264581,1.7897040000000002,-1.413037,-0.108704,-0.591553,-0.09436
567,5.67,-0.286968,2.460038,-0.2923450000000001,-0.315353,-0.5553279999999999,-0.060272000000000006
568,5.68,-0.637943,2.6696869999999997,1.0327979999999999,-0.381409,-0.41258199999999995,-0.05069
569,5.69,-1.083573,2.550649,2.215627,-0.355835,-0.228302,-0.109268
570,5.7,-1.277468,2.0699959999999997,3.347414,-0.348373,-0.088745,-0.21473699999999998
571,5.71,-1.3641969999999999,1.179946,4.19114,-0.34944200000000003,0.006058000000000001,-0.303146
572,5.72,-1.040257,0.16913900000000004,4.359545,-0.300446,0.029495,-0.354279
573,5.73,-0.139084,-0.7244649999999999,3.8683300000000003,-0.194977,-0.025894000000000004,-0.376648
574,5.74,0.65063,-1.5502340000000001,3.045436,-0.06289700000000001,-0.159058,-0.369202
575,5.75,1.65685,-1.965632,2.146514,0.039383,-0.296478,-0.294632
576,5.76,2.858294,-1.948584,1.443014,0.070267,-0.365707,-0.198761
577,5.77,3.518131,-1.7035369999999999,1.073277,0.047897,-0.44455,-0.123123
578,5.78,3.5887839999999995,-1.187633,0.9027,-0.002166999999999999,-0.513794,-0.062408000000000005
579,5.79,3.309718,-0.5697539999999999,0.837924,-0.068222,-0.5670470000000001,-0.014465
580,5.8,2.4527360000000002,0.13859499999999994,0.837202,-0.13533,-0.594742,0.015366
581,5.81,1.3410440000000001,0.6258319999999999,0.925392,-0.197113,-0.573441,0.040924
582,5.82,0.28821599999999997,0.935902,1.02604,-0.235458,-0.5084529999999999,0.059036
583,5.83,-0.659382,1.013099,1.1817799999999998,-0.239731,-0.428558,0.06329299999999999
584,5.84,-1.5813409999999999,0.980367,1.35833,-0.198181,-0.36145,0.08033799999999999
585,5.85,-2.0866860000000003,0.780504,1.407815,-0.11296099999999999,-0.308197,0.122955
586,5.86,-2.0884009999999997,0.437812,1.294154,0.008484000000000005,-0.251724,0.16983
587,5.87,-1.8320990000000001,-0.07690799999999998,0.9253399999999999,0.13205,-0.20165999999999998,0.19966099999999998
588,5.88,-1.398547,-0.678632,0.491073,0.226868,-0.156921,0.228409
589,5.89,-0.708609,-1.252707,0.058945000000000004,0.268402,-0.133484,0.249725
590,5.9,0.014564000000000018,-1.7559770000000001,-0.30204899999999996,0.273727,-0.133484,0.266769
591,5.91,0.622023,-2.035329,-0.5573779999999999,0.257751,-0.134552,0.297653
592,5.92,1.079531,-2.216916,-0.7856890000000001,0.21727,-0.136688,0.313644
593,5.93,1.418052,-2.320622,-0.9073260000000001,0.168274,-0.143082,0.315765
594,5.94,1.582592,-2.2118849999999997,-0.9022120000000001,0.126724,-0.14094500000000001,0.29232800000000003
595,5.95,1.564378,-1.9433310000000001,-0.8678610000000001,0.083054,-0.113251,0.256119
596,5.96,1.253902,-1.6749919999999998,-0.801299,0.03511,-0.079163,0.197525
597,5.97,0.835392,-1.50904,-0.660524,-0.013885,-0.053589,0.135742
598,5.98,0.5155109999999999,-1.232695,-0.5244,-0.053299,-0.023758,0.08033799999999999
599,5.99,0.239608,-0.9540379999999999,-0.460787,-0.066086,0.0039369999999999995,0.036666999999999984
600,6.0,0.019134,-0.576229,-0.431807,-0.025604000000000002,0.059326,0.0004430000000000007
601,6.01,-0.02254,-0.416605,-0.504896,0.015944999999999997,0.072113,-0.011276000000000001
602,6.02,-0.022444,-0.368602,-0.605588,0.051086,0.066788,-0.021927000000000002
603,6.03,0.063849,-0.397555,-0.733613,0.069199,0.05719,-0.02298
604,6.04,0.18295,-0.44923100000000005,-0.848108,0.07347100000000001,0.05719,-0.027252
605,6.05,0.257653,-0.506313,-0.870009,0.086243,0.072113,-0.032577999999999996
606,6.06,0.330313,-0.5110279999999999,-0.9278420000000001,0.10968,0.09874,-0.04216
607,6.07,0.282841,-0.41536300000000004,-1.022553,0.1427,0.134964,-0.056014999999999995
608,6.08,0.23136500000000002,-0.312037,-1.0577889999999999,0.168274,0.173309,-0.069855
609,6.09,0.14116800000000002,-0.12687899999999994,-1.163902,0.190643,0.22230500000000003,-0.073059
610,6.1,0.05799,0.048701,-1.124099,0.202362,0.281967,-0.063461
611,6.11,-0.088899,0.108547,-1.0923200000000002,0.20875500000000002,0.334167,-0.049622
612,6.12,-0.195774,-0.046133000000000014,-1.001147,0.21514899999999998,0.37677,-0.032577999999999996
613,6.13,-0.287852,-0.27793,-0.847886,0.20768699999999998,0.407669,-0.019791
614,6.14,-0.397543,-0.477033,-0.782415,0.177856,0.447083,-0.011276000000000001
615,6.15,-0.40187399999999995,-0.541614,-0.723784,0.11714200000000001,0.514191,-0.0016779999999999998
616,6.16,-0.378365,-0.46807600000000005,-0.695846,0.037247,0.59729,0.012161000000000002
617,6.17,-0.225189,-0.19811900000000002,-0.717156,-0.047974,0.669724,0.029205000000000002
618,6.18,0.09299199999999999,0.2336,-0.7413270000000001,-0.119354,0.7112729999999999,0.052642999999999995
619,6.19,0.46438500000000005,0.732704,-0.619488,-0.17260699999999998,0.710205,0.07608
620,6.2,0.7493310000000001,1.3010059999999999,-0.47753500000000004,-0.188583,0.6803739999999999,0.108047
621,6.21,0.981849,1.820232,-0.382307,-0.173676,0.653748,0.145325
622,6.22,1.088867,2.133563,-0.43317100000000003,-0.13000499999999998,0.638824,0.173019
623,6.23,1.114287,2.2713520000000003,-0.552433,-0.053299,0.629242,0.195389
624,6.24,1.087144,2.122012,-0.731726,0.044708,0.637772,0.195389
625,6.25,0.8484700000000001,1.7904959999999999,-0.8538899999999999,0.149094,0.666519,0.18367
626,6.26,0.394215,1.594667,-1.0649309999999998,0.230057,0.7368319999999999,0.168762
627,6.27,-0.006638000000000005,1.4890510000000001,-1.089858,0.25563,0.827377,0.162369
628,6.28,-0.171963,1.537776,-0.905409,0.21087600000000004,0.857208,0.209244
629,6.29,0.32069699999999995,1.63588,-0.560604,0.11820999999999998,0.7964939999999999,0.29125999999999996
630,6.3,0.924063,1.374288,-0.100138,0.07666,0.701675,0.375427
631,6.31,1.311735,0.8252120000000001,0.386397,0.059615999999999995,0.639893,0.46171599999999996
632,6.32,1.019299,0.20405399999999999,1.286252,-0.020279,0.6334989999999999,0.562912
633,6.33,0.5828760000000001,0.045468,2.309859,-0.165161,0.7400359999999999,0.6342770000000001
634,6.34,-0.005753999999999981,0.101635,3.207995,-0.287659,0.8699950000000001,0.625763
635,6.35,-1.232976,0.090146,3.8063910000000005,-0.29086300000000004,0.954147,0.581024
636,6.36,-2.364044,0.032971000000000014,3.767411,-0.16835,1.0010219999999999,0.534149
637,6.37,-3.1158799999999998,0.07874600000000001,3.360468,0.009552000000000005,0.93924,0.46597299999999997
638,6.38,-3.177083,0.182989,2.7882689999999997,0.1427,0.786896,0.38819899999999996
639,6.39,-3.023708,0.339913,2.1976560000000003,0.159744,0.676117,0.32215900000000003
640,6.4,-2.433992,0.652363,1.95164,0.064941,0.649475,0.272095
641,6.41,-1.601903,1.010189,1.95921,-0.05650300000000001,0.6920930000000001,0.219894
642,6.42,-0.681697,1.1970809999999998,2.10087,-0.13000499999999998,0.756012,0.160233
643,6.43,0.05990200000000001,1.255963,2.122329,-0.143845,0.8231200000000001,0.08461
644,6.44,0.6598679999999999,1.2216280000000002,1.899216,-0.117218,0.9062040000000001,0.00044300000000000583
645,6.45,1.000467,1.011849,1.53738,-0.071411,0.9647979999999999,-0.103943
646,6.46,0.901402,0.503199,1.251031,-0.023468,0.99144,-0.216858
647,6.47,0.750287,0.022644,0.979909,0.037247,0.950958,-0.314865
648,6.48,0.31024,-0.42123599999999994,0.683588,0.09584,0.876389,-0.391571
649,6.49,-0.210787,-0.872576,0.34825,0.122467,0.814606,-0.42884799999999995
650,6.5,-0.744002,-1.349756,-0.009042999999999995,0.122467,0.730438,-0.451218
651,6.51,-1.1108049999999998,-1.858543,-0.222058,0.091568,0.652679,-0.43631000000000003
652,6.52,-1.451503,-2.277561,-0.350231,0.04364,0.581299,-0.396896
653,6.53,-1.6621400000000002,-2.6654970000000002,-0.37492,-0.009627999999999998,0.5163270000000001,-0.34256
654,6.54,-1.755424,-2.850907,-0.369463,-0.059691999999999995,0.45347600000000005,-0.282913
655,6.55,-1.655719,-2.8099439999999998,-0.379427,-0.104431,0.390625,-0.21473699999999998
656,6.56,-1.4376440000000001,-2.6522240000000004,-0.333874,-0.137451,0.338425,-0.14868199999999998
657,6.57,-1.116651,-2.286247,-0.425929,-0.1577,0.294754,-0.09436
658,6.58,-0.756608,-1.869833,-0.436096,-0.174744,0.250015,-0.057067999999999994
659,6.59,-0.46732299999999993,-1.385441,-0.39911399999999997,-0.180069,0.22018400000000002,-0.034698
660,6.6,-0.29425300000000004,-0.857491,-0.324388,-0.175812,0.202072,-0.026184
661,6.61,-0.306395,-0.411189,-0.155059,-0.148117,0.19354200000000002,-0.021927000000000002
662,6.62,-0.45248599999999994,-0.11210099999999998,0.006548999999999999,-0.085266,0.195679,-0.019791
663,6.63,-0.653591,0.0009219999999999957,-0.036629,-0.008559999999999998,0.210587,-0.011276000000000001
664,6.64,-0.845613,-0.047784,-0.12162200000000001,0.06813,0.215927,0.0015110000000000002
665,6.65,-0.985384,-0.189497,-0.40376100000000004,0.12886,0.221252,0.017487
666,6.66,-1.0735350000000001,-0.394152,-0.630101,0.16081199999999998,0.218048,0.036667
667,6.67,-1.0426389999999999,-0.623582,-0.872758,0.17040999999999998,0.202072,0.052642999999999995
668,6.68,-1.000251,-0.824794,-1.090429,0.16507,0.177567,0.070755
669,6.69,-0.9307280000000001,-1.013067,-1.278135,0.13525399999999999,0.143478,0.08354199999999999
670,6.7,-0.8214090000000001,-1.075867,-1.423411,0.09477200000000001,0.10939000000000002,0.09738200000000001
671,6.71,-0.667989,-1.033037,-1.455299,0.042572000000000006,0.081696,0.108047
672,6.72,-0.43183599999999994,-0.779071,-1.4136030000000002,-0.038391,0.020981,0.118698
673,6.73,-0.358561,-0.50646,-1.253963,-0.08313,-0.022705,0.130417
674,6.74,-0.385844,-0.188406,-1.053925,-0.11828599999999999,-0.07489,0.148514
675,6.75,-0.440511,0.08576399999999999,-0.8032600000000001,-0.136398,-0.11644000000000002,0.163437
676,6.76,-0.558122,0.44365299999999996,-0.63005,-0.138519,-0.156921,0.16983
677,6.77,-0.743233,0.776088,-0.590776,-0.131073,-0.20059200000000002,0.16983
678,6.78,-0.845197,1.024377,-0.62563,-0.10975599999999999,-0.24853499999999998,0.161301
679,6.79,-0.797539,1.301978,-0.76466,-0.076736,-0.292206,0.146393
680,6.8,-0.7480020000000001,1.622866,-0.8167800000000001,-0.037323,-0.348663,0.11976600000000001
681,6.81,-0.616165,1.911218,-0.86698,-0.006423999999999999,-0.409393,0.099518
682,6.82,-0.47258900000000004,2.146284,-0.913225,0.021271,-0.46052600000000005,0.08354199999999999
683,6.83,-0.341562,2.205695,-0.931157,0.05215499999999999,-0.493546,0.073959
684,6.84,-0.246175,2.043205,-1.083012,0.09477200000000001,-0.516983,0.067566
685,6.85,-0.272485,1.816454,-1.26129,0.140579,-0.544678,0.073959
686,6.86,-0.398881,1.456509,-1.49161,0.182114,-0.561722,0.088867
687,6.87,-0.7541770000000001,1.2167299999999999,-1.576581,0.199173,-0.5670470000000001,0.10697899999999999
688,6.88,-1.033648,1.370095,-1.43157,0.15123,-0.57663,0.11123699999999999
689,6.89,-1.127996,2.080535,-1.102494,0.010620000000000004,-0.638428,0.085663
690,6.9,-1.4620799999999998,3.148205,-0.12933899999999998,-0.200302,-0.6607970000000001,0.072891
691,6.91,-1.924759,3.717251,1.394085,-0.355835,-0.535095,0.067566
692,6.92,-2.6545389999999998,3.867899,3.067027,-0.43147299999999994,-0.250671,-0.009140000000000002
693,6.93,-3.55901,3.557975,4.731081,-0.445312,0.052933000000000015,-0.140167
694,6.94,-4.083988,2.591097,5.729033,-0.340927,0.26811199999999996,-0.229645
695,6.95,-3.3582099999999997,1.321383,5.290624,-0.111893,0.39169299999999996,-0.230713
696,6.96,-2.119945,-0.08133000000000001,3.9259839999999997,0.120331,0.444946,-0.213669
697,6.97,-0.9600549999999999,-1.741163,2.565785,0.29504400000000003,0.386368,-0.166794
698,6.98,0.476994,-3.092164,1.6362729999999999,0.41435200000000005,0.276642,-0.073059
699,6.99,1.8384790000000002,-3.833053,0.8638530000000001,0.453766,0.171173,0.030273
700,7.0,2.6535330000000004,-3.8043730000000004,0.27906,0.39517199999999997,0.10513299999999999,0.113373
701,7.01,2.839931,-3.2534919999999996,-0.18753200000000006,0.267349,0.02417,0.17941300000000002
702,7.02,2.347444,-2.241187,-0.49850200000000006,0.11714200000000001,-0.056792999999999996,0.21243299999999998
703,7.03,1.504205,-1.0339559999999999,-0.5918720000000001,-0.034133999999999984,-0.09407,0.229477
704,7.04,0.5974649999999999,0.111836,-0.266102,-0.167282,-0.06318700000000001,0.24226399999999998
705,7.05,-0.387018,1.0864690000000001,0.316785,-0.269547,0.048676,0.2444
706,7.06,-1.261262,1.716214,1.127879,-0.312164,0.19781500000000002,0.231613
707,7.07,-1.8988450000000001,2.015932,1.8707650000000002,-0.263153,0.34481799999999996,0.215637
708,7.08,-2.225304,1.973496,2.285823,-0.117218,0.456665,0.21882600000000002
709,7.09,-2.132894,1.6394,2.211318,0.07772799999999999,0.521652,0.23800700000000002
710,7.1,-1.7697650000000003,1.1061969999999999,1.730941,0.275864,0.548279,0.260376
711,7.11,-1.287332,0.404418,1.0895780000000002,0.42500299999999996,0.5642550000000001,0.284882
712,7.12,-0.6915559999999998,-0.372154,0.662215,0.510223,0.5632020000000001,0.316833
713,7.13,-0.238012,-1.085448,0.244966,0.544312,0.5578770000000001,0.356247
714,7.14,0.236931,-1.597512,0.002890000000000004,0.548569,0.5525359999999999,0.39779699999999996
715,7.15,0.469167,-1.8856490000000001,-0.15577800000000006,0.5283359999999999,0.556808,0.43721000000000004
716,7.16,0.49425,-1.964649,-0.239594,0.489975,0.585571,0.453186
717,7.17,0.325418,-1.9097810000000002,-0.169495,0.434586,0.643097,0.43721000000000004
718,7.18,0.08231599999999999,-1.7317240000000003,-0.031207,0.379196,0.7368319999999999,0.399918
719,7.19,-0.250888,-1.6264020000000001,0.036196000000000006,0.315277,0.846558,0.357315
720,7.2,-0.6546109999999999,-1.464598,0.203188,0.259888,0.965866,0.314697
721,7.21,-0.885818,-1.37886,0.30039299999999997,0.23219299999999998,1.064941,0.28274499999999997
722,7.22,-0.9830690000000001,-1.3286879999999999,0.379779,0.23219299999999998,1.141632,0.25717199999999996
723,7.23,-0.9326209999999999,-1.206048,0.320792,0.24710100000000002,1.1916959999999999,0.24226399999999998
724,7.24,-0.791625,-1.063204,0.156593,0.26947,1.230057,0.231613
725,7.25,-0.5310159999999999,-0.9222799999999999,-0.071155,0.289719,1.252426,0.223083
726,7.26,-0.348427,-0.649416,-0.261346,0.307816,1.266266,0.21350100000000002
727,7.27,-0.28565799999999997,-0.475239,-0.388863,0.306763,1.282242,0.207108
728,7.28,-0.137435,-0.31156799999999996,-0.42726099999999995,0.29930100000000004,1.303558,0.19966099999999998
729,7.29,-0.080647,-0.015138000000000013,-0.406856,0.301437,1.330185,0.190063
730,7.3,-0.05254299999999999,0.256265,-0.297469,0.3302,1.354691,0.176224
731,7.31,-0.016901,0.240233,-0.241193,0.36534099999999997,1.380249,0.161301
732,7.32,-0.0016599999999999985,-0.132141,-0.202763,0.37706,1.407944,0.139999
733,7.33,0.140798,-0.665571,-0.290607,0.369614,1.385574,0.118698
734,7.34,0.41863999999999996,-1.141359,-0.5653,0.3302,1.34404,0.089935
735,7.35,0.708064,-1.485211,-0.9469629999999999,0.260956,1.2960969999999998,0.064362
736,7.36,0.77661,-1.6894150000000001,-1.369533,0.16934200000000002,1.260941,0.036667
737,7.37,0.837146,-1.631043,-1.589053,0.059615999999999995,1.237503,0.01004
738,7.38,0.77985,-1.3494549999999998,-1.594716,-0.061828999999999995,1.225784,-0.013397
739,7.39,0.6484840000000001,-0.9383549999999999,-1.392449,-0.170486,1.214066,-0.027252
740,7.4,0.38319699999999995,-0.422083,-1.070904,-0.249313,1.206619,-0.031508999999999995
741,7.41,0.06312999999999999,0.139677,-0.703838,-0.294052,1.187439,-0.027252
742,7.42,-0.200723,0.6776770000000001,-0.37185999999999997,-0.298309,1.1608120000000002,-0.017654
743,7.43,-0.5150140000000001,1.104981,-0.249099,-0.265289,1.138443,0.0015110000000000002
744,7.44,-0.7676609999999999,1.383684,-0.133053,-0.199249,1.120331,0.022827
745,7.45,-0.792712,1.462525,-0.22341,-0.111893,1.1032870000000001,0.049454000000000005
746,7.46,-0.7303689999999999,1.2826950000000001,-0.41628100000000007,-0.031998,1.088379,0.071823
747,7.47,-0.637047,0.99085,-0.6823319999999999,0.03299,1.075592,0.094193
748,7.48,-0.52598,0.605541,-0.9859879999999999,0.06601,1.07666,0.110168
749,7.49,-0.44521400000000005,0.297198,-1.299965,0.058548,1.089432,0.13253800000000002
750,7.5,-0.44378500000000004,0.14970899999999998,-1.531283,0.02446,1.124588,0.15065
751,7.51,-0.47610399999999997,0.149741,-1.838211,-0.027739999999999997,1.174652,0.15918
752,7.52,-0.5361640000000001,0.26823600000000003,-1.991998,-0.08313,1.220459,0.146393
753,7.53,-0.719737,0.36294699999999996,-1.9868139999999999,-0.121475,1.263077,0.12081900000000001
754,7.54,-1.031566,0.704791,-1.967481,-0.134262,1.316345,0.092056
755,7.55,-1.237665,1.044785,-1.698045,-0.12361099999999998,1.407944,0.048386
756,7.56,-1.64903,1.6385669999999999,-1.384526,-0.101242,1.4580229999999998,0.03241
757,7.57,-1.6271790000000002,2.500161,-0.8341459999999999,-0.137451,1.448425,0.073959
758,7.58,-0.785822,3.181673,0.201643,-0.19178800000000001,1.4004969999999999,0.143188
759,7.59,0.22170399999999998,3.174517,1.234537,-0.170486,1.316345,0.22628800000000002
760,7.6,0.72896,3.052764,2.026205,-0.11296099999999999,1.211945,0.345596
761,7.61,0.8717950000000001,3.227504,2.802547,-0.136398,1.183182,0.467041
762,7.62,1.1885569999999999,3.108111,3.5511690000000002,-0.2099,1.205551,0.556519
763,7.63,1.2307649999999999,2.314359,4.191319,-0.2099,1.201294,0.5884699999999999
764,7.64,0.69479,1.033507,4.239941,-0.119354,1.281189,0.545868
765,7.65,-0.408763,-0.4649860000000001,3.8658550000000003,0.020203000000000013,1.3408360000000001,0.477692
766,7.66,-1.353374,-2.0559369999999997,3.1735830000000003,0.164017,1.365341,0.41803
767,7.67,-2.031462,-3.4949120000000002,2.345548,0.262009,1.378128,0.35092199999999996
768,7.68,-2.2377599999999997,-4.211744,1.367033,0.273727,1.3877110000000001,0.269958
769,7.69,-1.896177,-4.181893,0.44858100000000006,0.175735,1.402618,0.18367
770,7.7,-1.308759,-3.5687870000000004,-0.121486,0.0042269999999999955,1.423935,0.114426
771,7.71,-0.6118640000000001,-2.633916,-0.43007799999999996,-0.196045,1.379181,0.088867
772,7.72,0.11547100000000002,-1.50861,-0.39205300000000004,-0.376083,1.2854459999999999,0.089935
773,7.73,0.708802,-0.2551760000000001,-0.048630000000000013,-0.5103,1.1427,0.10591099999999999
774,7.74,1.107035,0.8351700000000001,0.524623,-0.579544,0.9893040000000001,0.112305
775,7.75,1.135119,1.8052869999999999,1.255391,-0.57634,0.883835,0.115494
776,7.76,1.044353,2.563078,1.952464,-0.480469,0.84549,0.08673099999999999
777,7.77,0.573847,2.80913,2.3505529999999997,-0.286591,0.8380280000000001,0.018555
778,7.78,0.06817600000000001,2.7442130000000002,2.079956,-0.044784999999999985,0.83165,-0.06134000000000001
779,7.79,-0.5641109999999999,2.188359,1.4550319999999999,0.168274,0.809265,-0.12738
780,7.8,-1.0075049999999999,1.381899,0.770025,0.32486,0.7826390000000001,-0.169998
781,7.81,-1.4303299999999999,0.505954,0.11086600000000002,0.399429,0.768799,-0.21048000000000003
782,7.82,-1.71597,-0.4062330000000001,-0.342477,0.393036,0.779449,-0.229645
783,7.83,-1.8382009999999998,-1.131499,-0.626911,0.331253,0.80394,-0.229645
784,7.84,-1.7621759999999997,-1.681599,-0.7172930000000001,0.249237,0.84549,-0.216858
785,7.85,-1.511814,-1.9356630000000001,-0.776625,0.173599,0.8657379999999999,-0.18277000000000002
786,7.86,-1.183899,-2.02746,-0.7923359999999999,0.11288499999999999,0.8657379999999999,-0.147629
787,7.87,-0.825815,-2.02704,-0.788626,0.072403,0.8486940000000001,-0.10394300000000001
788,7.88,-0.495831,-1.779984,-0.768143,0.030853,0.809265,-0.067734
789,7.89,-0.13012,-1.457402,-0.708079,-0.006423999999999999,0.765594,-0.043227999999999996
790,7.9,0.169695,-1.249168,-0.5980989999999999,-0.022415,0.7027439999999999,-0.028319999999999998
791,7.91,0.298948,-1.117348,-0.442247,-0.014954000000000004,0.636703,-0.026184
792,7.92,0.34026,-1.0501280000000002,-0.388608,0.005295,0.567459,-0.021927000000000002
793,7.93,0.321876,-0.916682,-0.427918,0.03299,0.501404,-0.018723
794,7.94,0.176069,-0.8372870000000001,-0.60396,0.060684,0.436432,-0.019791
795,7.95,0.050677999999999994,-0.7992670000000001,-0.786481,0.090515,0.381042,-0.014465
796,7.96,-0.179739,-0.843108,-1.0238770000000001,0.11393699999999998,0.32991,-0.005936
797,7.97,-0.332898,-0.916317,-1.246983,0.126724,0.276642,0.007904000000000001
798,7.98,-0.484716,-0.8848370000000001,-1.450833,0.12886,0.22018400000000002,0.024947999999999998
799,7.99,-0.6108640000000001,-0.850866,-1.560605,0.12460299999999999,0.16477999999999998,0.049454000000000005
800,8.0,-0.719754,-0.7247939999999999,-1.635751,0.11821,0.125366,0.07608
801,8.01,-0.85062,-0.597102,-1.7482389999999999,0.120331,0.091278,0.100586
802,8.02,-1.002518,-0.498313,-1.823174,0.12353499999999999,0.062515,0.113373
803,8.03,-1.129283,-0.23921900000000001,-1.9882099999999998,0.134186,0.045471,0.118698
804,8.04,-1.257287,0.07774600000000001,-2.086712,0.137375,0.044418,0.12721300000000002
805,8.05,-1.232844,0.475317,-2.1585080000000003,0.129929,0.064651,0.13147
806,8.06,-1.180513,0.744688,-2.0453639999999997,0.12779200000000002,0.084885,0.128281
807,8.07,-1.148899,0.804852,-1.876252,0.129929,0.093414,0.11976600000000001
808,8.08,-1.047517,0.664768,-1.6683880000000002,0.12460299999999999,0.081696,0.104843
809,8.09,-0.956074,0.490691,-1.446359,0.106491,0.048676,0.089935
810,8.1,-0.903661,0.416163,-1.426349,0.06601,0.011382999999999999,0.075012
811,8.11,-0.829326,0.499262,-1.449177,0.007416000000000002,-0.040802,0.062241
812,8.12,-0.7781640000000001,0.816299,-1.580194,-0.059692000000000016,-0.089813,0.059036
813,8.13,-0.61023,1.3959780000000002,-1.658953,-0.12254300000000001,-0.129227,0.060104
814,8.14,-0.511641,2.075442,-1.426505,-0.160889,-0.16864,0.068619
815,8.15,-0.42244499999999996,2.531407,-1.13449,-0.13533,-0.208054,0.08140599999999999
816,8.16,-0.328164,2.7374970000000003,-1.029955,-0.035187,-0.23149099999999997,0.088867
817,8.17,-0.349598,2.566823,-1.2402360000000001,0.09370399999999998,-0.240021,0.085663
818,8.18,-0.488413,2.1478479999999998,-1.6183100000000001,0.200226,-0.24853499999999998,0.082474
819,8.19,-0.725695,1.964573,-1.7274509999999998,0.219406,-0.277298,0.06329299999999999
820,8.2,-0.842382,2.4185830000000004,-1.476421,0.10968,-0.34761,0.007904000000000001
821,8.21,-1.117704,3.157971,-0.539705,-0.08313,-0.359329,-0.031508999999999995
822,8.22,-1.547347,3.2897,0.926867,-0.197113,-0.23895300000000003,-0.02298
823,8.23,-2.183825,2.955605,2.2458259999999997,-0.204575,0.025238,-0.070923
824,8.24,-3.054282,2.411798,3.467336,-0.175812,0.307526,-0.16893
825,8.25,-3.5483879999999997,1.6371879999999999,4.239326999999999,-0.127869,0.523788,-0.228577
826,8.26,-2.907478,0.646223,3.9228169999999998,-0.038391,0.638824,-0.23817399999999997
827,8.27,-1.890811,-0.2966,2.7941409999999998,0.046829,0.681442,-0.23710599999999998
828,8.28,-0.8513959999999999,-1.374724,1.6966459999999999,0.09689299999999999,0.601547,-0.189163
829,8.29,0.434835,-2.221494,0.976389,0.12460299999999999,0.492889,-0.09436
830,8.3,1.7696040000000002,-2.582062,0.6004510000000001,0.12779200000000002,0.410858,0.007904000000000001
831,8.31,2.696018,-2.330492,0.365886,0.09584,0.274506,0.093124
832,8.32,2.944092,-1.813047,0.401629,0.02446,0.14135699999999998,0.14213599999999998
833,8.33,2.706495,-1.144786,0.539376,-0.051177999999999994,0.041214,0.17408800000000002
834,8.34,2.094031,-0.442172,0.686381,-0.11828599999999999,0.002869,0.20391800000000002
835,8.35,1.25455,0.208029,0.8884280000000001,-0.17687999999999998,0.0327,0.23374899999999998
836,8.36,0.464768,0.827151,1.093648,-0.218414,0.11792000000000001,0.260376
837,8.37,-0.34024699999999997,1.209907,1.3591010000000001,-0.23120100000000002,0.23722800000000002,0.263565
838,8.38,-1.066686,1.392509,1.6350559999999998,-0.204575,0.365051,0.25717199999999996
839,8.39,-1.524101,1.36035,1.763308,-0.131073,0.472641,0.272095
840,8.4,-1.650279,1.086322,1.7255349999999998,-0.023468000000000003,0.5173949999999999,0.287003
841,8.41,-1.492593,0.7246060000000001,1.4533129999999999,0.10755899999999999,0.534439,0.308304
842,8.42,-1.1596,0.17575400000000002,0.988389,0.226868,0.537628,0.341339
843,8.43,-0.640042,-0.417392,0.497608,0.309952,0.533371,0.372223
844,8.44,-0.17693299999999998,-1.073517,0.05929899999999999,0.34404,0.519516,0.39779699999999996
845,8.45,0.275984,-1.7213049999999999,-0.214152,0.342972,0.509933,0.41909799999999997
846,8.46,0.540695,-2.107866,-0.42211800000000005,0.313156,0.523788,0.44572399999999995
847,8.47,0.7485430000000001,-2.3396150000000002,-0.5844199999999999,0.283325,0.542953,0.46064799999999995
848,8.48,0.721907,-2.37522,-0.715613,0.24496500000000002,0.573853,0.443604
849,8.49,0.494511,-2.32645,-0.780864,0.204498,0.618591,0.40419
850,8.5,0.346208,-2.0871560000000002,-0.80223,0.154419,0.675049,0.358383
851,8.51,0.099027,-1.8831950000000002,-0.694551,0.106491,0.7368319999999999,0.29978899999999997
852,8.52,-0.090499,-1.656162,-0.688405,0.06813,0.7964939999999999,0.24758899999999998
853,8.53,-0.176851,-1.425225,-0.650998,0.034042,0.8444209999999999,0.197525
854,8.54,-0.17214100000000002,-1.195501,-0.58296,0.022338999999999998,0.8753200000000001,0.15704300000000002
855,8.55,-0.090448,-1.04728,-0.619584,0.028717000000000003,0.899826,0.129349
856,8.56,0.066331,-0.908317,-0.726202,0.047897,0.904083,0.10697899999999999
857,8.57,0.184526,-0.804876,-0.891266,0.070267,0.890228,0.08673099999999999
858,8.58,0.41978000000000004,-0.709283,-1.087264,0.079849,0.868927,0.068619
859,8.59,0.578838,-0.672606,-1.213062,0.078796,0.843353,0.047318
860,8.6,0.644701,-0.641421,-1.411467,0.06601,0.825256,0.030273
861,8.61,0.597907,-0.460041,-1.500039,0.037247,0.8284450000000001,0.018555000000000002
862,8.62,0.6090800000000001,-0.32768200000000003,-1.500155,0.012740999999999999,0.814606,0.014297
863,8.63,0.595206,-0.166649,-1.506923,-0.003235,0.778381,0.015366
864,8.64,0.611771,-0.04956,-1.402479,-0.0010990000000000006,0.730438,0.021759
865,8.65,0.6919,-0.039758,-1.278783,0.003159,0.681442,0.029205000000000002
866,8.66,0.726902,-0.25094299999999997,-1.178099,-0.0032350000000000005,0.64415,0.026016
867,8.67,0.7606510000000001,-0.534725,-1.177804,-0.035187,0.607941,0.01004
868,8.68,0.878856,-0.745534,-1.1728610000000002,-0.079941,0.544022,-0.017654
869,8.69,0.969324,-0.786172,-1.145276,-0.121475,0.47584499999999996,-0.047485
870,8.7,0.956327,-0.691238,-1.0711979999999999,-0.153442,0.45133999999999996,-0.065598
871,8.71,0.818555,-0.28423400000000004,-1.080272,-0.174744,0.491821,-0.060272000000000006
872,8.72,0.497217,0.252069,-1.060218,-0.204575,0.561066,-0.036835
873,8.73,0.08590499999999998,0.82606,-0.973051,-0.235458,0.628174,-0.0038149999999999994
874,8.74,-0.21514100000000005,1.482278,-0.758518,-0.249313,0.662262,0.03241
875,8.75,-0.492465,2.063431,-0.539148,-0.235458,0.67186,0.054778999999999994
876,8.76,-0.742355,2.399491,-0.45492,-0.194977,0.653748,0.073959
877,8.77,-0.797825,2.3674150000000003,-0.42408100000000004,-0.126801,0.639893,0.078217
878,8.78,-0.6717420000000001,2.070884,-0.6207060000000001,-0.030930000000000003,0.6462859999999999,0.072891
879,8.79,-0.46870200000000006,1.652265,-1.092856,0.083054,0.656937,0.066498
880,8.8,-0.28005,1.2713809999999999,-1.601658,0.185318,0.6803739999999999,0.059036
881,8.81,-0.20360899999999998,0.970642,-2.123224,0.253494,0.7048800000000001,0.050522000000000004
882,8.82,-0.09293799999999999,0.983842,-2.482024,0.267349,0.756012,0.038803
883,8.83,-0.206783,1.259108,-2.610833,0.230057,0.825256,0.029205000000000002
884,8.84,-0.410401,1.9221970000000002,-2.254198,0.10968,0.872116,0.07928500000000001
885,8.85,0.14630499999999996,2.6672,-1.231416,-0.077805,0.866791,0.158112
886,8.86,0.8011,2.885473,0.07277,-0.215225,0.794357,0.227356
887,8.87,1.178,2.673458,1.2705600000000001,-0.243988,0.66333,0.314697
888,8.88,1.186839,2.737289,2.331978,-0.2621,0.5578770000000001,0.43400600000000006
889,8.89,1.553601,2.917593,3.37509,-0.283401,0.526978,0.540543
890,8.9,1.8024200000000001,2.505074,4.019667,-0.241852,0.523788,0.590607
891,8.91,1.314647,1.440051,4.134853,-0.119354,0.64415,0.5671689999999999
892,8.92,0.24295100000000006,0.117568,3.6784510000000004,0.040435999999999986,0.800751,0.486206
893,8.93,-0.8793040000000001,-1.1033549999999999,2.915921,0.194901,0.9275209999999999,0.36903400000000003
894,8.94,-1.55245,-2.286322,2.124549,0.303558,0.9893040000000001,0.240128
895,8.95,-1.7922580000000001,-3.129127,1.424816,0.34829699999999997,1.0031430000000001,0.130417
896,8.96,-1.826998,-3.459488,0.8865209999999999,0.320602,1.021255,0.034531
897,8.97,-1.506566,-3.2263349999999997,0.356709,0.21621700000000002,1.043625,-0.036835
898,8.98,-0.923833,-2.479896,-0.129719,0.06175199999999999,1.013809,-0.080505
899,8.99,-0.31435,-1.619348,-0.406949,-0.10975599999999999,0.914734,-0.098618
900,9.0,0.330835,-0.559398,-0.36854899999999996,-0.258896,0.779449,-0.095428
901,9.01,0.8740530000000001,0.510391,-0.045868999999999986,-0.34944200000000003,0.656937,-0.080505
902,9.02,1.2444600000000001,1.4523709999999999,0.438906,-0.367554,0.573853,-0.059204
903,9.03,1.61903,2.1148860000000003,0.8982120000000001,-0.323883,0.531235,-0.070923
904,9.04,1.54646,2.365673,1.241538,-0.22055100000000002,0.49821499999999996,-0.122055
905,9.05,1.032664,2.0954029999999997,1.481196,-0.078873,0.46519499999999997,-0.183838
906,9.06,0.463471,1.580759,1.296345,0.080917,0.42257700000000004,-0.23496999999999998
907,9.07,-0.177066,0.8740610000000001,0.990592,0.223663,0.369324,-0.282913
908,9.08,-0.8210459999999999,0.06629499999999999,0.662733,0.333389,0.332031,-0.315933
909,9.09,-1.305923,-0.9396760000000001,0.334047,0.381332,0.294754,-0.33618200000000004
910,9.1,-1.544042,-1.854698,0.016544000000000003,0.38345300000000004,0.262787,-0.33618200000000004
911,9.11,-1.614714,-2.455346,-0.23435100000000003,0.34936500000000004,0.250015,-0.334045
912,9.12,-1.5459559999999999,-2.910866,-0.440504,0.286514,0.23829699999999998,-0.315933
913,9.13,-1.314778,-3.1138310000000002,-0.6810470000000001,0.21087600000000004,0.22657800000000003,-0.285034
914,9.14,-0.9472659999999999,-3.0156240000000003,-0.86434,0.11714200000000001,0.186096,-0.248825
915,9.15,-0.611062,-2.781075,-1.003483,0.009552000000000005,0.143478,-0.21048000000000003
916,9.16,-0.24646500000000002,-2.372947,-0.913608,-0.085266,0.085953,-0.178513
917,9.17,0.027456999999999995,-1.8902459999999999,-0.7337779999999999,-0.156631,0.018844999999999997,-0.14975
918,9.18,0.25801599999999997,-1.413694,-0.5835670000000001,-0.196045,-0.049332,-0.13058499999999998
919,9.19,0.389214,-0.96851,-0.45483599999999996,-0.198181,-0.120697,-0.113541
920,9.2,0.444582,-0.644835,-0.432774,-0.171539,-0.184616,-0.100754
921,9.21,0.374312,-0.49426099999999995,-0.500907,-0.125748,-0.24639899999999998,-0.098618
922,9.22,0.222996,-0.508854,-0.686551,-0.07034299999999999,-0.292206,-0.08796699999999999
923,9.23,0.028952000000000006,-0.516548,-0.928494,-0.024536,-0.33056599999999997,-0.069855
924,9.24,-0.243916,-0.548203,-1.128168,0.008484,-0.36038200000000004,-0.046417
925,9.25,-0.479592,-0.5444180000000001,-1.297817,0.034042,-0.388092,-0.020859
926,9.26,-0.671373,-0.517266,-1.4367,0.063873,-0.420044,-0.0006099999999999994
927,9.27,-0.8232860000000001,-0.418979,-1.5456590000000001,0.088379,-0.449875,0.021759
928,9.28,-0.9365450000000001,-0.19659200000000002,-1.607077,0.11393699999999998,-0.45945699999999995,0.040924
929,9.29,-0.9607450000000001,0.07975599999999998,-1.6615080000000002,0.141647,-0.446671,0.055847
930,9.3,-1.0330219999999999,0.396109,-1.6352799999999998,0.171463,-0.41471899999999995,0.06543
931,9.31,-1.1039219999999998,0.615687,-1.499285,0.193832,-0.36677600000000005,0.075012
932,9.32,-1.244214,0.764484,-1.3182120000000002,0.211945,-0.299667,0.08461
933,9.33,-1.456115,0.805696,-1.2953629999999998,0.23219299999999998,-0.225098,0.089935
934,9.34,-1.537398,0.628973,-1.339818,0.254562,-0.155853,0.089935
935,9.35,-1.495162,0.295425,-1.438235,0.259888,-0.100464,0.069687
936,9.36,-1.248055,-0.011201000000000004,-1.5668959999999998,0.23219299999999998,-0.071701,0.036667
937,9.37,-0.907417,-0.038189999999999995,-1.718014,0.156555,-0.084488,-0.004883000000000002
938,9.38,-0.532899,0.19949,-1.8874520000000001,0.050033999999999995,-0.138809,-0.036835
939,9.39,-0.159459,0.7575729999999999,-2.046129,-0.06715399999999999,-0.20486500000000002,-0.053878999999999996
940,9.4,0.20623000000000002,1.4701520000000001,-2.006007,-0.1577,-0.277298,-0.046417
941,9.41,0.363919,2.139894,-1.829123,-0.185394,-0.339081,-0.028319999999999998
942,9.42,0.29489099999999996,2.622405,-1.537987,-0.145981,-0.385956,-0.008072
943,9.43,0.041343999999999985,2.884814,-1.324275,-0.049042,-0.42430100000000004,0.008971999999999999
944,9.44,-0.267361,2.8405650000000002,-1.3259889999999999,0.06280500000000001,-0.449875,0.022827
945,9.45,-0.63613,2.565747,-1.474475,0.16507,-0.47757,0.029205000000000002
946,9.46,-0.9850780000000001,2.176747,-1.7461509999999998,0.23858600000000002,-0.525497,0.038803
947,9.47,-0.894776,1.918134,-1.877443,0.248169,-0.617111,0.044128
948,9.48,-0.254917,2.258073,-1.786598,0.157623,-0.735367,0.014297
949,9.49,-0.084598,2.586358,-0.848915,-0.004303,-0.735367,0.006836
950,9.5,-0.690804,2.551341,0.436237,-0.09059099999999999,-0.546814,0.038803
951,9.51,-1.499284,2.0560259999999997,1.4440620000000002,-0.08845499999999999,-0.289017,0.024947999999999998
952,9.52,-2.216704,1.2177790000000002,2.434614,-0.10656700000000001,-0.096207,-0.049622
953,9.53,-2.195242,0.24124100000000004,3.5474410000000005,-0.215225,0.013519000000000005,-0.154007
954,9.54,-1.8818400000000002,-0.5892350000000001,4.294219,-0.334534,0.07104500000000001,-0.25308200000000003
955,9.55,-1.053415,-0.994418,4.270176,-0.355835,0.069977,-0.32871999999999996
956,9.56,0.10105699999999997,-1.202015,3.473446,-0.258896,0.018844999999999997,-0.376648
957,9.57,1.0121930000000001,-1.1748049999999999,2.308953,-0.11402899999999999,-0.021637,-0.36174
958,9.58,2.245564,-0.8019149999999999,1.273642,-0.014954000000000004,0.011382999999999999,-0.27970900000000004
959,9.59,3.541129,-0.6872560000000001,0.9641850000000001,-0.007492,0.026306,-0.196625
960,9.6,4.017623,-0.550798,1.302869,-0.031998,-0.014175,-0.12631199999999998
961,9.61,3.806969,-0.258823,1.6879380000000002,-0.054367,-0.098328,-0.051743
962,9.62,2.9117439999999997,0.236675,1.727757,-0.076736,-0.185684,0.035599
963,9.63,1.0844040000000001,0.886668,1.2447780000000002,-0.10656700000000001,-0.24639899999999998,0.162369
964,9.64,-0.21588099999999996,1.044482,0.893891,-0.100174,-0.216583,0.219894
965,9.65,-1.1867020000000001,1.019495,0.723905,-0.073547,-0.16331500000000002,0.253983
966,9.66,-1.7242560000000002,0.870041,0.726405,-0.016022,-0.10899400000000001,0.281677
967,9.67,-1.858609,0.492547,0.833766,0.070267,-0.046143,0.298721
968,9.68,-1.8223490000000002,0.008965999999999974,0.7662260000000001,0.176788,0.015656,0.307251
969,9.69,-1.4969629999999998,-0.610842,0.43843000000000004,0.272675,0.083832,0.307251
970,9.7,-0.909075,-1.271833,-0.026254000000000027,0.317413,0.127502,0.30404699999999996
971,9.71,-0.233767,-1.786189,-0.487083,0.326996,0.15945399999999998,0.298721
972,9.72,0.397336,-2.2534549999999998,-0.937306,0.309952,0.161591,0.297653
973,9.73,0.9905139999999999,-2.552207,-1.2219959999999999,0.273727,0.15945399999999998,0.293396
974,9.74,1.453578,-2.691529,-1.372953,0.228989,0.152008,0.289139
975,9.75,1.86274,-2.570271,-1.479208,0.182114,0.149872,0.278488
976,9.76,1.9540509999999998,-2.296365,-1.465975,0.144836,0.143478,0.24333200000000002
977,9.77,1.6868150000000002,-1.94623,-1.344584,0.10968,0.15626500000000002,0.19859300000000002
978,9.78,1.313099,-1.692048,-1.157606,0.069199,0.190353,0.15704300000000002
979,9.79,0.8679610000000001,-1.432057,-0.922977,0.023392,0.22551,0.11123699999999999
980,9.8,0.47902799999999995,-1.2873569999999999,-0.664536,-0.028808999999999998,0.261719,0.073959
981,9.81,0.130865,-1.188016,-0.519492,-0.055435000000000005,0.292618,0.039871
982,9.82,-0.080451,-1.080147,-0.43609799999999993,-0.047974,0.320312,0.013229
983,9.83,-0.222546,-1.087156,-0.539967,-0.019211000000000002,0.330963,-0.008072
984,9.84,-0.30086399999999996,-1.063736,-0.829659,0.012740999999999999,0.338425,-0.025116
985,9.85,-0.405389,-1.054545,-1.10533,0.028717000000000003,0.355469,-0.036835
986,9.86,-0.431547,-0.965816,-1.326576,0.015944999999999997,0.388489,-0.034698
987,9.87,-0.46115,-0.7603300000000001,-1.504204,-0.016022,0.44068900000000005,-0.033645999999999995
988,9.88,-0.383594,-0.500961,-1.548394,-0.05223099999999999,0.49821499999999996,-0.031508999999999995
989,9.89,-0.268577,-0.29902399999999996,-1.551847,-0.086319,0.546158,-0.036835
990,9.9,-0.100732,-0.21598699999999998,-1.486797,-0.117218,0.581299,-0.048553
991,9.91,0.15245,-0.31436,-1.4679209999999998,-0.140656,0.589828,-0.052811000000000004
992,9.92,0.48026800000000003,-0.490997,-1.401623,-0.155563,0.575974,-0.05069
993,9.93,0.9440129999999999,-0.616354,-1.346734,-0.151306,0.553604,-0.048553
994,9.94,1.2411860000000001,-0.590427,-1.39412,-0.137451,0.534439,-0.044295999999999995
995,9.95,1.393202,-0.337617,-1.425291,-0.13000499999999998,0.523788,-0.026184
996,9.96,1.353634,-0.038682,-1.344444,-0.138519,0.533371,-0.008072
997,9.97,1.109292,0.362057,-1.1593,-0.15983599999999998,0.550415,0.006835999999999999
998,9.98,0.735252,0.750384,-0.8932450000000001,-0.189651,0.571716,0.011108
999,9.99,0.3748480000000001,1.04539,-0.5762079999999999,-0.235458,0.580246,0.021759
1000,10.0,0.13439600000000002,1.242486,-0.198876,-0.267426,0.600479,0.036667
1001,10.01,0.056548,1.446183,-0.0026179999999999953,-0.279144,0.631378,0.05796799999999999
1002,10.02,-0.028919000000000007,1.6138620000000001,0.011178,-0.245056,0.6356350000000001,0.07928500000000001
1003,10.03,0.116569,1.799626,-0.195232,-0.165161,0.631378,0.09738200000000001
1004,10.04,0.363692,2.049186,-0.7526600000000001,-0.05011,0.595154,0.095261
1005,10.05,0.46587399999999995,2.206947,-1.306942,0.05215499999999999,0.551483,0.07928500000000001
1006,10.06,0.673673,2.411607,-1.6499110000000001,0.12460299999999999,0.553604,0.066498
1007,10.07,0.492022,2.7965709999999997,-1.602394,0.158691,0.602615,0.047318
1008,10.08,0.5270729999999999,3.690989,-1.337349,0.089447,0.64415,0.078217
1009,10.09,1.3808280000000002,4.261948,-0.382676,-0.054367,0.591965,0.133606
1010,10.1,2.124514,3.676051,0.8690119999999999,-0.104431,0.481171,0.200714
1011,10.11,2.2119999999999997,2.9185630000000002,1.585058,-0.071411,0.378906,0.301926
1012,10.12,2.4430400000000003,2.5791470000000003,2.655482,-0.128937,0.22230500000000003,0.501129
1013,10.13,2.53139,2.067771,3.119784,-0.167282,0.134964,0.602325
1014,10.14,2.214154,0.92985,3.083981,-0.111893,0.148804,0.626831
1015,10.15,1.1098860000000002,-0.443072,2.7264909999999998,0.015944999999999997,0.235092,0.5874020000000001
1016,10.16,-0.2676950000000001,-1.689277,2.169316,0.176788,0.34481799999999996,0.495804
1017,10.17,-1.478624,-2.753567,1.470543,0.308884,0.356537,0.372223
1018,10.18,-2.340536,-3.520853,0.970475,0.341904,0.350143,0.240128
1019,10.19,-2.611487,-3.6412989999999996,0.765872,0.262009,0.378906,0.11976600000000001
1020,10.2,-2.595538,-2.90605,0.562825,0.08198500000000003,0.434296,0.020691
1021,10.21,-2.0746330000000004,-1.7999610000000001,0.305048,-0.131073,0.452408,-0.037903
1022,10.22,-1.094684,-0.704936,0.172505,-0.320679,0.394882,-0.067734
1023,10.23,0.14475299999999994,0.434913,0.174017,-0.438934,0.281967,-0.071991
1024,10.24,1.2870709999999999,1.535607,0.595963,-0.480469,0.18077100000000002,-0.074112
1025,10.25,1.8483779999999999,2.357398,1.129622,-0.438934,0.13176,-0.082642
1026,10.26,2.2820099999999996,2.8344810000000003,1.542999,-0.331329,0.14240999999999998,-0.123123
1027,10.27,2.134415,2.429311,1.702855,-0.175812,0.14773599999999998,-0.217926
1028,10.28,1.614786,1.610852,1.556181,0.018066,0.116852,-0.29995700000000003
1029,10.29,0.907999,0.781718,1.154069,0.199173,0.084885,-0.362808
1030,10.3,-0.020112999999999992,0.021955,0.636979,0.31953400000000004,0.054001,-0.41713
1031,10.31,-0.806732,-0.8975790000000001,0.14045399999999994,0.38771100000000003,0.018844999999999997,-0.450165
1032,10.32,-1.3833090000000001,-1.861768,-0.22765800000000005,0.403702,-0.003524999999999999,-0.46720900000000004
1033,10.33,-1.834281,-2.526122,-0.53147,0.388779,-0.00885,-0.470398
1034,10.34,-2.064676,-2.961795,-0.769358,0.34829699999999997,0.005004999999999999,-0.451218
1035,10.35,-2.1029560000000003,-3.111669,-0.9196770000000001,0.285446,0.015656,-0.426727
1036,10.36,-1.917518,-3.0802680000000002,-0.997531,0.213013,0.016708,-0.388367
1037,10.37,-1.439702,-2.891623,-1.0276530000000001,0.12779200000000002,-0.004593,-0.332977
1038,10.38,-0.996117,-2.587929,-1.058927,0.031920999999999984,-0.048264,-0.261612
1039,10.39,-0.56291,-2.2374509999999996,-0.9103870000000001,-0.066086,-0.099396,-0.191299
1040,10.4,-0.215666,-1.751367,-0.678845,-0.127869,-0.155853,-0.138031
1041,10.41,0.002974000000000005,-1.201901,-0.519404,-0.147049,-0.22084,-0.108215
1042,10.42,0.171307,-0.480926,-0.43935799999999997,-0.089523,-0.29541,-0.099686
1043,10.43,0.261318,-0.22530799999999998,-0.559679,-0.018143,-0.30499299999999996,-0.101822
1044,10.44,0.234242,-0.107375,-0.767422,0.054290999999999985,-0.302872,-0.112473
1045,10.45,0.110729,-0.033206,-0.9883139999999999,0.105423,-0.301804,-0.117798
1046,10.46,-0.119447,-0.055608000000000005,-1.1926780000000001,0.144836,-0.310318,-0.109268
1047,10.47,-0.293673,-0.052475,-1.347348,0.195969,-0.31352199999999997,-0.08583099999999999
1048,10.48,-0.373271,-0.0027410000000000004,-1.4857790000000002,0.26414499999999996,-0.301804,-0.053878999999999996
1049,10.49,-0.348436,-0.060777,-1.519808,0.34829699999999997,-0.306061,-0.018723
1050,10.5,-0.27277399999999996,-0.17788000000000004,-1.42759,0.41861000000000004,-0.32310500000000003,0.004715
1051,10.51,-0.378452,-0.316799,-1.358897,0.456955,-0.33696,0.021759
1052,10.52,-0.715575,-0.521523,-1.255484,0.44737200000000005,-0.308197,0.038803
1053,10.53,-1.118671,-0.789292,-1.249765,0.393036,-0.242142,0.047318
1054,10.54,-1.3389149999999999,-1.083583,-1.408221,0.308884,-0.19633499999999998,0.055847
1055,10.55,-1.2127860000000001,-1.281657,-1.5672620000000002,0.20982399999999998,-0.21444699999999997,0.06329299999999999
1056,10.56,-0.882249,-1.1124290000000001,-1.780427,0.100098,-0.294342,0.075012
1057,10.57,-0.399569,-0.517512,-1.971618,-0.022415000000000004,-0.39447,0.089935
1058,10.58,0.13277899999999998,0.38904099999999997,-2.04228,-0.137451,-0.503128,0.108047
1059,10.59,0.538837,1.4475879999999999,-1.864536,-0.204575,-0.600067,0.12402300000000001
1060,10.6,0.670955,2.528315,-1.476399,-0.200302,-0.67038,0.137863
1061,10.61,0.510097,3.413616,-0.986564,-0.125748,-0.6874239999999999,0.12081900000000001
1062,10.62,0.17815,3.787546,-0.580533,-0.0021670000000000023,-0.643753,0.067566
1063,10.63,-0.25700700000000004,3.6617010000000003,-0.380322,0.130981,-0.561722,-0.017654000000000006
1064,10.64,-0.931942,3.0600810000000003,-0.582733,0.267349,-0.48822,-0.095428
1065,10.65,-1.471981,2.243796,-1.1124530000000001,0.36640900000000004,-0.467987,-0.138031
1066,10.66,-1.4709219999999998,1.800862,-1.484685,0.360016,-0.5244449999999999,-0.157211
1067,10.67,-1.042841,2.133355,-1.402377,0.20768699999999998,-0.6245729999999999,-0.17639200000000002
1068,10.68,-0.917963,2.664761,-0.3855210000000001,-0.025604,-0.6064609999999999,-0.146561
1069,10.69,-1.213185,2.720598,0.9327709999999999,-0.14917,-0.41685500000000003,-0.080505
1070,10.7,-1.727137,2.377907,2.056769,-0.171539,-0.162247,-0.08796699999999999
1071,10.71,-2.257643,1.9165919999999999,2.994381,-0.233337,0.039093,-0.158279
1072,10.72,-2.204129,1.171786,4.088781,-0.345184,0.173309,-0.231781
1073,10.73,-1.6742599999999999,0.396688,4.7300510000000004,-0.399506,0.22230500000000003,-0.311676
1074,10.74,-0.9887549999999999,-0.215015,4.102327,-0.327072,0.20314000000000002,-0.368134
1075,10.75,-0.034434999999999986,-0.754153,2.8544389999999997,-0.183258,0.091278,-0.362808
1076,10.76,1.47656,-1.177662,1.5471190000000001,-0.05223099999999999,-0.056793,-0.285034
1077,10.77,3.3859339999999998,-1.6612900000000002,0.725064,0.021271,-0.120697,-0.192368
1078,10.78,4.95983,-1.858909,0.427274,0.022338999999999998,-0.192078,-0.122055
1079,10.79,5.3839239999999995,-1.7300830000000003,0.5945,-0.05011,-0.331619,-0.076248
1080,10.8,4.907611,-1.087839,0.951626,-0.155563,-0.467987,-0.029373000000000003
1081,10.81,3.911604,-0.271022,1.098614,-0.252502,-0.58197,0.014297000000000002
1082,10.82,2.60374,0.533179,1.0979780000000001,-0.314285,-0.6245729999999999,0.064362
1083,10.83,1.117773,1.0755299999999999,1.122557,-0.335602,-0.590485,0.093124
1084,10.84,-0.327683,1.41879,1.260343,-0.316422,-0.516983,0.110168
1085,10.85,-1.425101,1.4647620000000001,1.4685,-0.263153,-0.46052600000000005,0.12721300000000002
1086,10.86,-1.971834,1.263676,1.589001,-0.163025,-0.42536899999999994,0.176224
1087,10.87,-2.065433,0.846117,1.447578,-0.012816999999999995,-0.38914499999999996,0.228409
1088,10.88,-1.900089,0.321757,0.968115,0.136322,-0.341217,0.272095
1089,10.89,-1.3230520000000001,-0.285227,0.30751100000000003,0.24177600000000002,-0.292206,0.30404699999999996
1090,10.9,-0.529963,-0.9950549999999999,-0.32774200000000003,0.296112,-0.263443,0.316833
1091,10.91,0.257133,-1.635894,-0.898194,0.315277,-0.250671,0.313644
1092,10.92,0.9643709999999999,-2.13449,-1.291823,0.306763,-0.252792,0.298721
1093,10.93,1.4874120000000002,-2.5250340000000002,-1.5590629999999999,0.284393,-0.274109,0.272095
1094,10.94,1.753736,-2.771086,-1.623541,0.24177600000000002,-0.315643,0.24226399999999998
1095,10.95,1.7563,-2.69915,-1.578906,0.197037,-0.333755,0.219894
1096,10.96,1.5760299999999998,-2.330351,-1.470048,0.154419,-0.320969,0.188995
1097,10.97,1.125137,-2.032286,-1.348546,0.10116599999999999,-0.274109,0.143188
1098,10.98,0.657296,-1.7383400000000002,-1.203083,0.037247,-0.22190900000000002,0.099518
1099,10.99,0.180277,-1.383418,-0.938292,-0.023468,-0.156921,0.056915
1100,11.0,-0.126521,-1.059999,-0.704266,-0.057555999999999996,-0.096207,0.012160999999999998
1101,11.01,-0.347974,-0.754794,-0.410234,-0.05223099999999999,-0.055725,-0.025116
1102,11.02,-0.441163,-0.50438,-0.283366,-0.004303,-0.04187,-0.053878999999999996
1103,11.03,-0.38377100000000003,-0.378295,-0.288925,0.06813,-0.049332,-0.07518
1104,11.04,-0.238195,-0.38883,-0.373723,0.143768,-0.04187,-0.082642
1105,11.05,-0.10154400000000001,-0.497796,-0.544728,0.204498,-0.004593,-0.096497
1106,11.06,0.031911000000000016,-0.5761970000000001,-0.794305,0.25242600000000004,0.046539,-0.10607899999999999
1107,11.07,0.08064199999999999,-0.609033,-1.0760100000000001,0.28865100000000005,0.10513299999999999,-0.122055
1108,11.08,0.074647,-0.6988949999999999,-1.271159,0.309952,0.14773599999999998,-0.13591
1109,11.09,0.048973,-0.749743,-1.3851,0.315277,0.178635,-0.141235
1110,11.1,0.072788,-0.752007,-1.394231,0.321671,0.202072,-0.12419100000000001
1111,11.11,0.130184,-0.737265,-1.3253409999999999,0.316345,0.22657800000000003,-0.097549
1112,11.12,0.286117,-0.7993140000000001,-1.299803,0.31101999999999996,0.252136,-0.079453
1113,11.13,0.347783,-0.908062,-1.3199049999999999,0.29184,0.267059,-0.068787
1114,11.14,0.408028,-0.9394450000000001,-1.2747870000000001,0.25135799999999997,0.275574,-0.067734
1115,11.15,0.525058,-0.801347,-1.313043,0.178925,0.299011,-0.067734
1116,11.16,0.616951,-0.5501,-1.302023,0.089447,0.330963,-0.065598
1117,11.17,0.575767,-0.05096699999999999,-1.300714,0.0042270000000000025,0.37251300000000004,-0.051743
1118,11.18,0.5938640000000001,0.597835,-1.279175,-0.061828999999999995,0.449219,-0.033645999999999995
1119,11.19,0.6043930000000001,1.213442,-1.173039,-0.104431,0.501404,-0.00914
1120,11.2,0.697059,1.802829,-0.9784649999999999,-0.11828599999999999,0.505676,0.015366
1121,11.21,0.807471,2.2145080000000004,-0.7498630000000001,-0.10656700000000001,0.490753,0.035599
1122,11.22,0.752287,2.355813,-0.682016,-0.055435000000000005,0.49821499999999996,0.059036
1123,11.23,0.6912119999999999,2.308992,-0.8930110000000001,0.012741,0.53656,0.075012
1124,11.24,0.464884,2.009995,-1.242687,0.072403,0.5887600000000001,0.068619
1125,11.25,0.037985999999999985,1.691456,-1.570514,0.102234,0.6516109999999999,0.046249
1126,11.26,-0.307406,1.537293,-1.702018,0.09902999999999999,0.747482,0.03241
1127,11.27,-0.718875,1.7178950000000002,-1.49858,0.063873,0.85614,0.022827
1128,11.28,-0.983339,2.401035,-1.0440479999999999,-0.046906,0.898758,0.064362
1129,11.29,0.04675399999999996,3.018774,-0.010519999999999974,-0.194977,0.846558,0.14213599999999998
1130,11.3,1.78177,2.176232,1.605246,-0.210968,0.676117,0.271027
1131,11.31,1.972807,1.486071,2.6182849999999998,-0.202438,0.59729,0.390335
1132,11.32,2.12575,1.139342,3.623514,-0.296188,0.609009,0.529892
1133,11.33,2.202699,0.6432760000000001,4.1962019999999995,-0.371811,0.6462859999999999,0.632156
1134,11.34,1.8306799999999999,-0.09002199999999999,4.125937,-0.323883,0.714462,0.655594
1135,11.35,0.989124,-0.9773940000000001,3.241909,-0.153442,0.7357640000000001,0.6108399999999999
1136,11.36,-0.08214400000000001,-1.594597,1.907404,0.053223000000000006,0.7112729999999999,0.5224300000000001
1137,11.37,-0.938552,-2.036677,0.8219780000000001,0.205551,0.63031,0.392471
1138,11.38,-1.637772,-2.128063,0.36330500000000004,0.228989,0.5525359999999999,0.24865700000000002
1139,11.39,-2.0646869999999997,-1.62778,0.26014899999999996,0.091568,0.54509,0.118698
1140,11.4,-2.052753,-0.527583,0.35338600000000003,-0.14491300000000001,0.53656,0.024948
1141,11.41,-1.645329,0.606575,0.366178,-0.389923,0.52272,-0.041092000000000004
1142,11.42,-0.7045,1.660391,0.511303,-0.5731510000000001,0.46626300000000004,-0.08371
1143,11.43,0.4513499999999999,2.4749209999999997,0.937084,-0.643463,0.407669,-0.102875
1144,11.44,1.5204540000000002,2.961255,1.448428,-0.5891270000000001,0.404465,-0.113541
1145,11.45,1.9703830000000002,3.202289,1.699976,-0.44426000000000004,0.447083,-0.14975
1146,11.46,1.985639,2.810077,1.6550189999999998,-0.241852,0.46198999999999996,-0.21048000000000003
1147,11.47,1.8163599999999998,1.989711,1.397691,-0.014953999999999997,0.403412,-0.28930700000000004
1148,11.48,1.5265229999999999,1.1326399999999999,0.8579600000000001,0.175735,0.306473,-0.37027
1149,11.49,0.713808,0.15044299999999994,0.418554,0.320602,0.198883,-0.43631000000000003
1150,11.5,-0.06280200000000002,-0.706286,-0.10105,0.410095,0.132828,-0.46720900000000004
1151,11.51,-0.74429,-1.7233310000000002,-0.603966,0.44737200000000005,0.092346,-0.491699
1152,11.52,-1.215012,-2.471447,-1.059074,0.422867,0.062515,-0.507675
1153,11.53,-1.6441849999999998,-3.1865259999999997,-1.331101,0.362152,0.028426999999999997,-0.503418
1154,11.54,-1.897407,-3.6268239999999996,-1.474145,0.283325,-0.025894,-0.458679
1155,11.55,-1.8304060000000002,-3.865093,-1.489456,0.178925,-0.073837,-0.393692
1156,11.56,-1.658561,-3.800075,-1.333826,0.061752,-0.123901,-0.313797
1157,11.57,-1.3870120000000001,-3.544943,-1.141657,-0.054367000000000006,-0.162247,-0.23284899999999997
1158,11.58,-1.029226,-2.9594139999999998,-0.928566,-0.154495,-0.194214,-0.151886
1159,11.59,-0.7248859999999999,-2.2473419999999997,-0.724495,-0.228012,-0.21019000000000002,-0.08796699999999999
1160,11.6,-0.43436199999999997,-1.446627,-0.536408,-0.256775,-0.215515,-0.054947
1161,11.61,-0.217292,-0.672531,-0.49466099999999996,-0.23759499999999997,-0.225098,-0.046417
1162,11.62,-0.153101,-0.13421800000000006,-0.39253899999999997,-0.175812,-0.225098,-0.049622
1163,11.63,-0.145765,0.137977,-0.338982,-0.089523,-0.215515,-0.054947
1164,11.64,-0.20777600000000002,0.201567,-0.316044,0.020203,-0.208054,-0.058136
1165,11.65,-0.242081,0.134148,-0.43539700000000003,0.12886,-0.21337899999999999,-0.05069
1166,11.66,-0.33088,-0.0057949999999999955,-0.693094,0.22154200000000002,-0.22723400000000002,-0.036835
1167,11.67,-0.350948,-0.23667600000000003,-1.048511,0.289719,-0.24960300000000002,-0.008072
1168,11.68,-0.323177,-0.461161,-1.3842430000000001,0.33552600000000005,-0.28369099999999997,0.03241
1169,11.69,-0.113923,-0.6846909999999999,-1.422374,0.34936500000000004,-0.296478,0.073959
1170,11.7,-0.11313499999999999,-0.706627,-1.369464,0.33657800000000004,-0.301804,0.10697899999999999
1171,11.71,-0.151923,-0.708803,-1.2651709999999998,0.305695,-0.289017,0.13681
1172,11.72,-0.293898,-0.676926,-1.140207,0.275864,-0.282623,0.14213599999999998
1173,11.73,-0.376247,-0.653619,-1.187139,0.249237,-0.28369099999999997,0.141068
1174,11.74,-0.409027,-0.716619,-1.196601,0.230057,-0.293274,0.138931
1175,11.75,-0.273452,-0.675621,-1.215078,0.199173,-0.31352199999999997,0.137863
1176,11.76,-0.19023900000000002,-0.621965,-1.3173549999999998,0.138443,-0.335892,0.135742
1177,11.77,-0.005084000000000004,-0.418433,-1.2323709999999999,0.036179,-0.34333800000000003,0.133606
1178,11.78,0.10151,-0.013715999999999978,-1.240936,-0.077805,-0.39021300000000003,0.118698
1179,11.79,0.044079,0.66551,-1.180696,-0.16835,-0.480759,0.10272200000000001
1180,11.8,-0.08051900000000001,1.559439,-1.051283,-0.206696,-0.542542,0.09845
1181,11.81,-0.24308000000000002,2.427114,-0.8329129999999999,-0.185394,-0.560654,0.08461
1182,11.82,-0.37446799999999997,2.967339,-0.525241,-0.117218,-0.5489350000000001,0.060104
1183,11.83,-0.5982390000000001,3.081075,-0.201316,0.0042270000000000025,-0.504196,0.019622999999999998
1184,11.84,-0.825917,2.874745,-0.23910700000000001,0.130981,-0.44773900000000005,-0.02298
1185,11.85,-0.8018149999999999,2.691578,-0.41756899999999997,0.200226,-0.43815600000000005,-0.057067999999999994
1186,11.86,-0.60145,2.744226,-0.483388,0.173599,-0.4552,-0.09436
1187,11.87,-0.5035470000000001,3.154127,-0.1808,0.050034,-0.404068,-0.112473
1188,11.88,-0.80755,3.564953,0.5360050000000001,-0.110825,-0.23149099999999997,-0.139099
1189,11.89,-1.434481,3.6947360000000002,1.596458,-0.268478,0.009261999999999992,-0.222198
1190,11.9,-2.1881060000000003,3.5147370000000002,2.8923099999999997,-0.404846,0.223373,-0.35215799999999997
1191,11.91,-2.751764,2.867482,4.220251,-0.46875,0.346954,-0.46293599999999996
1192,11.92,-2.3321810000000003,1.8239599999999998,4.547318,-0.400574,0.384232,-0.482117
1193,11.93,-1.384428,0.577372,3.728508,-0.22374000000000002,0.330963,-0.44163500000000006
1194,11.94,-0.306601,-0.957314,2.4701,-0.028808999999999998,0.202072,-0.338303
1195,11.95,1.3138449999999997,-2.382575,1.2373379999999998,0.1427,0.008193999999999993,-0.16893
1196,11.96,3.083886,-3.23293,0.05715899999999996,0.223663,-0.160126,0.0004430000000000128
1197,11.97,4.218157,-3.5957199999999996,-0.641333,0.17040999999999998,-0.273041,0.114426
1198,11.98,4.262676,-3.3567370000000003,-0.8009850000000001,0.006348000000000006,-0.342285,0.161301
1199,11.99,3.5419300000000002,-2.534395,-0.752664,-0.21629299999999999,-0.41365100000000005,0.158112
1200,12.0,2.642216,-1.349091,-0.491932,-0.44212299999999993,-0.47757,0.13253800000000002
1201,12.01,1.6562740000000002,-0.115213,0.15606799999999998,-0.617889,-0.489288,0.095261
1202,12.02,0.6739390000000001,1.080022,0.8836139999999999,-0.702042,-0.43495200000000006,0.066498
1203,12.03,-0.154455,1.864209,1.583699,-0.6828770000000001,-0.36145,0.060104
1204,12.04,-0.760209,2.229882,2.0121189999999998,-0.559296,-0.301804,0.082474
1205,12.05,-1.090176,2.184416,2.206224,-0.364365,-0.257065,0.141068
1206,12.06,-1.105175,1.846989,1.980331,-0.119354,-0.235748,0.206039
1207,12.07,-0.871755,1.276123,1.444237,0.11181600000000001,-0.23468000000000003,0.261444
1208,12.08,-0.29985300000000004,0.527623,0.7458130000000001,0.290771,-0.222977,0.297653
1209,12.09,0.211573,-0.34579299999999996,-0.03085300000000002,0.381332,-0.22084,0.308304
1210,12.1,0.6644220000000001,-1.279587,-0.68776,0.402634,-0.22190900000000002,0.30404699999999996
1211,12.11,1.082196,-2.193036,-1.248148,0.364288,-0.228302,0.28274499999999997
1212,12.12,1.4001780000000001,-2.969723,-1.625126,0.300369,-0.26771500000000004,0.271027
1213,12.13,1.4904870000000001,-3.388139,-1.8801900000000002,0.21621700000000002,-0.296478,0.25717199999999996
1214,12.14,1.455264,-3.524864,-1.929497,0.12353499999999999,-0.333755,0.24545300000000003
1215,12.15,1.31487,-3.2749099999999998,-1.831173,0.026595999999999998,-0.34333800000000003,0.229477
1216,12.16,1.0907200000000001,-2.7862400000000003,-1.639804,-0.075668,-0.299667,0.19966099999999998
1217,12.17,0.721456,-2.213547,-1.352288,-0.175812,-0.235748,0.16450499999999998
1218,12.18,0.286247,-1.5354,-1.059044,-0.253571,-0.171829,0.11976600000000001
1219,12.19,0.05512800000000001,-0.864908,-0.736831,-0.28447,-0.128159,0.08140599999999999
1220,12.2,-0.07948,-0.228671,-0.513841,-0.267426,-0.097275,0.038803
1221,12.21,-0.086146,0.263909,-0.464851,-0.203506,-0.09407,0.0015109999999999985
1222,12.22,0.11051800000000002,0.566443,-0.539118,-0.103363,-0.087677,-0.036835
1223,12.23,0.316648,0.6109180000000001,-0.796193,0.006348,-0.077026,-0.077316
1224,12.24,0.599705,0.404839,-1.070666,0.09902999999999999,-0.06105,-0.113541
1225,12.25,0.826889,0.071743,-1.345898,0.164017,-0.045074,-0.1604
1226,12.26,0.9772639999999999,-0.274134,-1.540974,0.20982399999999998,-0.01738,-0.200882
1227,12.27,1.011981,-0.597091,-1.6578439999999999,0.239639,0.011382999999999999,-0.236038
1228,12.28,0.966764,-0.8747659999999999,-1.708948,0.253494,0.033752,-0.269058
1229,12.29,0.901667,-1.218774,-1.7663380000000002,0.259888,0.045471,-0.283981
1230,12.3,0.799679,-1.54205,-1.809076,0.250305,0.054001,-0.285034
1231,12.31,0.717681,-1.9069180000000001,-1.963164,0.21621700000000002,0.063583,-0.27652
1232,12.32,0.6151310000000001,-2.212961,-1.99342,0.153366,0.075302,-0.245621
1233,12.33,0.507404,-2.3086759999999997,-1.9470830000000001,0.051085999999999986,0.112595,-0.19981400000000002
1234,12.34,0.376236,-2.16183,-1.746562,-0.08099400000000001,0.157333,-0.161469
1235,12.35,0.32100100000000004,-1.57923,-1.4770459999999999,-0.22587600000000002,0.21379099999999998,-0.12631199999999998
1236,12.36,0.44559899999999997,-0.589504,-1.241414,-0.359039,0.24041700000000002,-0.09436
1237,12.37,0.6740010000000001,0.664519,-0.8709129999999999,-0.471954,0.22657800000000003,-0.059204
1238,12.38,0.8753059999999999,1.878257,-0.369031,-0.54332,0.232971,-0.024048
1239,12.39,1.100852,2.941866,0.098885,-0.531601,0.265991,-0.0016780000000000009
1240,12.4,1.123504,3.66719,0.449346,-0.433609,0.29794299999999996,-0.001678
1241,12.41,0.955469,4.054118,0.42632,-0.258896,0.307526,-0.011276000000000001
1242,12.42,0.787105,3.953157,0.08177699999999999,-0.05223099999999999,0.32563800000000004,-0.026184
1243,12.43,0.7561939999999999,3.42571,-0.663226,0.146973,0.339493,-0.043227999999999996
1244,12.44,0.541507,2.74212,-1.385363,0.280121,0.369324,-0.051743
1245,12.45,0.137453,2.386721,-1.714588,0.316345,0.47691300000000003,-0.054947
1246,12.46,-0.169756,2.659328,-1.7831759999999999,0.24177600000000002,0.567459,-0.019791
1247,12.47,0.40235,3.352225,-1.339093,0.064941,0.5632020000000001,0.070755
1248,12.48,1.4919930000000001,3.1196669999999997,-0.244614,-0.079941,0.449219,0.14746099999999998
1249,12.49,1.832998,2.379107,0.948795,-0.131073,0.303268,0.224152
1250,12.5,1.9036790000000001,1.8750509999999998,2.30872,-0.21202100000000002,0.218048,0.35199
1251,12.51,2.037702,1.760259,3.715764,-0.331329,0.25853000000000004,0.472366
1252,12.52,1.718809,1.480743,4.4671650000000005,-0.362228,0.332031,0.5533140000000001
1253,12.53,1.098943,0.588325,4.430512,-0.255707,0.390625,0.584213
1254,12.54,0.349565,-0.35820099999999994,3.469007,-0.043716000000000005,0.378906,0.5671689999999999
1255,12.55,-0.3486,-1.2607709999999999,2.0162430000000002,0.189575,0.273438,0.502182
1256,12.56,-0.796243,-2.023211,0.8234530000000001,0.34404,0.113647,0.40631100000000003
1257,12.57,-1.090258,-2.3645869999999998,0.189511,0.32486,0.054001,0.298721
1258,12.58,-1.397022,-2.1224119999999997,0.197434,0.144836,0.138153,0.181549
1259,12.59,-1.395317,-1.351576,0.368003,-0.100174,0.244675,0.07714800000000001
1260,12.6,-0.9482870000000001,-0.509139,0.601561,-0.333466,0.295822,-0.038971
1261,12.61,-0.262875,0.308161,0.754675,-0.48367299999999996,0.283035,-0.14335599999999998
1262,12.62,0.673412,1.074718,1.0593860000000002,-0.5166930000000001,0.23083499999999998,-0.22113000000000002
1263,12.63,1.511221,1.607373,1.2253450000000001,-0.458099,0.160522,-0.27652
1264,12.64,1.945007,2.058907,1.3758700000000001,-0.343048,0.101944,-0.315933
1265,12.65,1.962691,1.773455,1.4554719999999999,-0.198181,0.027373999999999992,-0.344696
1266,12.66,1.784009,1.076889,1.4159700000000002,-0.033066000000000005,-0.07809400000000001,-0.374527
1267,12.67,1.453598,0.3797910000000001,1.252817,0.12886,-0.172897,-0.411804
1268,12.68,0.8463649999999999,-0.433249,0.794551,0.25882,-0.273041,-0.45442200000000005
1269,12.69,0.22986399999999999,-1.166635,0.35548,0.341904,-0.371048,-0.486374
1270,12.7,-0.35291999999999996,-2.048808,-0.06691699999999999,0.36534099999999997,-0.44455,-0.520462
1271,12.71,-0.785875,-2.900573,-0.252542,0.333389,-0.502075,-0.550293
1272,12.72,-1.244004,-3.5200480000000005,-0.316104,0.276932,-0.545746,-0.559875
1273,12.73,-1.4692120000000002,-3.727075,-0.25795999999999997,0.20768699999999998,-0.572372,-0.5439
1274,12.74,-1.5320799999999999,-3.574813,-0.2104,0.150162,-0.60434,-0.505554
1275,12.75,-1.269742,-3.2956440000000002,-0.16827,0.09584,-0.636292,-0.45228599999999997
1276,12.76,-0.90915,-2.806308,-0.172453,0.048964999999999995,-0.674637,-0.378784
1277,12.77,-0.50212,-2.2163060000000003,-0.127278,0.014877000000000001,-0.716187,-0.310608
1278,12.78,-0.156364,-1.533466,-0.009970999999999999,-0.005371000000000001,-0.767319,-0.265869
1279,12.79,0.1443,-1.025519,0.083467,-0.002167,-0.822708,-0.245621
1280,12.8,0.26752600000000004,-0.5341319999999999,0.088849,0.02446,-0.87384,-0.241364
1281,12.81,0.360797,-0.163173,0.012863999999999999,0.078796,-0.9153899999999999,-0.24989299999999998
1282,12.82,0.448772,0.058646000000000004,-0.156381,0.153366,-0.937759,-0.257339
1283,12.83,0.560233,-0.053770000000000005,-0.408504,0.239639,-0.9558719999999999,-0.27012600000000003
1284,12.84,0.706516,-0.34164,-0.600614,0.31208800000000003,-0.9814299999999999,-0.280777
1285,12.85,0.81,-0.674392,-0.756379,0.361084,-1.016586,-0.271194
1286,12.86,0.6986680000000001,-1.0187030000000001,-0.944583,0.38771100000000003,-1.0336299999999998,-0.24029499999999998
1287,12.87,0.290321,-1.144158,-1.088192,0.402634,-1.041092,-0.184906
1288,12.88,-0.15933599999999998,-1.121592,-1.243831,0.398376,-1.0293729999999999,-0.108215
1289,12.89,-0.591899,-1.024567,-1.378409,0.381332,-1.0027469999999998,-0.031508999999999995
1290,12.9,-1.008792,-0.8652129999999999,-1.314791,0.360016,-0.979309,0.031342
1291,12.91,-1.260645,-0.658605,-1.08521,0.342972,-0.972916,0.078217
1292,12.92,-1.461235,-0.435283,-0.8728090000000001,0.32486,-0.9601290000000001,0.112305
1293,12.93,-1.598233,-0.08822499999999997,-0.665146,0.283325,-0.9388280000000001,0.13681
1294,12.94,-1.4479879999999998,0.240845,-0.567108,0.23326100000000002,-0.8994139999999999,0.15278599999999998
1295,12.95,-1.107457,0.428951,-0.648734,0.18318199999999998,-0.875977,0.155975
1296,12.96,-0.638375,0.702177,-0.885857,0.129929,-0.857864,0.14746099999999998
1297,12.97,-0.20353800000000002,1.000536,-1.1737440000000001,0.07772799999999999,-0.838699,0.128281
1298,12.98,0.103572,1.406808,-1.534751,0.046829,-0.826981,0.101654
1299,12.99,0.28221599999999997,1.9113369999999998,-1.9100279999999998,0.04364,-0.786499,0.07608
1300,13.0,0.403832,2.358258,-2.105559,0.055359000000000005,-0.717255,0.044128
1301,13.01,0.09348499999999997,2.600629,-2.2220880000000003,0.063873,-0.62883,-0.013396999999999996
1302,13.02,-0.317762,2.534451,-2.179436,0.070267,-0.5553279999999999,-0.081573
1303,13.03,-0.772649,2.262148,-2.180556,0.070267,-0.498871,-0.145493
1304,13.04,-1.168828,1.988753,-2.254463,0.067078,-0.47224399999999994,-0.180649
1305,13.05,-1.463437,1.6976200000000001,-2.341437,0.059615999999999995,-0.465851,-0.178513
1306,13.06,-1.467078,1.489322,-2.4205490000000003,0.042572000000000006,-0.502075,-0.147629
1307,13.07,-0.8385930000000001,1.5099120000000001,-2.301158,-0.017090000000000004,-0.6117859999999999,-0.093292
1308,13.08,0.345438,2.0589020000000002,-1.7999939999999999,-0.15876800000000002,-0.769455,-0.073059
1309,13.09,1.015509,2.835676,-0.6374390000000001,-0.330276,-0.833359,-0.051743
1310,13.1,1.135864,3.165651,0.9433590000000001,-0.401642,-0.725769,-0.017654000000000003
1311,13.11,0.81557,2.978447,2.137942,-0.351578,-0.557465,-0.041092000000000004
1312,13.12,0.14165899999999992,2.2800860000000003,3.060124,-0.302582,-0.39447,-0.12951700000000002
1313,13.13,-0.302679,1.321182,4.063868,-0.326004,-0.269836,-0.256287
1314,13.14,-0.581099,0.288619,4.7487330000000005,-0.36116,-0.230423,-0.401154
1315,13.15,-0.509486,-0.8376040000000001,4.773398,-0.32495100000000005,-0.28794899999999995,-0.516205
1316,13.16,0.08979100000000001,-1.658664,3.974881,-0.21415700000000001,-0.404068,-0.570526
1317,13.17,0.626861,-2.090243,2.8039419999999997,-0.100174,-0.552139,-0.560944
1318,13.18,1.484158,-2.017321,1.700884,-0.047974,-0.630966,-0.464005
1319,13.19,2.423105,-1.56426,1.0952520000000001,-0.087387,-0.6405489999999999,-0.33511399999999997
1320,13.2,2.8859150000000002,-0.8433360000000001,0.916162,-0.175812,-0.698074,-0.19023099999999998
1321,13.21,2.964932,-0.08809299999999998,1.094737,-0.267426,-0.759857,-0.05494700000000001
1322,13.22,2.544616,0.561722,1.347345,-0.310028,-0.8205870000000001,0.064362
1323,13.23,1.6624869999999998,1.009295,1.434059,-0.29512,-0.842957,0.15704300000000002
1324,13.24,0.539331,1.162391,1.260848,-0.239731,-0.817383,0.206039
1325,13.25,-0.497033,1.155047,0.971932,-0.160889,-0.758804,0.222031
1326,13.26,-1.241958,0.8556590000000001,0.662153,-0.095917,-0.711929,0.21882600000000002
1327,13.27,-1.581958,0.505941,0.42554200000000003,-0.042647999999999985,-0.667191,0.224152
1328,13.28,-1.4990379999999999,-0.12767099999999998,0.28120300000000004,0.025528,-0.627777,0.22521999999999998
1329,13.29,-1.4391479999999999,-0.774945,0.06859599999999999,0.121399,-0.57663,0.215637
1330,13.3,-1.026289,-1.5122659999999999,-0.329424,0.199173,-0.516983,0.216705
1331,13.31,-0.405465,-2.254437,-0.734567,0.239639,-0.486084,0.222031
1332,13.32,0.16401300000000002,-2.815586,-1.0661129999999999,0.24496500000000002,-0.48715200000000003,0.227356
1333,13.33,0.645798,-3.193238,-1.312338,0.22154200000000002,-0.498871,0.25291399999999997
1334,13.34,1.179969,-3.3119940000000003,-1.535986,0.167206,-0.518051,0.28381300000000004
1335,13.35,1.686923,-3.127685,-1.618158,0.11821,-0.546814,0.29232800000000003
1336,13.36,1.8799700000000001,-2.63611,-1.752332,0.087311,-0.574509,0.271027
1337,13.37,1.85254,-2.110284,-1.8710810000000002,0.059615999999999995,-0.583023,0.223083
1338,13.38,1.625063,-1.693605,-1.762134,0.023392,-0.571304,0.158112
1339,13.39,1.2541010000000001,-1.348085,-1.479154,-0.023468,-0.537216,0.085663
1340,13.4,0.857215,-1.089812,-1.124028,-0.058624,-0.475433,0.015365999999999998
1341,13.41,0.359529,-0.8610690000000001,-0.777004,-0.059691999999999995,-0.428558,-0.043227999999999996
1342,13.42,-0.004777000000000004,-0.726746,-0.629273,-0.025604,-0.404068,-0.07518
1343,13.43,-0.17744000000000001,-0.632464,-0.602658,0.027663999999999998,-0.393417,-0.099686
1344,13.44,-0.269063,-0.618346,-0.736821,0.090515,-0.39021300000000003,-0.112473
1345,13.45,-0.336284,-0.74849,-0.89513,0.1427,-0.357193,-0.105011
1346,13.46,-0.263764,-0.859643,-1.138771,0.173599,-0.28369099999999997,-0.093292
1347,13.47,-0.411005,-0.86177,-1.306287,0.17466700000000002,-0.18782000000000001,-0.082642
1348,13.48,-0.6127739999999999,-0.722014,-1.416395,0.154419,-0.065308,-0.069855
1349,13.49,-0.8484799999999999,-0.470355,-1.4292340000000001,0.125656,0.062515,-0.059204
1350,13.5,-1.118565,-0.152794,-1.376067,0.126724,0.171173,-0.051743
1351,13.51,-1.271608,0.181026,-1.350114,0.153366,0.252136,-0.035767
1352,13.52,-1.224436,0.352327,-1.31505,0.193832,0.322449,-0.014465
1353,13.53,-1.060023,0.326123,-1.357479,0.242844,0.381042,0.007904000000000001
1354,13.54,-0.783131,0.099592,-1.362128,0.275864,0.43003800000000003,0.035599
1355,13.55,-0.33413000000000004,0.048137,-1.389749,0.279053,0.47798199999999996,0.070755
1356,13.56,0.20262,0.167659,-1.3603299999999998,0.24496500000000002,0.54509,0.093124
1357,13.57,0.7114659999999999,0.5379470000000001,-1.380784,0.193832,0.601547,0.108047
1358,13.58,1.149044,1.109158,-1.439641,0.11393699999999998,0.652679,0.144257
1359,13.59,1.592582,1.8474810000000002,-1.472265,0.03299,0.69635,0.181549
1360,13.6,1.847725,2.611197,-1.43246,-0.025604,0.7059479999999999,0.215637
1361,13.61,1.763613,3.212284,-1.269331,-0.05011,0.7048800000000001,0.23374899999999998
1362,13.62,1.516686,3.5471589999999997,-1.093542,-0.030930000000000003,0.71553,0.228409
1363,13.63,1.074616,3.4949790000000003,-0.9062549999999999,0.038314999999999995,0.712326,0.196457
1364,13.64,0.182678,3.5542550000000004,-0.599042,0.10968,0.71553,0.16555799999999998
1365,13.65,-0.45833199999999996,4.043431,0.03153800000000001,0.09584,0.7741239999999999,0.180481
1366,13.66,-0.011894999999999987,4.742913,1.031701,0.0010220000000000019,0.771988,0.25291399999999997
1367,13.67,1.1791639999999999,4.386606,2.0805279999999997,-0.019211000000000002,0.67186,0.328552
1368,13.68,1.525211,3.6005949999999998,2.842784,-0.016022,0.579178,0.426559
1369,13.69,1.967213,3.09123,3.9991779999999997,-0.131073,0.5642550000000001,0.574631
1370,13.7,2.2942669999999996,2.433363,4.997533,-0.22480799999999998,0.589828,0.674759
1371,13.71,2.1233779999999998,1.22325,5.092909,-0.165161,0.670792,0.687546
1372,13.72,0.850621,-0.133529,3.9602470000000003,0.018066,0.759201,0.617233
1373,13.73,-0.806074,-1.516778,2.316334,0.239639,0.7400359999999999,0.51178
1374,13.74,-2.096689,-2.805693,0.964117,0.403702,0.634567,0.379684
1375,13.75,-2.721953,-3.6579839999999995,0.372364,0.449509,0.531235,0.236938
1376,13.76,-2.9340029999999997,-3.746789,0.19980799999999999,0.360016,0.54509,0.108047
1377,13.77,-2.87299,-3.120234,0.059457,0.146973,0.643097,0.002578999999999991
1378,13.78,-2.5404880000000003,-2.219494,0.089476,-0.13000499999999998,0.7496189999999999,-0.052811000000000004
1379,13.79,-1.7063959999999998,-1.1551120000000001,0.185225,-0.403778,0.814606,-0.069855
1380,13.8,-0.725151,-0.16785999999999998,0.489425,-0.5976560000000001,0.8241879999999999,-0.068787
1381,13.81,0.136987,0.794629,0.978418,-0.662628,0.794357,-0.08371
1382,13.82,0.755869,1.531815,1.6297709999999999,-0.613632,0.731506,-0.11033599999999999
1383,13.83,1.02996,1.909775,2.335053,-0.46235699999999996,0.667587,-0.150818
1384,13.84,1.139574,1.752171,2.612993,-0.230133,0.620728,-0.19555699999999998
1385,13.85,0.871942,0.9338629999999999,2.334754,0.04043600000000002,0.575974,-0.246689
1386,13.86,0.560558,0.13438300000000006,1.38937,0.29184,0.5291140000000001,-0.291428
1387,13.87,-0.02827999999999997,-0.928273,0.37625,0.43884300000000004,0.472641,-0.327652
1388,13.88,-0.59068,-1.9695200000000002,-0.42561000000000004,0.489975,0.411926,-0.344696
1389,13.89,-1.010171,-2.818279,-1.083237,0.46015900000000004,0.35121199999999997,-0.347885
1390,13.9,-1.277103,-3.500401,-1.348866,0.378128,0.296875,-0.327652
1391,13.91,-1.396651,-3.7856919999999996,-1.453876,0.279053,0.24041700000000002,-0.28823899999999997
1392,13.92,-1.284743,-3.5156709999999998,-1.4902030000000002,0.164017,0.185028,-0.225388
1393,13.93,-1.0981969999999999,-3.0596330000000003,-1.495878,0.047897,0.14240999999999998,-0.155075
1394,13.94,-0.760035,-2.594975,-1.3479780000000001,-0.06289700000000001,0.090225,-0.086899
1395,13.95,-0.483109,-2.1162330000000003,-1.0826120000000001,-0.139587,0.033752,-0.038971
1396,13.96,-0.283893,-1.544524,-0.733446,-0.186462,-0.010986,-0.00914
1397,13.97,-0.254355,-1.065361,-0.45023900000000006,-0.19072,-0.038681,0.002579
1398,13.98,-0.31,-0.7222430000000001,-0.361272,-0.148117,-0.058914,-0.002747
1399,13.99,-0.42302,-0.42348199999999997,-0.42532600000000004,-0.06395,-0.072769,-0.017654
1400,14.0,-0.5878800000000001,-0.306287,-0.68219,0.041504,-0.098328,-0.021927000000000002
1401,14.01,-0.652776,-0.288265,-1.081149,0.1427,-0.113251,-0.013397
1402,14.02,-0.682624,-0.392027,-1.449182,0.22154200000000002,-0.14413499999999999,0.0015110000000000002
1403,14.03,-0.606558,-0.597039,-1.784918,0.260956,-0.193146,0.035599
1404,14.04,-0.50554,-0.8933969999999999,-1.947941,0.263077,-0.24320999999999998,0.087799
1405,14.05,-0.37334,-1.143513,-1.844987,0.234314,-0.28794899999999995,0.13681
1406,14.06,-0.41102299999999997,-1.10247,-1.758157,0.198105,-0.333755,0.177277
1407,14.07,-0.657208,-0.8619040000000001,-1.7767259999999998,0.162949,-0.37742600000000004,0.197525
1408,14.08,-0.97665,-0.51267,-1.8215919999999999,0.129929,-0.40618899999999997,0.201782
1409,14.09,-1.381377,-0.05147099999999999,-1.6900509999999997,0.089447,-0.42323299999999997,0.197525
1410,14.1,-1.588372,0.284224,-1.526226,0.041504,-0.417908,0.175156
1411,14.11,-1.512785,0.799556,-1.3676760000000001,-0.018143,-0.426437,0.14746099999999998
1412,14.12,-1.4373799999999999,1.53809,-1.257111,-0.059691999999999995,-0.45094300000000004,0.112305
1413,14.13,-1.482793,2.387665,-1.288634,-0.073547,-0.45945699999999995,0.08140599999999999
1414,14.14,-1.554959,3.311872,-1.235443,-0.058624,-0.44027700000000003,0.061172000000000004
1415,14.15,-1.633866,3.819381,-0.9046569999999999,-0.039458999999999994,-0.41258199999999995,0.033477999999999994
