,ts,ax,ay,az,wx,wy,wz
0,0.0,-0.1362565703298412,0.00021867149111570543,6.547260700774082,-0.0029561992307389623,-0.0017481428752297269,-0.0017481428752297269
1,0.01,-0.02322127319892084,-0.014567227088449297,1.3380258523045745,-0.0016138704937633669,-0.0020313520705390387,-0.0020313520705390387
2,0.02,0.04389447450029384,0.013473679902470862,-1.8198794827939735,-0.003924223770350466,-0.00018151410006073376,-0.00018151410006073376
3,0.03,0.06862013325656553,0.020562721561713362,-3.46931755235364,-0.0034717528745857565,-0.001526037815496711,-0.001526037815496711
4,0.04,0.06735765425857804,-0.003758650077855746,-3.9735931420622004,-0.0039433665711210075,-0.0028403636267723283,-0.0028403636267723283
5,0.05,0.0785468731292071,-0.016262673363648755,-3.641401170482553,-0.0034418563948878968,-0.003243874836299165,-0.003243874836299165
6,0.06,0.08144958207501071,-0.017829880583293222,-2.8433855593562054,-0.0028153907702049745,-0.0023669581300915657,-0.0023669581300915657
7,0.07,0.026967655017719944,0.014191349562918011,-1.899543361177416,-0.002650372285868863,-0.0015065649145355401,-0.0015065649145355401
8,0.08,-0.008156582306409747,0.007866440167602563,-0.9381409948831458,-0.001651251847925701,-0.0015125744445026194,-0.0015125744445026194
9,0.09,-0.008453093700516206,0.014664282230766622,0.03523051751339623,-0.0014911326770584142,-0.0014728234828112485,-0.0014728234828112485
10,0.1,-0.002134602305434054,-0.0040708861870043175,0.9765464779491106,-0.0018921835984715039,-0.0022670522722032685,-0.0022670522722032685
11,0.11,-0.01746432456659517,-0.03248148945495463,1.7781144072408854,-0.0018247500586738414,-0.0020238997730881504,-0.0020238997730881504
12,0.12,-0.051978621111572657,-0.021142536411333724,2.3060892430887034,-0.004298344887835786,-0.0018706726862989164,-0.0018706726862989164
13,0.13,-0.06480593515384546,0.018591580301345046,2.552310268354626,-0.00505769290769806,-0.0002812959160841701,-0.0002812959160841701
14,0.14,-0.058428915710954064,0.04241079770164377,2.6731081463713267,-0.0021688809821574936,0.0008755525753743043,0.0008755525753743043
15,0.15,-0.04557632073464069,-0.0063281297788115535,2.7106886528766254,-0.002179049056120012,-0.0014927830047037965,-0.0014927830047037965
16,0.16,-0.04741405917205063,-0.0260364165734571,2.6141533248567814,-0.0036668268094521782,-0.0023827064853875657,-0.0023827064853875657
17,0.17,-0.047164270736426185,-0.006201479020030205,2.2972916780038624,-0.004974703961613082,-0.001551070269755924,-0.001551070269755924
18,0.18,-0.042284129899617856,0.03062427382437368,1.834296851328061,-0.002997064899518668,-0.002767336132076453,-0.002767336132076453
19,0.19,-0.028471955895027382,0.014009278401812542,1.3510029965533745,-0.0012556302479544553,-0.002513404979166293,-0.002513404979166293
20,0.2,-0.009302034732076546,-0.01592328199125392,0.9123448165278314,-0.0011855271135905296,-0.0018684242841183925,-0.0018684242841183925
21,0.21,0.003600329317368499,-0.027277876320020072,0.48118010445779613,-0.003448409993216014,-0.0015900697686964073,-0.0015900697686964073
22,0.22,-0.006486229407473634,-0.006911675510087863,-0.04305743092503744,-0.003959956911702232,-0.002311602144250986,-0.002311602144250986
23,0.23,-0.006404039785197421,0.0269173027727577,-0.577584445645091,-0.0036091420709562436,-0.0019293253566479692,-0.0019293253566479692
24,0.24,0.02260561712996093,0.015519603710931857,-1.0436141854968075,-0.003132978301080432,-0.0008084792817179191,-0.0008084792817179191
25,0.25,0.037489971856573864,-0.007956699015755466,-1.3450062567730305,-0.0026791676884271,-0.001078082206102606,-0.001078082206102606
26,0.26,0.04616436557077705,-0.03720630210432341,-1.5575335976999978,-0.0034900627693985244,-0.003184994874910862,-0.003184994874910862
27,0.27,0.030836769462760875,0.0009068401162327048,-1.7967064888181583,-0.003053793695443941,-0.0008922990311172035,-0.0008922990311172035
28,0.28,0.03199041852463205,0.03076991515142028,-2.032011587558971,-0.003693932686843243,0.0011329666588193025,0.0011329666588193025
29,0.29,0.03827502424704955,0.02118781043613798,-2.1429852006226935,-0.002538485708325179,-0.0023069446089373337,-0.0023069446089373337
30,0.3,0.039561577209224645,-0.019488335667840893,-2.0883734960065734,-0.0031171093510647336,-0.002729380557330988,-0.002729380557330988
31,0.31,0.040690289116486866,-0.022194394599071993,-1.9688440218249996,-0.004186622204267063,-0.00097839496380313,-0.00097839496380313
32,0.32,0.04022690387489075,0.007648082618752768,-1.860740634832912,-0.004272245524227356,-0.0013848321309879875,-0.0013848321309879875
33,0.33,0.032247658217072706,0.011715228039930295,-1.7688457951231558,-0.004805265315974183,-0.0005523588640995946,-0.0005523588640995946
34,0.34,0.02413617111908117,0.019728206204565953,-1.5797058269384638,-0.002875059250439159,-0.0012938690954293276,-0.0012938690954293276
35,0.35,0.03480839273110231,-0.021332048519991716,-1.2716038165165329,-0.0020291582259407523,-0.0022973675849520844,-0.0022973675849520844
36,0.36,0.028664580226679264,-0.03192870272508465,-0.922296251804809,-0.0030155423743658464,-0.0016314554621988419,-0.0016314554621988419
37,0.37,0.009091743018640694,-0.007339217855056184,-0.6373632170396594,-0.0030765205460970245,-0.0008219804193356546,-0.0008219804193356546
38,0.38,-0.00797496955333043,0.04523885971442548,-0.4158286345616766,-0.003412514509010077,-0.002174749020520691,-0.002174749020520691
39,0.39,-0.0015319389620177442,0.028219848823040315,-0.13381532260592222,-0.002787126847391077,-0.0023148312004601925,-0.0023148312004601925
40,0.4,0.004829502071727044,-0.02314468178815591,0.2030559786739944,-0.0035505364526887562,-0.0024825284110998893,-0.0024825284110998893
41,0.41,-0.004582168729928757,-0.02784514533984409,0.5606170047895169,-0.00587272552211149,-0.001752022806375872,-0.001752022806375872
42,0.42,-0.013497457851092248,-0.0034943355673656296,0.7935978395933503,-0.005232774951121322,-0.0014196878258454333,-0.0014196878258454333
43,0.43,-0.035351643412693576,0.027371169970781588,0.9408941427407287,-0.005164382478812072,-0.0017379255462496464,-0.0017379255462496464
44,0.44,-0.026610530491955272,0.006596066091062447,1.1043860760379245,-0.0036810992394756404,-0.0028486176478252816,-0.0028486176478252816
45,0.45,-0.022696708501510763,-0.00860753018937116,1.333676722545514,-0.00424140750916912,-0.002696067539609313,-0.002696067539609313
46,0.46,-0.013627842853262153,-0.02223436536708583,1.521610611971608,-0.0036746811431526733,-0.003068674764162932,-0.003068674764162932
47,0.47,-0.030840329738924706,-0.00629203052992641,1.5852309380646727,-0.0032103585237750376,-0.0007299913736450548,-0.0007299913736450548
48,0.48,-0.04664820823273383,0.013891335308879062,1.5566112870483284,-0.002608750218056289,-0.0014447382514877392,-0.0014447382514877392
49,0.49,-0.03231783356778061,0.02762337652475583,1.5296387717184654,-0.0022750209444821648,-0.003025186136782022,-0.003025186136782022
50,0.5,-0.016398879719664226,-0.01320680255547873,1.5641565669132265,-0.001366199063874985,-0.0017098354641316821,-0.0017098354641316821
51,0.51,-0.009037347129635456,-0.043529860063249604,1.55729673397791,-0.003544966240177485,-0.0004702183060489834,-0.0004702183060489834
52,0.52,-0.03937192159040857,0.0013692057325914164,1.4595353270262836,-0.004291903370907671,-0.0021646620139426477,-0.0021646620139426477
53,0.53,-0.04540695669108166,0.032990372798702414,1.2475590985529814,-0.005248636889512906,-0.0010732932888076342,-0.0010732932888076342
54,0.54,-0.021009270732788528,0.02739260845029327,1.0639143288772077,-0.0044124041713597545,0.0004704571787314776,0.0004704571787314776
55,0.55,-0.005071956138817885,-0.018508225657612728,0.9660958360495997,-0.0024160986555955212,-0.0006150039399481396,-0.0006150039399481396
56,0.56,-0.017512571749041653,-0.016739413104766426,0.8557261912485847,-0.003266657924049344,-0.0014821784248517352,-0.0014821784248517352
57,0.57,-0.02282832403066876,-0.004840771072275484,0.6518327680714773,-0.003444741101932535,-0.0017356429041584516,-0.0017356429041584516
58,0.58,-0.026290000641014277,0.020045045143288205,0.3679166728188074,-0.0031361298834692588,-0.0016424041658578109,-0.0016424041658578109
59,0.59,-0.008092584636912708,0.02461357072495178,0.15147558472438782,-0.002786604594826901,-0.0017077106453471061,-0.0017077106453471061
60,0.6,0.020086456991424494,-0.021135053787194887,0.0038799789697154807,-0.0020279341937843413,-0.003732504939205201,-0.003732504939205201
61,0.61,0.01408606613991225,-0.03457371695592566,-0.11772034197090187,-0.00363673579506989,-0.0024836352960107416,-0.0024836352960107416
62,0.62,0.01328721892792753,-0.021235668556503245,-0.3234551109451884,-0.005953470824432874,-0.0003112306891218468,-0.0003112306891218468
63,0.63,0.014043834245030314,0.03669773286278016,-0.574243653929765,-0.0042043424594521385,0.0005581631175423636,0.0005581631175423636
64,0.64,0.016483420211551515,0.02589833459934177,-0.7591597097845195,-0.003494152885699762,-0.0003881303874450629,-0.0003881303874450629
65,0.65,0.017313107282085967,-0.014358119201425209,-0.8314457780076404,-0.002997900385085302,-0.00015557596254579088,-0.00015557596254579088
66,0.66,0.03029968972311292,-0.035130347518541084,-0.8777762883980859,-0.002134734894851065,-0.0009088231391201351,-0.0009088231391201351
67,0.67,0.014736477729184402,0.009355256757665156,-0.9945072155860719,-0.003764281639999876,-0.0022844711350867245,-0.0022844711350867245
68,0.68,0.0035851059679248357,0.03955859148094786,-1.1410664061108025,-0.004302314862472899,-0.0018976888290956056,-0.0018976888290956056
69,0.69,0.015346892580817966,0.017441042363137847,-1.2242477032183607,-0.002516312780935957,-0.0018898675205115054,-0.0018898675205115054
70,0.7,0.022175950513456964,-0.006956625735113547,-1.1768295245530216,-0.0016743007907112381,-0.00303941774195758,-0.00303941774195758
71,0.71,0.03328372674169584,-0.02788827743575304,-1.1217226042439166,-0.002994714370494313,-0.003559923716830036,-0.003559923716830036
72,0.72,0.022883436034237606,-0.0012821870640463604,-1.1118034452434353,-0.004820867271020368,-0.0016756725699939641,-0.0016756725699939641
73,0.73,0.006905517010257451,0.011475294236643334,-1.1551986160499998,-0.002997877999024557,-0.0008401165641976517,-0.0008401165641976517
74,0.74,0.010339137584780509,0.02004923984068735,-1.1331238562792771,-0.0013276653325247063,-0.002011198253336227,-0.002011198253336227
75,0.75,0.03295911562477473,-0.022578196642850677,-0.9867415074311421,-0.001631585820333631,-0.0029842463774567137,-0.0029842463774567137
76,0.76,0.02840165402792854,-0.0281761303570949,-0.8316055968508294,-0.002514521574888785,-0.0016294833394173045,-0.0016294833394173045
77,0.77,0.008297513468575997,0.0007392467450544312,-0.7375658025964416,-0.00347600809877314,0.00048590527565082716,0.00048590527565082716
78,0.78,0.0016623394782807645,0.025058768061393445,-0.7003772002732849,-0.0036111041063885533,-0.0013352091895065315,-0.0013352091895065315
79,0.79,0.008309388126206763,0.01677828288963692,-0.596785501621801,-0.003105244715471365,-0.0020818845639915197,-0.0020818845639915197
80,0.8,0.009485828004052,-0.017214544272322857,-0.4072455707548881,-0.0020255111153607264,-0.0022598605195593017,-0.0022598605195593017
81,0.81,0.008304121311858589,-0.006783359298610066,-0.19975534634381645,-0.0020575259197074484,-0.0012997735509871085,-0.0012997735509871085
82,0.82,0.014246080118648509,-0.009187154963609383,-0.09556550243475087,-0.0037102364072167564,-0.001303066044573812,-0.001303066044573812
83,0.83,-0.004861480781933833,0.0171304728196191,-0.04353597836305037,-0.004730620363770936,-0.0035957319573377967,-0.0035957319573377967
84,0.84,-0.007777654680761047,0.01500512165162554,0.05617565637382829,-0.0026449763312086463,-0.003072948819598925,-0.003072948819598925
85,0.85,0.0027186993189829423,-0.00895541985131541,0.2414463693505579,-0.00021095248162772407,-0.0009929285704055495,-0.0009929285704055495
86,0.86,0.008410463273517334,-0.030959751170791385,0.43115122925174654,-0.002071556611717897,-0.0020981804766332488,-0.0020981804766332488
87,0.87,-0.01468171361963088,-0.007823198892315458,0.5116395066539092,-0.004379542304075287,-0.0017876680853469247,-0.0017876680853469247
88,0.88,-0.02894629774384764,0.029259956684062324,0.5210773572456486,-0.004242409676191442,0.00027603415669762485,0.00027603415669762485
89,0.89,-0.008833010546948442,0.02387396719914811,0.5613177926495634,-0.002332343219682828,-9.850479707819252e-05,-9.850479707819252e-05
90,0.9,-0.001307844268969037,-0.005425306882897465,0.7026703994133493,0.0007643447253015631,0.00011905592069555772,0.00011905592069555772
91,0.91,-0.002731334015396594,-0.044361671069434165,0.8363226777676549,-9.015529034507152e-05,-0.00031885556446784795,-0.00031885556446784795
92,0.92,-0.03027288137938005,0.0016914996181920418,0.8467309446219533,-0.0026823200090514915,-0.0008061802115220465,-0.0008061802115220465
93,0.93,-0.020786468905243646,0.03029224406145109,0.786606781596344,-0.004205579513235754,-0.0010201463681787824,-0.0010201463681787824
94,0.94,-0.017339184454402523,0.019007841609159335,0.7587771238984328,-0.004445184645806804,0.0010983213939281878,0.0010983213939281878
95,0.95,-0.014962098345691382,-0.011820201028088872,0.8273519219172316,-0.0016383471668527775,-0.0008689008301735381,-0.0008689008301735381
96,0.96,-0.0015467358992481885,-0.03077126725178992,0.8678579385184123,-0.002533491991842544,-0.0025939363712924337,-0.0025939363712924337
97,0.97,-0.014301935957594297,-0.015864352661069486,0.8185569941385492,-0.004338168275935446,-0.0015209986712926289,-0.0015209986712926289
98,0.98,-0.026234153644007552,0.019910323226568778,0.6815253023180953,-0.004101834578617503,-0.001545876956701533,-0.001545876956701533
99,0.99,-0.028360150982526602,0.03658979559469726,0.6063037613312906,-0.0027545831312876514,-0.0036079474182202564,-0.0036079474182202564
100,1.0,-0.011044836940571068,-0.013893720041579783,0.6019596395598077,-0.0009078414706333293,-0.001384964092997564,-0.001384964092997564
101,1.01,0.002486652484853547,-0.030838731806386636,0.6124868358828268,-0.0010056707959019166,-0.0008419468230186653,-0.0008419468230186653
102,1.02,-0.008454926125752481,-0.013591218841303553,0.5207156003265471,-0.002820478032217208,-0.001984534527771112,-0.001984534527771112
103,1.03,-0.014210860559338,0.031513738443995354,0.3370087814352695,-0.0036051403107689546,-0.0012064008029454534,-0.0012064008029454534
104,1.04,-0.00479943891255196,0.01755685159066589,0.21980156548197097,-0.003576245889725639,-0.00204729712009224,-0.00204729712009224
105,1.05,-0.005243531499216982,-0.020180514046746728,0.20372036203107943,-0.002284925836996836,-0.0017811003022143222,-0.0017811003022143222
106,1.06,0.002053338567775663,-0.02191495286446344,0.19408658351743813,-0.002286740887425673,-0.002223768333118698,-0.002223768333118698
107,1.07,0.003100341608583229,-0.0006079387297452249,0.08367869949062338,-0.002684418897179864,-0.0005174564178904435,-0.0005174564178904435
108,1.08,-0.0025505947731669933,0.029985557587409534,-0.08000769077343353,-0.0021768779602117684,0.001437868396448394,0.001437868396448394
109,1.09,-0.002033886796930483,0.01643689123680622,-0.19532211523246074,-0.0023242511661954748,-0.000917922312110502,-0.000917922312110502
110,1.1,0.0029293640284234817,-0.0016669680398605918,-0.2101521552471483,-0.0031582349559574037,-0.001037315604992038,-0.001037315604992038
111,1.11,0.030993373704812296,-0.029955713594136357,-0.2254790821778208,-0.0022538873196691856,-0.0019600420498832797,-0.0019600420498832797
112,1.12,0.012250983310375175,-0.009090130674394396,-0.3094026477683468,-0.004877340659358367,-0.002791362980820363,-0.002791362980820363
113,1.13,-0.013833783585882685,0.022107514223357598,-0.43145774998478137,-0.004454218511469806,-0.0021607255515902367,-0.0021607255515902367
114,1.14,-0.0007579898742046034,0.020011320895452676,-0.5118060015168355,-0.001924296818280969,-0.0013638285194674028,-0.0013638285194674028
115,1.15,0.014671041368378034,-0.006480798094802826,-0.49234083815739804,-0.0015972291207145346,-0.000695200291932837,-0.000695200291932837
116,1.16,0.020373348708766715,-0.022434401397446593,-0.45883597682179356,-0.001973552538131545,2.539057294564365e-05,2.539057294564365e-05
117,1.17,0.0027687087851188414,0.003500832947379878,-0.4927805392701773,-0.0020964367315446427,-0.001137408223971257,-0.001137408223971257
118,1.18,-0.002089785935728049,0.01742515365394773,-0.5935799869995253,-0.0037441456807159783,-0.0007491222353311603,-0.0007491222353311603
119,1.19,-0.0018823983165108492,0.021531963470689933,-0.6188005601383652,-0.0010401663542177534,-0.0015193465536312162,-0.0015193465536312162
120,1.2,0.023200928883834987,-0.017592265486525507,-0.5473771314583955,0.00013670030524890364,-0.0017569337971054856,-0.0017569337971054856
121,1.21,0.02872716328370237,-0.02645372225670036,-0.4731019157711968,-0.0013075504424622144,-0.0003938582367651647,-0.0003938582367651647
122,1.22,0.015912919995201617,-0.012694898206554405,-0.4702293854193426,-0.0014256405290868758,-0.00033482877873481243,-0.00033482877873481243
123,1.23,0.006672044912307572,0.02427152124057025,-0.5194426544434139,-0.0028510734535066914,0.00016819766459574668,0.00016819766459574668
124,1.24,0.0029982054729428675,0.030447741421085868,-0.5121190241583226,-0.0021493565326539733,-0.00016725213060312294,-0.00016725213060312294
125,1.25,0.011020348974742827,-0.021146161239446064,-0.41293427944383965,-0.002129220026489307,-0.0005367819717869678,-0.0005367819717869678
126,1.26,0.014160166729817122,-0.027427455979241937,-0.2910490851585466,-0.0019331763452538593,-0.0005451059446404324,-0.0005451059446404324
127,1.27,-0.0009343193065956372,-0.008541801951338251,-0.26149962863761533,-0.0031980441933757804,-0.0012695368435157984,-0.0012695368435157984
128,1.28,-0.011139882435823199,0.034350965270416284,-0.28507390565439616,-0.0036504100122395156,0.00023138701370008184,0.00023138701370008184
129,1.29,0.0020532670855397997,0.0193883545570801,-0.26268579940311015,-0.002369131048836714,-0.0014829096179244596,-0.0014829096179244596
130,1.3,0.012667274484592855,-0.014752232221603948,-0.13840280478942074,-0.00260946059477249,-0.0028929404820253806,-0.0028929404820253806
131,1.31,0.00033580410240398426,-0.02878746770981774,0.0024980931543773233,-0.002841587567262243,-0.0014828746846669678,-0.0014828746846669678
132,1.32,-0.012649781814304423,-0.010282175032394753,0.029181329721759165,-0.004366601838736849,-0.003027414078047505,-0.003027414078047505
133,1.33,-0.0029512452883377,0.018386546136141844,0.007753333025520524,-0.005429681686746468,-0.003111234769289079,-0.003111234769289079
134,1.34,0.0029668304874847697,0.025784788735707005,0.01703208677528545,-0.003717784618401894,-0.0016345106357054323,-0.0016345106357054323
135,1.35,0.006098377829744426,-0.012970045685050108,0.1402305786885319,-0.002180145382211012,-0.0007694248547006977,-0.0007694248547006977
136,1.36,0.013852448547773323,-0.045537393928090225,0.2537730130751531,-0.002869884882232484,-5.028055793445893e-05,-5.028055793445893e-05
137,1.37,-0.014427282395077939,0.007736315101031675,0.26088270321060075,-0.004266684953347271,-0.0006037295210119685,-0.0006037295210119685
138,1.38,-0.018181355099210275,0.03633031540178445,0.2155981158785266,-0.005142158459578657,0.0005343950718273345,0.0005343950718273345
139,1.39,-0.0033918493394180507,0.018635206708347223,0.2134369434924825,-0.004414376232901199,-7.57294597963558e-05,-7.57294597963558e-05
140,1.4,-0.0017073786667732606,-0.02031164633608667,0.31581480149506763,-0.0021631721618519733,-0.0016677784826973012,-0.0016677784826973012
141,1.41,0.006622480004710465,-0.024342743038891033,0.3977939834785052,-0.002009269634903295,-0.002308009011069308,-0.002308009011069308
142,1.42,0.000701558310644515,-0.003633729621713995,0.39365345158191417,-0.0039297214569192695,-0.0005504479678952311,-0.0005504479678952311
143,1.43,-0.014963399885584212,0.0215363724498919,0.3124766390587006,-0.005245648564038115,-0.00032197400876119597,-0.00032197400876119597
144,1.44,-0.019133068634451324,0.030953874325570632,0.28833307746272263,-0.001987681609142062,-0.0010698168462033085,-0.0010698168462033085
145,1.45,-0.0008187072664149779,-0.021026262282703014,0.3518148126583899,-0.0015603521155174807,-0.0012577139288541025,-0.0012577139288541025
146,1.46,-0.00020410501152011082,-0.02244610308079237,0.40358646240334406,-0.003957472640907268,-0.0026838003824602398,-0.0026838003824602398
147,1.47,-0.01524161060763414,0.003614543520332557,0.357551600618393,-0.0028836756598939963,-0.0009237160147266237,-0.0009237160147266237
148,1.48,-0.01604878683408055,0.027164454541192474,0.26124822482169896,-0.0014738754862178645,-0.0018380463730879664,-0.0018380463730879664
149,1.49,-0.009685298065911521,0.010021795949720781,0.2160828705113468,-0.002561070028125193,-0.004036499902331982,-0.004036499902331982
150,1.5,-0.004709516650901967,-0.007829340780575005,0.24691325274728848,-0.002440247615577356,-0.0032952783617715147,-0.0032952783617715147
151,1.51,0.005224729601088263,-0.026535674537118567,0.2991659392782955,-0.0009303862233143028,-0.0009555368994763604,-0.0009555368994763604
152,1.52,-0.002589297301717325,-0.0023610865310234076,0.24030728548373015,-0.0024741079375242172,-0.0015734782012555622,-0.0015734782012555622
153,1.53,-0.017681097146168036,0.0299873589487006,0.1196834186015633,-0.0039335745376424406,-0.0010039103344835908,-0.0010039103344835908
154,1.54,-0.006680644082982858,0.012925328566406316,0.054397637441560814,-0.002155741046338104,-0.0012115021679874971,-0.0012115021679874971
155,1.55,0.008390500605288296,-0.01045485811805262,0.09201163861632883,-0.0017748666945863953,-0.0009484772384795188,-0.0009484772384795188
156,1.56,0.007080479917937722,-0.030102880581920045,0.13210039198858914,-0.003752206113653093,0.00012656198141559774,0.00012656198141559774
157,1.57,-0.002514067860100628,-0.009831596606578492,0.06910699451156224,-0.0047022212274725325,-0.001489662101831909,-0.001489662101831909
158,1.58,-0.009610076238641945,0.020642177526736423,-0.053961890488734086,-0.003601736336213543,-0.001636150982765877,-0.001636150982765877
159,1.59,0.0008862760499360038,0.03276750199751426,-0.12669586638791663,-0.0023608245690043364,-0.0006771888009302082,-0.0006771888009302082
160,1.6,0.015091017981749718,-0.010808335359187089,-0.08697049077180138,-0.0032728168914770953,-0.0007671166804296427,-0.0007671166804296427
161,1.61,0.018971015850596264,-0.045171856962027884,-0.04447794873036345,-0.003097892981876388,-0.0019706306761807066,-0.0019706306761807066
162,1.62,0.0008308769033668348,-0.02282973058812908,-0.08018279863472574,-0.003607496586516685,-0.0015252685409042196,-0.0015252685409042196
163,1.63,-0.006590654107690508,0.03283665714167087,-0.19355655891555057,-0.0027880506740874307,-0.0018127996035363914,-0.0018127996035363914
164,1.64,0.0008353349608929495,0.03445768745566026,-0.24905925278132524,-0.0015168171509377805,-0.001611957718098272,-0.001611957718098272
165,1.65,0.012510337935180697,-0.015770474333137247,-0.2035157098887109,-0.0010804803416879644,-0.001570774155506012,-0.001570774155506012
166,1.66,0.013324074240830479,-0.022748178363989457,-0.1369818664034535,-0.0014708717523946651,-0.002277352010827412,-0.002277352010827412
167,1.67,-0.008724047696588669,-0.0032523634307045695,-0.1623585859402869,-0.0016584428041715345,-0.0021594363938379304,-0.0021594363938379304
168,1.68,-0.010155614561037134,0.021955268014519635,-0.2478381156465403,-0.00026670882524854576,-0.0009254100860416453,-0.0009254100860416453
169,1.69,0.008281682667602604,0.018147306737911637,-0.27776021888930513,-0.00017854185458116554,-0.0008891748209621653,-0.0008891748209621653
170,1.7,0.011456515695272625,-0.017406739749099256,-0.2198658795092533,-0.0004267727783978948,-0.0036328597651044867,-0.0036328597651044867
171,1.71,0.006291353266252233,-0.031693774846064615,-0.15001647163798382,-0.001055479595521353,-0.0033223676849056154,-0.0033223676849056154
172,1.72,-0.003467836420765087,-0.0002871019244901924,-0.16385715509538548,-0.0020554294840547053,-0.0012488707980566186,-0.0012488707980566186
173,1.73,0.00376234813131451,0.023039233101094448,-0.2251919625388166,-0.002962378352084173,-0.0002292520073793856,-0.0002292520073793856
174,1.74,0.009988523004497048,0.016402677318622806,-0.2398064225299629,-0.0016365244669235032,0.00039552856872936316,0.00039552856872936316
175,1.75,0.0009625252306700899,-0.010542789853956982,-0.16735126643501508,-0.0006581282195966907,9.184337426841397e-05,9.184337426841397e-05
176,1.76,0.009724031294129805,-0.02600578804277287,-0.07184424864175436,-0.0021009150149597874,0.00031482319525849393,0.00031482319525849393
177,1.77,0.005893888431910943,-0.004531352679039855,-0.07989730391635111,-0.0017231015876512901,8.035762009192456e-05,8.035762009192456e-05
178,1.78,-0.0032190848439520607,0.02898519064030556,-0.13767582914389456,-0.0033902803812439837,-0.0006193259559578146,-0.0006193259559578146
179,1.79,-0.0050927042499938555,0.015683812614517782,-0.1520994358106269,-0.003982630329594743,-0.0014356136537968488,-0.0014356136537968488
180,1.8,0.007385782297538923,-0.023203347120885582,-0.056091931089637115,-0.0016195882960064714,-0.001772934775864732,-0.001772934775864732
181,1.81,0.014350419052539849,-0.023141204126711824,0.02018378375770548,-0.0006449970401553974,-0.003982880518699267,-0.003982880518699267
182,1.82,-0.0031856579861662786,-0.0026354298977682364,0.016739417129569854,-0.001919481664903864,-0.001954232815873439,-0.001954232815873439
183,1.83,-0.016580627943162972,0.020815046126153265,-0.042817163763241906,-0.0038118727439433,-0.0009024377074974381,-0.0009024377074974381
184,1.84,-0.016641557737954484,0.030942904995104745,-0.04625822566719984,-0.003488648054220285,-0.0017819578384607774,-0.0017819578384607774
185,1.85,0.00315932934123058,-0.008076271275405084,0.038235283021319774,-0.002255979744094205,-0.0024153810013300943,-0.0024153810013300943
186,1.86,0.01180834233291065,-0.021540906240980984,0.11922627368566892,-0.0042112768005699575,-0.002441283248880089,-0.002441283248880089
187,1.87,-0.0026413709879284696,0.0027696147888352316,0.11079589975896084,-0.003793905505142936,-0.001589350958487123,-0.001589350958487123
188,1.88,-0.02198795112449606,0.03291807280657185,0.0410768164654636,-0.003565415968534075,-0.001084620189987415,-0.001084620189987415
189,1.89,-0.009261096163294612,0.028317293696695438,0.03658284340100851,-0.0023058848155959673,-0.0017438723309769974,-0.0017438723309769974
190,1.9,0.012066418523377847,-0.0035495458073274803,0.11113779563051285,-0.0015254762345620356,-0.00023169263248679794,-0.00023169263248679794
191,1.91,0.012517672400825968,-0.027930209168997973,0.18995713956364108,-0.002451703582907354,-0.0014554576224592455,-0.0014554576224592455
192,1.92,-0.010433870641744062,-0.014799022737034621,0.17535829010611237,-0.0030456708550706817,-0.0014060886789618815,-0.0014060886789618815
193,1.93,-0.02927258341225917,0.02751392045501935,0.08843299145083067,-0.0020527585294510767,-0.0007880789500122517,-0.0007880789500122517
194,1.94,-0.011096225282811267,0.023858689222009222,0.0598989213211068,-0.00221216640303805,-0.00031031975185802965,-0.00031031975185802965
195,1.95,0.011968394284756993,-0.019438424382882492,0.12183407443976407,-0.0026034505856884016,-0.0011868228198104154,-0.0011868228198104154
196,1.96,0.020185750856937044,-0.044717322025249466,0.1997239427117034,-0.0023468563154686586,-0.0027439548700172486,-0.0027439548700172486
197,1.97,-0.002977222024580546,-0.011502914721508828,0.17768048293656574,-0.004375506176402443,9.016977696664708e-05,9.016977696664708e-05
198,1.98,-0.010217938762760012,0.024117444512785552,0.08019379257252618,-0.00428522261055414,-0.0005615284044107142,-0.0005615284044107142
199,1.99,0.0050957744733620665,0.019750275449219326,0.04254372148646243,-0.001577113460318018,-0.0012990534134951727,-0.0012990534134951727
200,2.0,0.002254628709581082,-0.01604945173673368,0.10242785043273149,-0.002261245287394048,0.0011384045131975244,0.0011384045131975244
201,2.01,0.010710558605354786,-0.03893770594277901,0.16202081290896864,-0.0035262554728000928,-0.00010907076471755943,-0.00010907076471755943
202,2.02,0.005133792574607025,-0.00386935991196264,0.1333235120151627,-0.00433011263037943,-0.0011118018182749787,-0.0011118018182749787
203,2.03,-0.009067337821292857,0.03365508435716987,0.029491411347631398,-0.004374522882963163,-0.0013825252320591565,-0.0013825252320591565
204,2.04,-0.010734026554307182,0.022692692139374453,-0.017122095500825746,-0.0030278829811277714,-0.0016968784352314056,-0.0016968784352314056
205,2.05,0.003796842555763085,-0.027989169436236895,0.04412584717367152,-0.002208143757421949,-0.002020454992174407,-0.002020454992174407
206,2.06,0.009668331009460098,-0.03446277847170885,0.09859218819906118,-0.002119861458337294,-0.004210438349587578,-0.004210438349587578
207,2.07,-0.007868513582378722,-0.001167065703382127,0.06702899003877219,-0.002970583175010479,-0.0015496249798588786,-0.0015496249798588786
208,2.08,-0.01444941872699772,0.036131541392853864,-0.03995572642158204,-0.002586830158838648,0.0005350822623215816,0.0005350822623215816
209,2.09,-0.0045870546562026765,0.0237589153873064,-0.08135444068957537,-0.0021042341028401843,-0.0017384894461824705,-0.0017384894461824705
210,2.1,0.012948559936618234,-0.028096967191446377,-0.012367335621405063,-0.0031616618146896283,-0.002208103566546573,-0.002208103566546573
211,2.11,0.014250375588643758,-0.033149175619595725,0.03960059751100438,-0.0040046020613440465,-0.0015396236586084065,-0.0015396236586084065
212,2.12,-0.003111975014647348,-0.002828419192873015,-0.009737991358016986,-0.0035520277304710783,-0.0024300989154218233,-0.0024300989154218233
213,2.13,-0.010181534485374961,0.033601601638199065,-0.09351272255629581,-0.005200015507226996,-0.0006154808882405064,-0.0006154808882405064
214,2.14,-0.0010153004422887874,0.018520986264899352,-0.1291516854324675,-0.00143456861214427,-0.0006755910134387425,-0.0006755910134387425
215,2.15,0.004466472524444792,-0.006541299803905474,-0.07941540635564981,-0.002497348921054773,-0.0020627215755590566,-0.0020627215755590566
216,2.16,0.010052519213139658,-0.022378730926353466,-0.009123648516140816,-0.005414658581353872,-0.0008205040235639764,-0.0008205040235639764
217,2.17,0.0015993956322032995,-0.002222584534975528,-0.03346943642935438,-0.0049664572721166535,0.001767946855042885,0.001767946855042885
218,2.18,-0.013784872504927985,0.024914847128881427,-0.11458974434273383,-0.0027174327736414405,0.0016262037042854235,0.0016262037042854235
219,2.19,-0.0071698894942636175,0.022119650698071223,-0.15244467862656486,-0.0017772570660887187,8.513302568719698e-05,8.513302568719698e-05
220,2.2,0.014358979705096973,-0.014372535744438222,-0.08222099699713623,-0.001987899927627918,-0.001901580936919854,-0.001901580936919854
221,2.21,0.021465298785946142,-0.02356237690268987,-0.011274952749208395,-0.003684713170057121,-0.0018701017932285136,-0.0018701017932285136
222,2.22,0.005443034137341728,-0.00406093512791922,-0.02825135747523448,-0.004914663347373061,-0.000987127196648388,-0.000987127196648388
223,2.23,-0.0188583681467227,0.021875196681683896,-0.10108454242738789,-0.003565394902061501,-0.0006495259355795086,-0.0006495259355795086
224,2.24,-0.018489446206459016,0.033285282066359986,-0.13481821580967562,-0.0028783476334577605,-0.0017824526524359992,-0.0017824526524359992
225,2.25,0.007429298664019023,-0.006116163583532953,-0.07101233011266532,-0.0011080133811114238,-0.0021782132689340183,-0.0021782132689340183
226,2.26,0.0205756355190427,-0.03446005890369796,-0.004509407874224096,-0.000218050461958059,-0.001811450428010337,-0.001811450428010337
227,2.27,-0.0038946389254450537,-0.010420607930785353,-0.014125645268212798,-0.0023520266770188326,-0.00043027381191160826,-0.00043027381191160826
228,2.28,-0.014223591737527397,0.023989228216406783,-0.08381554985762071,-0.0049871800360265185,-0.0007938132159172483,-0.0007938132159172483
229,2.29,0.005480920812173313,0.01514101433682665,-0.0947426702652448,-0.0032838850611075503,9.529220138334344e-05,9.529220138334344e-05
230,2.3,0.010931454110773597,-0.015927634612065922,-0.016819411620030235,-0.0016522130280605296,-0.001654071493888535,-0.001654071493888535
231,2.31,0.010460524354763672,-0.03309138748615875,0.050135188242740866,-0.002048058837341448,-0.001723684727330975,-0.001723684727330975
232,2.32,-0.0037928513570775835,-0.007114767115301087,0.030729000261903734,-0.0019300821888578407,-0.0015808009459649108,-0.0015808009459649108
233,2.33,-0.017966427417358634,0.043745056198490506,-0.05205764207822765,-0.0033867185847677892,-0.0014915900042046196,-0.0014915900042046196
234,2.34,-0.001512767734693898,0.029967411704752703,-0.06655710653041988,-0.003641701311687993,-0.0007165078327547732,-0.0007165078327547732
235,2.35,0.008486245461804369,-0.01323264559827381,0.013359820634331117,-0.0039568054170793015,-0.0008834036884653242,-0.0008834036884653242
236,2.36,0.005367476461253938,-0.033720564322399074,0.08269285691981489,-0.0027500141230747213,-0.0007124206738627388,-0.0007124206738627388
237,2.37,-0.006312125876771274,-0.00176667119802062,0.0459681436519257,-0.0039023883621962154,0.0004668526192262244,0.0004668526192262244
238,2.38,-0.014977924322188686,0.029656219269249124,-0.019893521186293922,-0.004148781880503193,-0.0014120323040474614,-0.0014120323040474614
239,2.39,-0.009019298714263426,0.019524521217771904,-0.04195785127497274,-0.000482198289845609,-0.00046329793908180965,-0.00046329793908180965
240,2.4,-0.004955578576082369,-0.014766802837312614,0.0338367123857802,-0.0009389152174089664,-0.0012672999190428368,-0.0012672999190428368
241,2.41,0.008897956413281984,-0.044166713867105446,0.11602432865023812,-0.0037103048096497455,-0.0017722097503428515,-0.0017722097503428515
242,2.42,-0.002258167243548207,-0.004001750094805901,0.08220628683080153,-0.002762547759183409,0.00043434717627620784,0.00043434717627620784
243,2.43,-0.014124991518689914,0.029773023660964227,0.00565748506376481,-0.002967096745713781,-0.0007223822643922312,-0.0007223822643922312
244,2.44,2.9498929420280085e-05,0.016550758156772385,-0.017258645453100255,-0.0043290634479430795,-0.002368508660797946,-0.002368508660797946
245,2.45,0.010169833114467217,-0.015182719723124037,0.056820627031605314,-0.0031629363976749068,-0.0027775348621288266,-0.0027775348621288266
246,2.46,0.018356080601631554,-0.01813122801372556,0.12420195236046358,-0.0031783869805417217,-0.002418171411032544,-0.002418171411032544
247,2.47,0.011360076747185708,-0.0030264958710998664,0.09530059624598,-0.0031580788252554546,-0.0016110341567600113,-0.0016110341567600113
248,2.48,-0.002424699657547248,0.0191867459675127,0.0032149111691437346,-0.003680656662740639,-0.0011676550791538984,-0.0011676550791538984
249,2.49,-0.0018237552987344346,0.011892039610932416,-0.021955914313914082,-0.003484094375378569,-0.0010532811321697392,-0.0010532811321697392
250,2.5,0.0152170907801365,-0.0287018270773419,0.04237250467638497,-0.0014602095116946626,-0.0021345236332885108,-0.0021345236332885108
251,2.51,0.013448590643535796,-0.017358622979511962,0.10324477426802048,-0.0028904178092427017,-0.0023059475548691515,-0.0023059475548691515
252,2.52,-0.004918075145372092,-0.0035315611794251595,0.07947286574675078,-0.004316781085094212,-0.00018449384986072507,-0.00018449384986072507
253,2.53,-0.0195216854327944,0.017142478754523308,-0.010408429140657954,-0.003242203067107593,-0.0012583378877969356,-0.0012583378877969356
254,2.54,-0.007224029475472086,0.01644322734643049,-0.044307495235895104,-0.0023440066920292096,-0.0037704082640673217,-0.0037704082640673217
255,2.55,0.009059409922118837,-0.009213062932464206,0.006897782851716768,-0.0011770382479606714,-0.0024686701382861066,-0.0024686701382861066
256,2.56,0.011491494936865286,-0.0275793918314845,0.08328415253096612,-0.0013841832899630915,-0.0017406177450658075,-0.0017406177450658075
257,2.57,-0.009287674641179381,-0.008038305412345757,0.04765145908000178,-0.0018827994585521907,0.0006797534756412357,0.0006797534756412357
258,2.58,-0.025463395311378076,0.028597627900317224,-0.028897396857870433,-0.00261505103452675,-0.0009103616923719221,-0.0009103616923719221
259,2.59,-0.004508937529028995,0.02818197134088267,-0.06151111493011957,-0.003178337828007421,-0.002603638472944772,-0.002603638472944772
260,2.6,0.01316639304631997,-0.00398065615776153,-0.007720814793458951,-0.003747904998972129,-0.0010479871017028196,-0.0010479871017028196
261,2.61,0.006218695809103968,-0.04003050170323554,0.054848239321614006,-0.0030131345522506274,-0.0009914687476856837,-0.0009914687476856837
262,2.62,-0.005097283957984424,-0.011814114369604124,0.03364953815381656,-0.004074141986286785,-0.00033708217592654123,-0.00033708217592654123
263,2.63,-0.01101502310835612,0.028002773107702807,-0.05339150915845749,-0.003337304319002107,0.000541000929054551,0.000541000929054551
264,2.64,-0.005442020020685502,0.0403726127126921,-0.0930838303377251,-0.0002382858930912925,-0.0014174268137791012,-0.0014174268137791012
265,2.65,0.007542598106208634,-0.01331871956950548,-0.022754771386751214,0.001338626362403267,-0.0017825382564981352,-0.0017825382564981352
266,2.66,0.011361381734348775,-0.03665024974648903,0.04279435276949038,-0.0004994347393848028,-0.002068693886747692,-0.002068693886747692
267,2.67,-0.0012516534186641564,-0.00786534596519386,0.022065363064082265,-0.003154824082554616,-0.0008084420983241675,-0.0008084420983241675
268,2.68,-0.013857854875183788,0.026608851290376066,-0.06266661080337133,-0.002913770232106214,-0.0007256230880493315,-0.0007256230880493315
269,2.69,-0.007353572307688069,0.027037707916430485,-0.09789390238448173,-0.0022080504202055965,-0.0013026727834864935,-0.0013026727834864935
270,2.7,0.009322261603175477,-0.015458467646429507,-0.03629202945462852,-0.002349803171713776,-0.003171586566601214,-0.003171586566601214
271,2.71,0.006020524734224977,-0.023780376001985865,0.04140607541425816,-0.003137247893318093,-0.0024735019466117303,-0.0024735019466117303
272,2.72,0.003080742683871816,-0.006623218931111462,0.016061031408849204,-0.004535736083490189,3.050468411973297e-05,3.050468411973297e-05
273,2.73,-0.00890770177575188,0.038848523811387696,-0.08047954684613379,-0.0033074350469508343,0.0016711303977281072,0.0016711303977281072
274,2.74,-0.007323642238699344,0.016521681958822514,-0.10020618211535208,-0.002720923097901052,0.001243623151845792,0.001243623151845792
275,2.75,0.010254785588129459,-0.026351404188740157,-0.03523848434838194,-0.0030076266489701127,-0.0009135266978207326,-0.0009135266978207326
276,2.76,0.006444673976158713,-0.013122179204167238,0.043214289977386355,-0.002306318736996525,-0.0014010032226632134,-0.0014010032226632134
277,2.77,-0.013875942723465887,0.014219242651334505,0.02289878038876863,-0.002966218755230338,-0.001304371681715057,-0.001304371681715057
278,2.78,-0.011340036444091362,0.027533357283754945,-0.055294155710251716,-0.00260283697501064,-0.0015878831723057376,-0.0015878831723057376
279,2.79,0.0046675520936849246,0.008433506705020605,-0.08486919754993319,-0.0030918338935243352,-0.002282298427499554,-0.002282298427499554
280,2.8,0.008063830234151293,-0.019777686556515895,-0.025061276927492684,-0.0010238263026447238,-0.0028435203170589524,-0.0028435203170589524
281,2.81,0.014104875838119067,-0.03101184932288477,0.055729579207387525,-0.0016758650783359034,-0.0008522687475793671,-0.0008522687475793671
282,2.82,0.0074760327579237755,0.00617230218952759,0.026821835504556458,-0.0033160330996120763,0.0002256753591465999,0.0002256753591465999
283,2.83,-0.01012863041057863,0.018563223770639008,-0.0447369890662688,-0.005139136250012585,-0.0016142683738490436,-0.0016142683738490436
284,2.84,-0.003875425298363263,0.01616358322642095,-0.05837598004495055,-0.004319995015607205,-0.0019151706172092398,-0.0019151706172092398
285,2.85,0.012696500282204697,-0.01361605197509576,0.009025500903996325,-0.002704596350400265,-0.0026494658522219572,-0.0026494658522219572
286,2.86,0.0217165836026339,-0.02767499656158017,0.07232001946339811,-0.00267704854757832,-0.002213829207245697,-0.002213829207245697
287,2.87,0.005208951338861879,-0.006701682965435935,0.049892357709050886,-0.0031241817707503613,-0.0018715384372005772,-0.0018715384372005772
288,2.88,-0.007683387012210661,0.012903941111720359,-0.024178795231551732,-0.0006981563396095099,-6.690947116725493e-06,-6.690947116725493e-06
289,2.89,-0.008652188009834402,0.015891828286858308,-0.05408622362380026,-0.0008181260894846709,0.00037890992370263416,0.00037890992370263416
290,2.9,0.01017055909584113,-0.0212087659574781,0.00895034406217619,-0.0018055327338365827,-0.0007519710338810086,-0.0007519710338810086
291,2.91,0.007814510644827327,-0.022799982767075202,0.07756015850172521,-0.0032684916962195725,-0.0019270518613744207,-0.0019270518613744207
292,2.92,-0.010848060801881922,-0.010159885425791739,0.06375932330189259,-0.0013055458504074792,-0.0024728597301493125,-0.0024728597301493125
293,2.93,-0.017278027321403017,0.017618957260434435,-0.021438321111396832,-0.002574491014812025,-0.0019122915610143962,-0.0019122915610143962
294,2.94,-0.010533615955570544,0.0246132652788167,-0.04771870343529416,-0.0014793758420001142,-0.002394465094201373,-0.002394465094201373
295,2.95,0.0017459866980977217,-0.007968966278682344,0.020038827334416514,-0.0007593360517161386,-0.002160525877132292,-0.002160525877132292
296,2.96,0.008629608443289898,-0.03297843778952927,0.08974522922316286,-0.0014668892055806286,-0.0004722950544534083,-0.0004722950544534083
297,2.97,-0.0005693504787941683,-0.008174694479809636,0.05847977394797617,-0.0015951148041136705,-0.0005285779241402902,-0.0005285779241402902
298,2.98,-0.010472265663602714,0.0394526606503763,-0.02621392341298743,-0.002980468618219218,0.00029469289062182996,0.00029469289062182996
299,2.99,0.005761013077453511,0.017786512298222007,-0.054880248671722205,-0.002148654719236369,-0.0016477713688294866,-0.0016477713688294866
300,3.0,0.00960554790562256,-0.01402899099324501,0.011204451810459815,-0.0023855595625419217,-0.003909718092848116,-0.003909718092848116
301,3.01,0.0025403091662465835,-0.03482474923841221,0.08338529848280862,-0.005103609262803802,-0.0026045713569179344,-0.0026045713569179344
302,3.02,-0.011128435618141577,0.001972279667808016,0.053673915284743905,-0.0049662023313723595,-0.0007031218641149362,-0.0007031218641149362
303,3.03,-0.00409410352825096,0.031950880246739755,-0.024082775035993577,-0.002511120774497308,-0.0010446618211952807,-0.0010446618211952807
304,3.04,-0.001326541430007236,0.022598775057390986,-0.06239172324776038,-0.0011161807850814038,-0.001002485685092158,-0.001002485685092158
305,3.05,-0.007967474159262068,-0.009188787090875963,0.0019678270306474933,-0.002155823482458968,-0.0011408325545182408,-0.0011408325545182408
306,3.06,0.00883947648143347,-0.029372014551550352,0.07214333667275191,-0.003638125662711553,-0.002173116359423341,-0.002173116359423341
307,3.07,-0.006624854734521468,0.0076296346415919815,0.04780958715720237,-0.003428033569556413,-0.0009672832902608838,-0.0009672832902608838
308,3.08,-0.012279150779696532,0.028814575570822138,-0.039034884227694744,-0.0018941738911821696,-0.0026018726045594163,-0.0026018726045594163
309,3.09,-0.00946382366232608,0.02551438761208994,-0.06338056701196018,-0.0010576234910252788,-0.002875534737874515,-0.002875534737874515
310,3.1,0.0003145825872669988,-0.0189646476686224,0.003706636623657677,-0.0009598046215994387,-0.002065897318133591,-0.002065897318133591
311,3.11,0.013807801712352822,-0.025652622604686308,0.07292261539822019,-0.0018911585353356148,-0.0017474760004811815,-0.0017474760004811815
312,3.12,0.0034755768146902555,0.00014400264798269946,0.040602478140398524,-0.0035986695123254313,-0.0021402474104210635,-0.0021402474104210635
313,3.13,-0.007515202809554487,0.026684444396406024,-0.05656322805443233,-0.003669855642493916,-0.0007738338993563673,-0.0007738338993563673
314,3.14,-0.0037294623151528936,0.016801660136844816,-0.07649906220000643,-0.001607639043492315,-0.0014510888415287335,-0.0014510888415287335
315,3.15,0.01119264757388473,-0.026664402279366183,-0.011775738757047977,-0.0027320075514279283,-0.0020362855941479093,-0.0020362855941479093
316,3.16,0.00577958061911572,-0.018869716924639485,0.06190141646188416,-0.003717519775411264,-0.0010875060561322746,-0.0010875060561322746
317,3.17,-0.002277654003553226,-0.004934683413903813,0.03907702523816648,-0.003072944929338407,-0.0009679063894642119,-0.0009679063894642119
318,3.18,-0.009271369118562318,0.023562733276899395,-0.05248081663312628,-0.002643694676788539,-0.0009890404820000502,-0.0009890404820000502
319,3.19,0.004155187031509926,0.015364704528776722,-0.07504191428496515,-0.0007185869308890963,-0.000382338007459678,-0.000382338007459678
320,3.2,0.015899717832193766,-0.013356559179153429,-0.017128136427231544,-0.0011016684394010619,0.0003554084047113547,0.0003554084047113547
321,3.21,0.01901801090971272,-0.03036810751419944,0.05270743053304663,-0.0030168466845141646,-3.850266444193663e-05,-3.850266444193663e-05
322,3.22,-0.0015967694015309054,-0.010921103662118388,0.026167110068460706,-0.0041269025841016325,-0.0011138110992416981,-0.0011138110992416981
323,3.23,-0.008563747801066484,0.027466781875976332,-0.05047590602248813,-0.0044813838750338494,-0.0027796673133519485,-0.0027796673133519485
324,3.24,0.003928698165444072,0.025339530737932617,-0.08012996426827979,-0.002711210120174964,-0.0026977592015567232,-0.0026977592015567232
325,3.25,-0.0020760641528661354,-0.007566852095359709,-0.003248233991475221,-0.0020738880426040226,-0.0016839764262145671,-0.0016839764262145671
326,3.26,0.007718327624513931,-0.04131675986585791,0.0637499719452399,-0.0010964700153166854,-0.002442567226982855,-0.002442567226982855
327,3.27,-0.00626181251295675,-0.012104647785611811,0.0330196015833976,-0.0026095043758472235,-0.0016504762354386515,-0.0016504762354386515
328,3.28,-0.01622783822131128,0.01694651141794794,-0.05889853385071013,-0.0025720664981588198,-0.0006659244629670247,-0.0006659244629670247
329,3.29,0.002637144129315578,0.026034353553954843,-0.08650628946471026,-0.0007910536180998697,-0.0015651080677224721,-0.0015651080677224721
330,3.3,0.019195652297695254,-0.01839140006297807,-0.009804635132047868,-0.00198396991819002,-0.0011221630161770395,-0.0011221630161770395
331,3.31,-0.001572442585113608,-0.029739249874972937,0.05847083593697218,-0.0013554848123515655,-0.0008207210224605995,-0.0008207210224605995
332,3.32,-0.009611082834484353,0.00031333011108491265,0.04443413330968537,-0.0030322407542255096,-0.0014256503576291512,-0.0014256503576291512
333,3.33,-0.00427871638226722,0.029246464158882837,-0.03702221508002604,-0.003796274184085644,-0.0008234849342439836,-0.0008234849342439836
334,3.34,-0.004851587713687129,0.02593109546128027,-0.06325043649245812,-0.0013762348331193624,-0.0020028057602396194,-0.0020028057602396194
335,3.35,0.005802301437776089,-0.02243537037272847,0.004956207736086512,-0.0012693812261740376,-0.00016018422016252922,-0.00016018422016252922
336,3.36,0.008952651178366773,-0.02222898320593708,0.06306663876445587,-0.003558199053424625,-0.000234073264957696,-0.000234073264957696
337,3.37,-0.0036692406851808004,-0.0060074956323988415,0.04057001051167,-0.0036131356465842345,-0.0013667996166414455,-0.0013667996166414455
338,3.38,-0.0009355236273001239,0.02553997998646298,-0.02917732533712499,-0.002887351291799877,0.0006215700792848709,0.0006215700792848709
339,3.39,-0.0025206788769121472,0.017172030248269937,-0.05743428081891445,-0.0017219456176029609,-0.0009037299320057387,-0.0009037299320057387
340,3.4,0.004409752066944482,-0.014203959714889152,-0.0028035969725963526,-0.0005147705419353284,-0.0024732816119949273,-0.0024732816119949273
341,3.41,0.00549759308990949,-0.02295773526409893,0.07748469742939601,-0.0025642994464068532,-0.002080123923338199,-0.002080123923338199
342,3.42,0.0003848408048363512,0.0030943535112860597,0.04586087011692713,-0.0026770971945203484,-0.002893519389933139,-0.002893519389933139
343,3.43,-0.010837054060852808,0.035705197615930176,-0.03245121839818086,-0.0008153924931725603,-0.0008172070075795488,-0.0008172070075795488
344,3.44,-0.005036890149050009,0.010406876877144044,-0.05560350660707349,-6.740788233818029e-05,-0.0013852769750161665,-0.0013852769750161665
345,3.45,0.006248095033300738,-0.009421280198046394,0.012312288104049864,-0.0011971682196043267,-0.0014639723161392006,-0.0014639723161392006
346,3.46,0.0061277434187342016,-0.021924441681886654,0.07673416271876962,-0.003114529886727874,-0.0007255707118862751,-0.0007255707118862751
347,3.47,-0.015990912371895344,0.008598921141095922,0.04828688853203171,-0.004400426428552286,-7.787459052966989e-05,-7.787459052966989e-05
348,3.48,-0.02047013745514717,0.023152300131399753,-0.028894437024274813,-0.004016401673965437,-0.0016657026338446218,-0.0016657026338446218
349,3.49,-0.006247915378314587,0.01943150667182826,-0.06919905489432379,-0.002463425285657092,-0.0028587944232306337,-0.0028587944232306337
350,3.5,0.016421320911976553,-0.018150781481381332,0.0057734635239445765,-0.0013240988744285516,-0.0030972249628709032,-0.0030972249628709032
351,3.51,0.017410856622165044,-0.029346588728580838,0.07741893800490654,-0.0015242013883697047,-0.0008833725159671475,-0.0008833725159671475
352,3.52,-0.008344326409879152,0.00023775676374735918,0.04401273614438997,-0.00251012466456616,-0.0007438090479896949,-0.0007438090479896949
353,3.53,-0.01644790901343719,0.013871633134888322,-0.033691750843457456,-0.00301388315840032,-0.0009040697353902852,-0.0009040697353902852
354,3.54,-0.009760503592531618,0.02112817994447966,-0.056521661513073605,-0.0014574122229990992,-0.0015628202540751337,-0.0015628202540751337
355,3.55,0.0014025357795202677,-0.006426582949143102,-0.004396612393619633,-0.002952783328350203,-0.0017828450088504038,-0.0017828450088504038
356,3.56,0.014016991529944265,-0.02378089306004251,0.05562774699459604,-0.0029305277986806325,-0.003012512277382709,-0.003012512277382709
357,3.57,0.0013673190569535862,-0.015189007464067601,0.03776917025029581,-0.0023292389274069737,-0.0017549385544832524,-0.0017549385544832524
358,3.58,-0.013608655717357341,0.027758245332227486,-0.047054992629164585,-0.0026678151318291874,-0.0004047303468665504,-0.0004047303468665504
359,3.59,-0.0006948655859739012,0.02973655479735446,-0.06593392252169289,-0.0026414453847583745,-0.0012185975322227067,-0.0012185975322227067
360,3.6,0.01459413974193041,-0.011243077513582141,0.000457086551593662,-0.0023285095189544483,-0.0032004667498960306,-0.0032004667498960306
361,3.61,0.0011933964067715368,-0.028118390827570554,0.06695862832060429,-0.0005833759828249933,-0.0018969510730351574,-0.0018969510730351574
362,3.62,-0.002633550794569035,-0.018468255803287155,0.04283883118926194,-0.0023593866930444675,-0.0006439718435278482,-0.0006439718435278482
363,3.63,0.0013894247365434857,0.022547563216633898,-0.03670347394893031,-0.0040183868816168295,-0.00207106893352908,-0.00207106893352908
364,3.64,0.005217087839118376,0.015204249705857924,-0.07437406725993888,-0.0017672554183403065,-0.0019061972919580798,-0.0019061972919580798
365,3.65,0.01348891112735632,-0.01573325904406748,-0.010482998140811293,-0.0020526403239623588,-0.00312726504732116,-0.00312726504732116
366,3.66,0.014191610311238265,-0.03627159884131972,0.06826930229718137,-0.0036412683924741344,-0.0031786893601981445,-0.0031786893601981445
367,3.67,-0.003258512525305536,-0.00114067761552722,0.031666643751469443,-0.004189582794192364,-0.00252919370263985,-0.00252919370263985
368,3.68,-0.005277673449602509,0.024064566833074917,-0.044152936510651705,-0.004067660660109938,-0.00041452027620711635,-0.00041452027620711635
369,3.69,0.007366020105158669,0.014978899026811314,-0.07507949219762186,-0.00047645969040613806,-0.0007118757517109041,-0.0007118757517109041
370,3.7,0.0030644767163533716,-0.010410831879426825,-0.008535521586290257,0.0010857975181915557,-0.001121840203707796,-0.001121840203707796
371,3.71,0.002674399836954347,-0.037364237157592725,0.06653660257159878,-0.0010596124327511536,-0.0017852046280234922,-0.0017852046280234922
372,3.72,-0.004085372193160262,0.0029438719123440855,0.043205655910739105,-0.0036873067370407327,-0.0018207121148427535,-0.0018207121148427535
373,3.73,-0.005737468456804737,0.023110440571187364,-0.04185653573127035,-0.004209076082878845,-0.00152390565996571,-0.00152390565996571
374,3.74,-0.0033143436236454326,0.024974412313439682,-0.06314818464094477,-0.0021756109580044264,-0.001138160304031083,-0.001138160304031083
375,3.75,0.007304644801954021,-0.016908650584627528,0.0016716353918094957,2.2316888492943482e-05,-0.0012907883238978055,-0.0012907883238978055
376,3.76,0.00848540430136431,-0.02298647946599232,0.05736637071268575,-0.0013775672025326494,3.651596417062392e-05,3.651596417062392e-05
377,3.77,-0.003967056736176825,-0.00033781557436017226,0.03707460286987744,-0.005543326489799256,-0.000936494178475331,-0.000936494178475331
378,3.78,-0.01447939396264429,0.027993751908606673,-0.04541289421370226,-0.004398614792131217,-0.0023762553652143447,-0.0023762553652143447
379,3.79,-0.015231642247571325,0.030529919984060568,-0.060038232332452174,-0.00028859007957185315,-0.0014793066594136796,-0.0014793066594136796
380,3.8,0.001221967828441509,-0.01896706827496764,0.00024518916806989116,-0.0018872425659097168,-0.001871992691792512,-0.001871992691792512
381,3.81,0.008573832188836684,-0.017584876528828244,0.06338841897595536,-0.005005401867520911,-0.0018206150457415625,-0.0018206150457415625
382,3.82,-0.0002777660289470757,-0.0017902299511675258,0.03525833660804601,-0.004978431037473326,-0.0006272435945063117,-0.0006272435945063117
383,3.83,-0.007227952471181442,0.0233840406541342,-0.04291964720923679,-0.002807088631120448,-0.000629547038770498,-0.000629547038770498
384,3.84,0.006272196189786358,0.01112780192590406,-0.06791301252889699,-0.002675013858106943,-0.0007333818429862026,-0.0007333818429862026
385,3.85,0.010339251190294638,-0.010984020602303779,-0.006255421016344919,-0.0033226328351597906,-0.00273254152842319,-0.00273254152842319
386,3.86,0.0063904574895864074,-0.03541342480514439,0.0665679668855455,-0.0035071934341153557,-0.0018181232868623746,-0.0018181232868623746
387,3.87,-0.00481051193561146,-0.011831470873870329,0.038916677564130454,-0.001981635830920865,-0.0005841684702496897,-0.0005841684702496897
388,3.88,-0.02218059300634796,0.029506107210714953,-0.038702184125297245,-0.003697784087871407,0.00020523531714047123,0.00020523531714047123
389,3.89,-0.009223042075337218,0.012551105939590449,-0.06325659562481975,-0.003751293095829751,-0.0019988087876141166,-0.0019988087876141166
390,3.9,0.007640135784666539,-0.006986316982057629,-0.0037565369434103234,-0.0025285009066463664,-0.0030777264356122783,-0.0030777264356122783
391,3.91,0.010087178237557394,-0.02725889311682861,0.07492962259981703,-0.001868749769374955,-0.0022656098135739136,-0.0022656098135739136
392,3.92,-0.007292966288441604,-0.0044298182974390156,0.0583065621949529,-0.002690361999163768,0.0005762508980310168,0.0005762508980310168
393,3.93,-0.008328887904770588,0.022794652946069242,-0.045530258542756,-0.0032108105724336397,0.0012307777040114533,0.0012307777040114533
394,3.94,-0.004030317866273426,0.03525816136609612,-0.07699343642831062,-0.0034207648472052623,-0.0019694943321221852,-0.0019694943321221852
395,3.95,0.006889417527508826,-0.013695411111571121,-0.0028113954177985297,-0.003769653453718836,-0.003454568848552782,-0.003454568848552782
396,3.96,0.008102554623541772,-0.03223268381462065,0.076031371974554,-0.003809957322470856,-0.002938871883278701,-0.002938871883278701
397,3.97,-0.00930665694228279,0.002291917461938229,0.058069641263618715,-0.004782517045433231,-0.0016564248006875732,-0.0016564248006875732
398,3.98,-0.0070078131390619094,0.02672052126030608,-0.03083522696017591,-0.0046457779730937,-0.001122533590873983,-0.001122533590873983
399,3.99,0.006490225554191267,0.02728906948891028,-0.06007394895573845,-0.0027502941492597178,-0.0014839027274018836,-0.0014839027274018836
400,4.0,0.010917884365317883,-0.02055618045219611,-0.002813568385082437,-0.00199374552086775,-0.0028747505809585995,-0.0028747505809585995
401,4.01,-0.0002930719115503888,-0.024245323986823015,0.06824884621812755,-0.002095305637709997,-0.004550883326390876,-0.004550883326390876
402,4.02,-0.0029311521343222562,-0.0025991370875472243,0.04831026216085929,-0.004258480135772613,-0.002581439296056875,-0.002581439296056875
403,4.03,-0.006678703660020914,0.03520426895107466,-0.039149124019804735,-0.00426185101289495,-0.0011246275354757065,-0.0011246275354757065
404,4.04,-0.0021275856578143928,0.02119532852512898,-0.06359110462237758,-0.002427257347027889,-0.0017020328172203602,-0.0017020328172203602
405,4.05,0.013681113693583671,-0.02181558971611624,0.0010096170669310484,2.8647523898637927e-05,-0.0018175714564733336,-0.0018175714564733336
406,4.06,0.014047412989679986,-0.021557339413207213,0.07148129764008469,-0.0005032324587004876,-0.002341883233631264,-0.002341883233631264
407,4.07,0.004427984460795099,-0.008872860978472431,0.04006267270071472,-0.0015523509379142069,-0.0008789351582945474,-0.0008789351582945474
408,4.08,-0.009513484718395707,0.02934158044766274,-0.03434898021375898,-0.0023467932306559763,-0.0013217455039207856,-0.0013217455039207856
409,4.09,-0.00691212445924043,0.015511709384527271,-0.0699094638704694,-0.0007178421184910358,-0.002266754299904655,-0.002266754299904655
410,4.1,0.007463242221872304,-0.021866463082545556,-0.0037571948878025157,-0.0005174985911017627,-0.0025567936621436697,-0.0025567936621436697
411,4.11,0.017072825054372378,-0.03991206312996219,0.055064973625874876,-0.0015920405680125414,-0.0013722119834684895,-0.0013722119834684895
412,4.12,-0.005246185273388473,-0.0006328572715547957,0.03148628228166531,-0.0025156937519510425,-0.0017772277017017765,-0.0017772277017017765
413,4.13,-0.018426001869936703,0.018673460538983357,-0.04490152218948429,-0.0033626458070055323,-0.0009108068303291184,-0.0009108068303291184
414,4.14,-0.009667985063367433,0.019859220266386948,-0.07620717461192665,-0.0028438636121787906,-0.001282963141596041,-0.001282963141596041
415,4.15,0.008230167573885378,-0.0129301490298994,-0.015608087320857639,-0.0036434541933782014,-0.0014155414124651636,-0.0014155414124651636
416,4.16,0.004708773028475829,-0.028053695772098278,0.052336514550712795,-0.0026736320045903537,-0.0013929116949234922,-0.0013929116949234922
417,4.17,-0.013571743531500558,0.003085563680871452,0.039441726347014525,-0.0032065303048115076,-0.002033122063181192,-0.002033122063181192
418,4.18,-0.015534585061552654,0.013821790667900161,-0.038236077314024945,-0.005575407918813031,4.706270785588036e-05,4.706270785588036e-05
419,4.19,-0.006969267611842666,0.015075833730266074,-0.06392324780098779,-0.004476940572471709,-0.00017009103456993094,-0.00017009103456993094
420,4.2,0.015918678977532026,-0.01649641195801617,-0.00021192000220545196,-0.0021516597713772127,-0.00269051969189726,-0.00269051969189726
421,4.21,0.016309276539424176,-0.0229256065623095,0.0687076345471864,-0.00018815397980255283,-0.0023185110174583283,-0.0023185110174583283
422,4.22,-0.0007031520594030817,-0.006219874934000773,0.05349620615474978,-0.0032553444633914423,0.001216231506053408,0.001216231506053408
423,4.23,-0.004538680300354858,0.02270246887641315,-0.04235410899732157,-0.0036183765473493694,0.00025873165636387265,0.00025873165636387265
424,4.24,0.00019949777556570528,0.022473647019329204,-0.07267123231270618,-0.0007144101785807053,-0.001442346708153716,-0.001442346708153716
425,4.25,0.01767028272712992,-0.01880581677373095,-3.2755313679536102e-06,0.00168385151317877,-0.0002447300647374189,-0.0002447300647374189
426,4.26,0.007916725002870748,-0.02131136667378318,0.06997738702995196,-0.001676539164919951,-0.001139784802814841,-0.001139784802814841
427,4.27,-0.002438775344309271,-0.0019330431062275447,0.048925285102006125,-0.004035145136040359,-0.0013567318100087856,-0.0013567318100087856
428,4.28,-0.007591388168258277,0.03267655325611103,-0.024309030697425252,-0.003470010970500618,-0.002000088042796856,-0.002000088042796856
429,4.29,-0.0003689184688376397,0.023703496337267392,-0.05976157155678494,-0.002327255641515245,-0.0009252646535606377,-0.0009252646535606377
430,4.3,0.011710260633448901,-0.009515889858117743,-0.008847810686949648,-0.0019781898941648906,-0.00022984088331068199,-0.00022984088331068199
431,4.31,0.007864919764677765,-0.02902887747931634,0.0626684950798073,-0.002581285037575169,-0.001508800057900881,-0.001508800057900881
432,4.32,-0.009222168119189557,0.0001633090085148177,0.0414670848365544,-0.004732123525139135,-0.0010450726831473514,-0.0010450726831473514
433,4.33,-0.013852097963247195,0.02978328255129649,-0.04226914189568581,-0.0038589320388309205,-0.0014307052980134937,-0.0014307052980134937
434,4.34,-0.0013290861751000635,0.019059651816786462,-0.07142745826042762,-0.002001159562669298,-0.0030920110415925753,-0.0030920110415925753
435,4.35,0.010045366647437168,-0.017924976016650742,-0.009379590637111041,-0.001158323019629011,-0.003990827521829976,-0.003990827521829976
436,4.36,0.008308253079418269,-0.036230007576448855,0.06029359710612585,-0.002552840255922909,-0.003534913751335738,-0.003534913751335738
437,4.37,-0.012263904496533425,0.0009381688257423734,0.04743920664524899,-0.0033520381117803297,-0.001215964555990667,-0.001215964555990667
438,4.38,-0.013395829393221438,0.020565234511787427,-0.03811486163989865,-0.0028387469599660967,-0.00235240247764057,-0.00235240247764057
439,4.39,-0.003987535199157143,0.024608345899647527,-0.05966984986185668,-0.0008883499043732619,-0.001858284642549492,-0.001858284642549492
440,4.4,0.004776407020637412,-0.016138640551312818,0.006317666666352181,-6.060503471515699e-05,-0.0016829787420616414,-0.0016829787420616414
441,4.41,0.005239295119919444,-0.021433060774168778,0.062427583304088395,-0.002821784272484468,-0.0014286305604160835,-0.0014286305604160835
442,4.42,-0.005505640470047259,0.006760014678613436,0.04515440331767453,-0.003834052298557424,-0.001102867380995343,-0.001102867380995343
443,4.43,-0.010350072447039116,0.022312308422888144,-0.03899219061680505,-0.003078383167557543,-0.0011211348127660326,-0.0011211348127660326
444,4.44,-0.010907502260898951,0.014011193370379439,-0.06483362653538567,-0.0027144291081522835,-0.0012308683615282366,-0.0012308683615282366
445,4.45,-0.005533796006964448,-0.018923730611462047,-0.0003264276906965735,-0.0014208345024315332,-0.0002507223095942099,-0.0002507223095942099
446,4.46,0.007527744311482081,-0.02179592559187886,0.06423447818223896,-0.002574357104216877,-0.0019055251554438485,-0.0019055251554438485
447,4.47,0.0026378564383725267,0.0016195364922372106,0.03406172699803214,-0.004368277242362811,-0.002423832746683984,-0.002423832746683984
448,4.48,-0.014470573265998873,0.030085376077169195,-0.04481061762215451,-0.004428393968596254,-3.1666665910610675e-05,-3.1666665910610675e-05
449,4.49,-0.0004101935672404509,0.0077137124704415305,-0.06760457649795891,-0.0022708524584730307,-0.0005848901472082753,-0.0005848901472082753
450,4.5,0.013218711932323022,-0.012756616107385401,-0.0073636151019948505,-0.0007526692528774015,-0.0011797086369010812,-0.0011797086369010812
451,4.51,0.011642379675692061,-0.016799389980337767,0.06779252306127898,-0.0020475338276570226,-0.00043872645709578664,-0.00043872645709578664
452,4.52,-0.004714639808662125,0.005537276972852283,0.04427475853692424,-0.0032509653243263537,0.0011160922456150337,0.0011160922456150337
453,4.53,-0.010992954960422598,0.021083363214292012,-0.03472185440119962,-0.00304119338064957,0.0017728788899925958,0.0017728788899925958
454,4.54,0.0019983338056795757,0.007270662471233728,-0.07282011040635702,-0.002297904712449813,-0.001101574427466602,-0.001101574427466602
455,4.55,0.02034775472483166,-0.01930895281892038,-0.0010316983049688047,-0.0016229172854618176,-0.0012744179059452508,-0.0012744179059452508
456,4.56,0.02019353780579722,-0.030447452232394714,0.07155957294316652,-0.0018735045744504328,-0.001997590813124862,-0.001997590813124862
457,4.57,-0.009137891639392192,0.0060684458421328205,0.04632508676372155,-0.0032919781564341877,-0.0018675752878795648,-0.0018675752878795648
458,4.58,-0.022282413393043668,0.025730977012699302,-0.03538624678244113,-0.0016836886411855938,-0.0005235997399096186,-0.0005235997399096186
459,4.59,-0.0030151125676494113,0.027314632670086242,-0.06178641720238053,-0.002357595190181604,-0.0006106704178163174,-0.0006106704178163174
460,4.6,0.015714670363476103,-0.010878610150843179,0.005819476847992621,-0.0032401876648433005,-0.0012736091885698915,-0.0012736091885698915
461,4.61,0.01685364177791089,-0.04397485890729269,0.06773635018925951,-0.002056318490357202,0.00018768632723201108,0.00018768632723201108
462,4.62,0.0005073673007814812,-0.021042396697143542,0.045741759178203015,-0.0031893853608470344,-0.00097747999326641,-0.00097747999326641
463,4.63,-0.007148014172469669,0.016440046145383535,-0.05048995267374405,-0.004205504210272294,-0.001371030885670138,-0.001371030885670138
464,4.64,0.003343556103968006,0.024538454781912192,-0.07199028781206163,-0.0030859832779082863,-0.0008842738966320633,-0.0008842738966320633
465,4.65,0.01740898876216732,-0.022453336886788303,-0.010000138665471937,-0.001988304431979365,-0.0013741120908972314,-0.0013741120908972314
466,4.66,0.006968041162666857,-0.027928146463584717,0.06522799053570885,-0.0023377304559094505,-0.0006428361967606262,-0.0006428361967606262
467,4.67,-0.0002830583484042578,-0.013519849475497586,0.05105882487976859,-0.0044393447227010574,-0.001278941563287436,-0.001278941563287436
468,4.68,-0.01534795145008197,0.03075990470423839,-0.0320558372774257,-0.004779425248133159,-0.0014580717040484268,-0.0014580717040484268
469,4.69,-0.009272400514972088,0.025226719193243152,-0.0707962556458338,-0.002925402408997614,-0.0005819174981534928,-0.0005819174981534928
470,4.7,0.0041983824286034935,-0.01619797288984422,-0.014491609145527773,-0.0008039256858364432,-0.00307526268902749,-0.00307526268902749
471,4.71,0.003367106259605141,-0.027212930016168223,0.06634339619171842,-0.001915767469909579,-0.002908681287574175,-0.002908681287574175
472,4.72,-0.014106278628590565,-0.005484653869801143,0.04205664726007474,-0.004610964827212468,-0.0002346181747514641,-0.0002346181747514641
473,4.73,-0.020476391597695612,0.02790813652574725,-0.032695213387913126,-0.005100684771818562,-0.0015714798020847582,-0.0015714798020847582
474,4.74,-0.0019075470892994575,0.016774606434307452,-0.06850781487311225,-0.003194127489134022,-0.0034628766483596283,-0.0034628766483596283
475,4.75,0.002854717080338797,-0.005994008236056723,-0.00862515544484014,-0.0010232381826623003,-0.002573079615370206,-0.002573079615370206
476,4.76,0.008459040841229924,-0.029554752081516145,0.06435567362776351,-0.002277665119259253,-0.0018784463771266864,-0.0018784463771266864
477,4.77,-0.006912963024384269,0.011539067336565775,0.03322261749767051,-0.0035712174141943327,-0.00160009437296387,-0.00160009437296387
478,4.78,-0.011076978546955767,0.035870673698425934,-0.041062313349357143,-0.0013080200322900365,-0.0026343917126828353,-0.0026343917126828353
479,4.79,0.0031005346923381302,0.021290731781558464,-0.0626654825528122,-0.0021592509728129037,-0.0034653347755774586,-0.0034653347755774586
480,4.8,0.006169230444492565,-0.003577528308575483,0.003424449281750678,-0.0026676650101302673,-0.002212875502507471,-0.002212875502507471
481,4.81,0.006195938591728098,-0.014593376421817534,0.059079644367209735,-0.0004232893899962425,-0.00166881138885125,-0.00166881138885125
482,4.82,-0.0006710431683284207,0.009073294514535129,0.03886072736690477,-0.0022498796354884693,-0.001066894231350258,-0.001066894231350258
483,4.83,-0.006000807781680167,0.03717927190476417,-0.03871754089871045,-0.00313558800474441,-1.1053834219750967e-05,-1.1053834219750967e-05
484,4.84,-0.009138026795898842,0.03636012602412695,-0.05689937689437185,-0.002020632393573201,-0.0012458159402256891,-0.0012458159402256891
485,4.85,0.015638173924892744,-0.014663565631104072,0.012790873634704915,-0.0006786812931114148,-0.0022221449811999318,-0.0022221449811999318
486,4.86,0.0169330284213935,-0.0189620114373815,0.06597650651032055,-0.0033471183277039825,-0.00232000191715286,-0.00232000191715286
487,4.87,-0.00536105525088534,-0.009770989555334952,0.04160501303339353,-0.006662398865614722,-0.0015791761223423425,-0.0015791761223423425
488,4.88,-0.010830631821192482,0.018472697516985926,-0.03869371597473974,-0.005409712344149747,-0.00012612762886181816,-0.00012612762886181816
489,4.89,-0.00045345399757466603,0.00831062055704495,-0.06636352321173127,-0.002607065000416534,-0.001308578974633315,-0.001308578974633315
490,4.9,0.014585588898616757,-0.028490442737107505,-0.003170227254253973,-0.0004974916431009633,-0.0014404415571838982,-0.0014404415571838982
491,4.91,0.004971546495716221,-0.032843693226837355,0.06622413331142024,-0.002306738130706836,-0.0011002775545784467,-0.0011002775545784467
492,4.92,-0.00838248019010963,-0.022538335984332403,0.03675747507138996,-0.003932759258065063,-0.0007441730731172862,-0.0007441730731172862
493,4.93,-0.014527970270298857,0.015552580452965089,-0.04652028435122271,-0.004601429602367629,-0.0004275291823027129,-0.0004275291823027129
494,4.94,0.007521832043855938,0.00939046185148186,-0.0730150136439503,-0.003126797045635399,-0.0007094640154824527,-0.0007094640154824527
495,4.95,0.01433666943745452,-0.022905221769625422,-0.006909765205608254,-0.0021537302343328647,0.0002666527505466262,0.0002666527505466262
496,4.96,0.005377480066696432,-0.04166127167726414,0.06058059792511776,-0.00045896871330163567,-9.918006498532028e-05,-9.918006498532028e-05
497,4.97,-0.0010158112657680067,-0.023052482115400154,0.044999195153993615,-0.003595542950685206,-0.00024300157606594819,-0.00024300157606594819
498,4.98,-0.0064518219691676384,0.014102293970258122,-0.036860453176907663,-0.003664953442706215,0.00032816578312743286,0.00032816578312743286
499,4.99,-0.006291012684382738,0.01440608897209034,-0.07325844316246274,-0.0006241371959355577,-3.3542250415987546e-09,-3.3542250415987546e-09
500,5.0,-0.0001186100806278823,-0.029474671143848392,0.0023232525844989194,-0.0016783286925520515,-0.0024316963496542913,-0.0024316963496542913
501,5.01,0.006751897597465242,-0.041399257250511724,0.061191672438546896,-0.0034714794782292587,-0.002051270654184759,-0.002051270654184759
502,5.02,-0.008644839144155633,0.0021380761785259016,0.05178749291322216,-0.003118971522520291,-0.0011586297447186448,-0.0011586297447186448
503,5.03,-0.01886868109704585,0.032672529511590026,-0.03258009932457041,-0.0042303498758204106,0.00035842863165219197,0.00035842863165219197
504,5.04,0.003084209781184838,0.031258288357001555,-0.06274028240318802,-0.0034369141422378948,-0.0019191272997578575,-0.0019191272997578575
505,5.05,0.009945015363922557,-0.022764862917553665,0.001296286249009019,-0.0020373673946688475,-0.004114984114790549,-0.004114984114790549
506,5.06,-0.0019266874962898947,-0.023005433231132955,0.0711972822778973,-0.0026064255053402877,-0.0033246981377859394,-0.0033246981377859394
507,5.07,-0.011601668629389076,0.011996795076705136,0.05605726639237018,-0.003943874289806915,-0.00197359144385174,-0.00197359144385174
508,5.08,-0.008404156335151552,0.04705383626519939,-0.04361697065701614,-0.00434986132361481,-0.0004466781334020246,-0.0004466781334020246
509,5.09,0.0005578394622125938,0.04374780477685354,-0.06569568260942996,-0.003752743840266951,-0.0012824828130127675,-0.0012824828130127675
510,5.1,0.01555760517878199,-0.0072366263199211064,0.005042048100389985,-0.0032409814775606824,-0.0021170893629793,-0.0021170893629793
511,5.11,0.014288757391979661,-0.006475976070307463,0.07230723959373865,-0.002550562349021216,-0.003402662952785111,-0.003402662952785111
512,5.12,0.0018587787658788674,0.016442546222138588,0.041920920857816985,-0.001532909346861802,-0.0022937086965157307,-0.0022937086965157307
513,5.13,0.001568460980892285,0.04603418119879975,-0.04420587215961674,-0.002693592673452197,-0.0017280263308530456,-0.0017280263308530456
514,5.14,-0.006446690442084783,0.025992280288055617,-0.06252472569142183,-0.003419206568044556,-0.0023138401693317922,-0.0023138401693317922
515,5.15,-0.002425177788326638,-0.004569748010588593,-0.007996527962896481,-0.0027035933623507412,-0.0019257328874645527,-0.0019257328874645527
516,5.16,0.015189274448337392,-0.010539060512307075,0.05660588171819263,-0.0016295755080114093,-0.0009085991189886143,-0.0009085991189886143
517,5.17,-0.0002678615648930827,0.011910666506920485,0.03127269917918994,-0.0021152582631062066,-0.0007074914402537796,-0.0007074914402537796
518,5.18,-0.014390607914560347,0.031136560019454005,-0.04165838774471641,-0.003721554865871432,-0.0017706651760347513,-0.0017706651760347513
519,5.19,0.0014229575099478293,0.017036374084544947,-0.0765441443803206,-0.002470263197976158,-0.0023116260128090513,-0.0023116260128090513
520,5.2,0.008121063842679434,-0.006709806938460608,-0.00925097628745486,-0.0026694716047675165,-0.002967057187360973,-0.002967057187360973
521,5.21,0.023340118112253595,-0.0349880954242836,0.0557876905565939,-0.0038580415698734718,-0.0016201047256384489,-0.0016201047256384489
522,5.22,0.003905128995079387,-0.018727534365428636,0.03663550986247433,-0.0034697423261137532,1.2183903030979885e-06,1.2183903030979885e-06
523,5.23,-0.015201623454792448,0.00016579225256730876,-0.04088736771812131,-0.0036143019693548415,-0.0008540897735845747,-0.0008540897735845747
524,5.24,-0.014930056424374586,0.010986284854654527,-0.06224440960388125,-0.002215512325484689,-0.002048344345709632,-0.002048344345709632
525,5.25,0.001712800808871054,-0.016572500807899224,0.0045812836931274185,-0.000726764701310307,-0.003526447131984325,-0.003526447131984325
526,5.26,0.012105366040627667,-0.04455549722657404,0.06503167490070322,-0.0017862449307235395,-0.0021212287625920704,-0.0021212287625920704
527,5.27,-0.003975135388118207,-0.031297273687769175,0.05476793736958388,-0.0018660878599077784,-0.0010571419461838654,-0.0010571419461838654
528,5.28,-0.014600043939876583,0.0053919278004249185,-0.028849526364139844,-0.0015584063916210392,-0.0004561542559460889,-0.0004561542559460889
529,5.29,-0.01691248689597551,0.015178504719768952,-0.05526450183815031,-0.0010152023710793,-0.000586560484644516,-0.000586560484644516
530,5.3,0.0022901231134489436,-0.03208488952856078,-0.0012396881800233548,-0.001766753160630598,-0.0020568173023390764,-0.0020568173023390764
531,5.31,0.009451300093607395,-0.04097824041007592,0.07107178517174702,-0.002275517385404691,-0.002927415998731654,-0.002927415998731654
532,5.32,-0.008739863883354276,-0.03469429091469701,0.04705523000686833,-0.00202507798175252,0.0009197721296161833,0.0009197721296161833
533,5.33,-0.017315862075644974,0.011071629998118834,-0.04051836591295798,-0.0028186514650421924,0.000858003495514901,0.000858003495514901
534,5.34,-0.003594546479733003,0.013024995805316866,-0.06897305349078096,-0.00209653268725389,-0.0021915174218559864,-0.0021915174218559864
535,5.35,0.008293924545511469,-0.020507793177848694,-0.005533414834692258,-0.0003104128674775948,-0.0030976313724847045,-0.0030976313724847045
536,5.36,0.009856084244408082,-0.027389869220227403,0.06825684300930915,-0.0016413313564627007,-0.0030630331639078037,-0.0030630331639078037
537,5.37,0.002241811819584845,-0.0013763581103580155,0.035152784429165855,-0.0043006365227974,-0.0011702080616368196,-0.0011702080616368196
538,5.38,-0.007926876564236362,0.03773174280451682,-0.04247006979511298,-0.003071985502389253,0.00012754696808255973,0.00012754696808255973
539,5.39,0.00789013919250858,0.017788393140440187,-0.07720023111809013,-0.0010146979249544665,-0.0005887711701053652,-0.0005887711701053652
540,5.4,0.010424273842435204,-0.0036723310440384856,-0.013870041477013248,-0.0018156914408507328,-0.0007516716879649518,-0.0007516716879649518
541,5.41,0.0015673988214808393,-0.020464736097601327,0.055733877814160976,-0.002711305592380527,-0.0018454245300057028,-0.0018454245300057028
542,5.42,-0.002763396188603388,0.005069939630288071,0.03189653608093262,-0.0036171405761091994,-0.0011491707869880185,-0.0011491707869880185
543,5.43,0.0006910402161592665,0.03790664566578157,-0.040202983792365754,-0.0041438026133849845,-1.8928459365888948e-05,-1.8928459365888948e-05
544,5.44,-0.00156005861316501,0.02950668951075457,-0.06278731034121197,-0.0035134050606555585,-9.115016665844649e-05,-9.115016665844649e-05
545,5.45,0.0031178996970893796,-0.00918340496690126,0.006027006256223395,-0.0012102013451310786,-0.0009686409131551,-0.0009686409131551
546,5.46,0.020099011907635803,-0.011240427322594525,0.06726116792737663,-0.001779433588226058,-0.0009534985701063377,-0.0009534985701063377
547,5.47,0.001220646251788146,0.022262472598222387,0.046763691577644616,-0.004061188103848125,-0.0020872666578097233,-0.0020872666578097233
548,5.48,-0.00775585193055648,0.03365154065056312,-0.03188766885560145,-0.0035227739405760444,-0.0017213924060778887,-0.0017213924060778887
549,5.49,-0.0015542140520583704,0.03617350046565583,-0.06445069361183685,-0.003118104950096414,-0.0015935841988044335,-0.0015935841988044335
550,5.5,0.004983756918095434,-0.004289091259824735,0.0050390070650486035,-0.0013868070217384807,-0.0032187371250593515,-0.0032187371250593515
551,5.51,0.013061695182348017,-0.010917727693503411,0.06719803789219797,-0.0021175717888260075,-0.0036380922004633203,-0.0036380922004633203
552,5.52,-0.0007895688479950978,0.015487782875139019,0.04672957317997114,-0.003012817439579138,-0.002353324463125375,-0.002353324463125375
553,5.53,-0.01916731105036583,0.04371757919793622,-0.03621875912914816,-0.002347259031047858,0.00011509008577788172,0.00011509008577788172
554,5.54,-0.011205724228877917,0.03061533297993692,-0.06023834791982339,-0.002247540903868725,-0.0010731643833812856,-0.0010731643833812856
555,5.55,0.015548225809366458,-0.007887072048851152,-0.007075354935110408,-0.0021248293402755442,-0.0032412979194568307,-0.0032412979194568307
556,5.56,0.013729526345896933,-0.016897633383657622,0.07208257352812526,-0.002209851295415916,-0.0022429081712241707,-0.0022429081712241707
557,5.57,-0.008524879412403178,-0.009929920717846132,0.04350226816962873,-0.003483062350121198,-0.0008870582515956979,-0.0008870582515956979
558,5.58,-0.01955135468402681,0.030444117062192605,-0.031006206166085064,-0.0036514341637031,0.0003028428843342975,0.0003028428843342975
559,5.59,-0.0018174039891630535,0.01695779078086079,-0.06451356138211883,-0.003480661052132023,0.0016774730091546133,0.0016774730091546133
560,5.6,0.00540404009497209,-0.016210127000335365,-0.006374110817661337,-0.0023706039015249673,-0.00031165133294389335,-0.00031165133294389335
561,5.61,0.010681694480096579,-0.040588290356413474,0.063769665649834,-0.0017660153942769734,-0.0025783773397395605,-0.0025783773397395605
562,5.62,-0.011652944248965305,-0.021990444550364713,0.03386085621013171,-0.002424258716411497,-0.001005312212527249,-0.001005312212527249
563,5.63,-0.02141358834098935,0.008652365603088678,-0.04155728783900334,-0.001979187775228171,-0.0008811340895755998,-0.0008811340895755998
564,5.64,-0.00782631695896199,0.012590893863521569,-0.07141996194944605,-0.0022645025728446158,-0.002907971472066084,-0.002907971472066084
565,5.65,0.004631190292118783,-0.030322807536307637,-0.004000846619669434,-0.0009481960564182908,-0.003253942504746571,-0.003253942504746571
566,5.66,0.015028575508224656,-0.06365746251867627,0.06073736701258685,-0.0006493568055715125,-0.003337377408566889,-0.003337377408566889
567,5.67,-0.009562247489480029,-0.026325933810538202,0.038052920965516046,-0.0023058485864508693,-0.0017391237997022605,-0.0017391237997022605
568,5.68,-0.009397628791537849,-0.0017332067796330518,-0.04088562386105036,-0.002413521798381481,-0.0007165888637611136,-0.0007165888637611136
569,5.69,0.005733253967629655,-0.0006919394940400614,-0.07556346998124285,-0.0006307264180076304,-0.0026901477404466232,-0.0026901477404466232
570,5.7,0.0077157899733697076,-0.036888251490423817,-0.012998789453325488,-0.001275366888785187,-0.0008158671931380241,-0.0008158671931380241
571,5.71,-3.5452881490326098e-06,-0.04178230018164425,0.06408591428856025,-0.0018561665387103754,0.0001321285460666754,0.0001321285460666754
572,5.72,-0.007870186497137024,-0.020573348722032796,0.05781407445289412,-0.0035842340531064038,0.0008253195659447143,0.0008253195659447143
573,5.73,0.0007825239164621555,0.013933606355160489,-0.03245118421580029,-0.0024897565369649327,-0.0007388592790423735,-0.0007388592790423735
574,5.74,0.008302931496750446,0.013701337741861132,-0.06436486897489807,-0.0020028713858215195,-0.001969007024910342,-0.001969007024910342
575,5.75,0.01345528667713023,-0.03462059415392074,0.0023909533214559516,-0.0011104899556294164,-0.0008825486298001473,-0.0008825486298001473
576,5.76,0.0077101055065622506,-0.028945569345565997,0.06416204462544858,-0.004015882160544968,-0.001608260794966555,-0.001608260794966555
577,5.77,0.004029669937327195,0.003946738285577331,0.04033139223187539,-0.0066701656645588355,-0.0019218193030801085,-0.0019218193030801085
578,5.78,2.1513721988194404e-05,0.04289376114590091,-0.03703074231286831,-0.004898695907083524,0.00019301139063245305,0.00019301139063245305
579,5.79,0.0030838024759930224,0.03476972356689253,-0.05669581165983531,-0.002002772415286239,-0.0008764437775772335,-0.0008764437775772335
580,5.8,0.0061555455457875915,0.01058417192443077,0.004638166120730321,-0.0016377968101814575,-0.002433309012578773,-0.002433309012578773
581,5.81,0.020302523343010335,-0.007117126409737391,0.07323522222851762,-0.003466367032962984,-0.002369152712616878,-0.002369152712616878
582,5.82,0.004831667517398538,0.028394080853195343,0.03832806461889941,-0.0038958022846711884,-0.000818188849516969,-0.000818188849516969
583,5.83,-0.021420377584054046,0.0699520349114867,-0.04648574645548181,-0.002889263827512021,-0.0012775629749599187,-0.0012775629749599187
584,5.84,-0.012185302832426803,0.04724716687539773,-0.07202499420703984,-0.002708377933696768,-0.0009759567248696932,-0.0009759567248696932
585,5.85,0.004296066504287632,0.01411047734297781,-0.007660518769725594,-0.0024445316772916553,-0.001818881013207988,-0.001818881013207988
586,5.86,0.001289420876952052,0.006866129807955038,0.05269652929621703,-0.0018852971602110172,-0.0019167344649807586,-0.0019167344649807586
587,5.87,-0.010291313519804345,0.027466383790374405,0.037446433316546415,-0.0035932523337631273,-0.00018948209466706822,-0.00018948209466706822
588,5.88,-0.0062678756483669495,0.043896198880170656,-0.037230410170501514,-0.004392507035994789,-0.0008191271645920522,-0.0008191271645920522
589,5.89,-0.010033363883745261,0.027572127986446524,-0.0705957118558806,-0.004104164889634067,-0.0023688857081372605,-0.0023688857081372605
590,5.9,-0.008256710409120786,-0.011821000324823798,0.0033997236902473544,-0.0028805966242174646,-0.0010158425175126136,-0.0010158425175126136
591,5.91,0.009403908553223279,-0.029047429391072042,0.06728821178518271,-0.0022220294795786827,0.0006782436163127773,0.0006782436163127773
592,5.92,0.002502493180966372,-0.021098716288298666,0.040243786255279856,-0.002950435743804576,0.0018161594606600558,0.0018161594606600558
593,5.93,-0.006190872036905327,-0.000215980083455471,-0.040602190144014505,-0.003229829767653146,0.0011694500867293588,0.0011694500867293588
594,5.94,-0.0038924030211789557,0.012814168919926937,-0.06098417914198192,-0.0024097084411962393,-0.0013455197256200607,-0.0013455197256200607
595,5.95,0.0036407233194287857,-0.02569029061076224,0.00040239656649946817,-0.001616614127948632,-0.0015672434884289779,-0.0015672434884289779
596,5.96,0.008047905677830572,-0.04948425151563201,0.06699982619613641,-0.0013659537449717926,-0.00041648533273409214,-0.00041648533273409214
597,5.97,-0.0015256809796268434,-0.029376696666413262,0.042406810235812095,-0.00246935751263638,-0.00036453591019492,-0.00036453591019492
598,5.98,-0.01338267649475681,0.014063643510621362,-0.04249391905881632,-0.002250432637489107,-1.2684788162620893e-05,-1.2684788162620893e-05
599,5.99,-0.012482962143732885,0.006431058932736114,-0.07292537059422773,-0.003044102134299613,-0.0005589804395346196,-0.0005589804395346196
600,6.0,0.010241972005577858,-0.035943747418937834,-0.004338223576448218,-0.0032632666009194426,-0.002561813981616116,-0.002561813981616116
601,6.01,0.012161678153839438,-0.05530731246918972,0.08147021432406405,-0.0034763934638013783,-0.0008010961063012491,-0.0008010961063012491
602,6.02,-0.011658460464968306,-0.027124730686523144,0.05579848909420529,-0.004697026854553107,-0.0010925901235774758,-0.0010925901235774758
603,6.03,-0.009696197592380242,0.019348869058451786,-0.03103414190568521,-0.004659710279747491,-0.0009699953440996736,-0.0009699953440996736
604,6.04,0.00487754892751535,0.007563668149857067,-0.06677200318687698,-0.003333068909494523,-0.0024705751954784048,-0.0024705751954784048
605,6.05,0.006934700810339266,-0.024872539026916662,-0.005026262110685697,-0.0016315833920470288,-0.0036410413043272533,-0.0036410413043272533
606,6.06,0.019766969993795055,-0.04777300493161418,0.0640294453293436,-0.0027577066170845228,-0.001262268760987611,-0.001262268760987611
607,6.07,0.005089449183203497,0.0015994036120465793,0.042802820719974266,-0.003520899550689715,0.00015143994548593072,0.00015143994548593072
608,6.08,-0.0038194239041931827,0.03938334145977765,-0.04453411528921615,-0.004635660993893496,-0.0010908344036251415,-0.0010908344036251415
609,6.09,0.005862247346289876,0.024817532068079993,-0.07913870187170563,-0.0031176293495627644,-0.0009414406481865217,-0.0009414406481865217
610,6.1,0.011311889621830922,-0.011124942944189937,-0.0024681186316376606,-0.0012354623074946765,-0.0019852962664439885,-0.0019852962664439885
611,6.11,0.011205715546816344,-0.018917342147985794,0.0616752405814437,-0.002620453281812327,-0.0026054427382550217,-0.0026054427382550217
612,6.12,0.006120530735544421,0.01861416037989663,0.049115077838240734,-0.004191984324872482,-0.0011036915953708199,-0.0011036915953708199
613,6.13,-0.005003940058549342,0.04761485726626574,-0.038287822775884314,-0.0041064052812241425,-2.6494761669081384e-05,-2.6494761669081384e-05
614,6.14,-0.022213094503431688,0.03001598026496296,-0.06152496677869667,-0.0023615232137675487,-0.0012765791599093233,-0.0012765791599093233
615,6.15,0.000496674500738641,-0.012463381351437396,0.006839191521120561,-0.002789026177831565,-0.0037510107852356603,-0.0037510107852356603
616,6.16,0.012136129945206393,-0.005553683879771624,0.06556314628032867,-0.0034547191152735136,-0.002623847139354697,-0.002623847139354697
617,6.17,-0.0002259840454028098,0.011265296348783553,0.03928067938261306,-0.004300674395630711,-0.0025319236278558,-0.0025319236278558
618,6.18,-0.012895679291729887,0.03609649310920355,-0.04453637375303903,-0.0043581543307413964,-0.0018901552889389692,-0.0018901552889389692
619,6.19,-0.018290222697810575,0.02034856590598949,-0.0689220811066315,-0.0018885688519420165,-0.002989076345900503,-0.002989076345900503
620,6.2,0.004664374088028356,-0.019388781369414593,-0.011551465348798983,-0.0007492809540052646,-0.002363663579064053,-0.002363663579064053
621,6.21,0.008403289506641431,-0.02146174130580156,0.058539851548237064,-0.0017685125500772165,0.00035438320646292786,0.00035438320646292786
622,6.22,-0.0023123152841275007,-0.004844768949466909,0.03951813140800169,-0.0020156164368779813,0.0007619237843196363,0.0007619237843196363
623,6.23,-0.014442387553722038,0.020070330222610323,-0.034475466897415145,-0.0012728368237469527,-0.000949474964604353,-0.000949474964604353
624,6.24,-0.00974146886809216,0.012186278672718157,-0.06907039861987557,-0.0016934673825708805,-0.0018160178707624253,-0.0018160178707624253
625,6.25,0.006354178287512432,-0.014687624506325287,-0.007185089390168042,-0.0031376920080881483,-0.002724911713152537,-0.002724911713152537
626,6.26,0.010217181898769767,-0.03527300057243635,0.06568877045524253,-0.004351644395479175,-0.001563450006908476,-0.001563450006908476
627,6.27,-0.0025980664028884127,-0.01143828055718562,0.04193590479225869,-0.004332898590388851,-0.001155076751699217,-0.001155076751699217
628,6.28,-0.009017112191661427,0.018967118570035385,-0.027648346250814686,-0.003352319495722528,-0.0014217378055504145,-0.0014217378055504145
629,6.29,-0.00255977090234988,0.01605927758239402,-0.06625304052327778,-0.002539268806773041,-0.003332555925170852,-0.003332555925170852
630,6.3,0.00985982726882578,-0.006142500407659988,0.004335119011010028,-0.0017704441836076258,-0.004408555165692613,-0.004408555165692613
631,6.31,0.014161846460325409,-0.017819393640325053,0.06725661835310791,-0.0012421058339141596,-0.002752659381903404,-0.002752659381903404
632,6.32,-0.00911547493882543,0.0002603145589411193,0.04653615334578135,-0.0036988992457763588,-0.0008714851161524979,-0.0008714851161524979
633,6.33,-0.01892450373885977,0.0317164392170045,-0.036502887365477424,-0.005730100390433004,-0.0007864059339372638,-0.0007864059339372638
634,6.34,-0.012992956785524987,0.03193269532417549,-0.06709373337294086,-0.00414134194716203,-0.0012733063099900695,-0.0012733063099900695
635,6.35,0.008266775056416239,-0.0158586263813805,-0.011367539303740147,-0.001255178818561893,-0.0022752729591135447,-0.0022752729591135447
636,6.36,0.02707504293113422,-0.027110154539928967,0.06105167142900968,-0.001987609332203752,-0.002215819963900284,-0.002215819963900284
637,6.37,0.0023154484949531122,0.00308763216158756,0.055719005756677056,-0.00280594554523125,-0.001064464164615349,-0.001064464164615349
638,6.38,-0.008778486935513367,0.027534494035554132,-0.037482947561086874,-0.0044446472580704326,-0.0022308087150394768,-0.0022308087150394768
639,6.39,0.0019037923056560314,0.013740305791058609,-0.07185650823723386,-0.0034343730002717727,-0.00040405944481476804,-0.00040405944481476804
640,6.4,0.019595756197098625,-0.022381313912939384,-0.012237137587456686,-0.0016909625678069298,-0.0007809051250827043,-0.0007809051250827043
641,6.41,0.01360239279855692,-0.030478200053706307,0.06283019089459833,-0.0014589910171088538,-0.0008624346144768117,-0.0008624346144768117
642,6.42,-0.003526981816802062,-0.00903790171122966,0.04310757162841289,-0.0017017336926255398,-0.0008803157902748551,-0.0008803157902748551
643,6.43,-0.011161295654268662,0.02407624083157961,-0.0422994273977422,-0.0037475910257255595,-0.003220637903606157,-0.003220637903606157
644,6.44,-0.008894294265358683,0.0013506411314342798,-0.06848033188664773,-0.0011026407821404934,-0.004358415518260662,-0.004358415518260662
645,6.45,-0.0005904328628162326,-0.03371019021342304,-0.00730594809937778,-0.0006946787722631295,-0.0029553674382647123,-0.0029553674382647123
646,6.46,0.015149169132831024,-0.03585728751153531,0.06503298904258384,-0.0036795186921967037,-0.00232821204983926,-0.00232821204983926
647,6.47,-0.0032759849226474446,-0.003219354794047854,0.04543898704445283,-0.004594099554809654,-0.00046301634466235265,-0.00046301634466235265
648,6.48,-0.006073739946409228,0.02667139470310128,-0.03051884140529016,-0.0033356516302324372,0.00027215356887064354,0.00027215356887064354
649,6.49,-0.00480646003738814,0.012424575643303348,-0.06229374876082652,-0.002781580471797532,-0.001885809279481659,-0.001885809279481659
650,6.5,-0.00645784453170408,-0.021297726127639003,0.002891861017842655,-0.0014293714491885065,-0.0016115127951659193,-0.0016115127951659193
651,6.51,0.009784493440080035,-0.02745320393854755,0.06256220032046607,-0.0031459003847371125,-0.002082793527806368,-0.002082793527806368
652,6.52,0.004295330106757966,0.006820947201539202,0.04013324756780553,-0.004626925493139227,-0.0016433209988699045,-0.0016433209988699045
653,6.53,-0.01549260634836152,0.03455029123262616,-0.03098736016066786,-0.003418408409100025,-0.0008986746655103961,-0.0008986746655103961
654,6.54,-0.010338189802538922,0.013342454308097648,-0.06624056116826714,-0.002240036801287629,-0.0010383239566860909,-0.0010383239566860909
655,6.55,0.006189546237673871,-0.025096961525298753,0.00031908551804764144,-0.001274760658694325,-0.0015530138098970765,-0.0015530138098970765
656,6.56,0.018156837118026927,-0.021551226634044983,0.061457652985882794,-0.002414882920972053,-0.002487176506109419,-0.002487176506109419
657,6.57,0.001295290993868447,0.00608705865407216,0.04105192807805739,-0.004439758384129221,-0.0016375820307008436,-0.0016375820307008436
658,6.58,-0.013606859262363151,0.032935710337058756,-0.03140973728727131,-0.00414221870674629,-0.00017417732184832216,-0.00017417732184832216
659,6.59,-0.006588257209002335,0.017849457303245456,-0.05637167680090626,-0.0019070339235633363,0.0005080646932012006,0.0005080646932012006
660,6.6,0.008253750332050648,-0.0201518286625432,-0.0017709599373526164,-0.0004650387834011839,-0.0017122704840090081,-0.0017122704840090081
661,6.61,0.007973419209500582,-0.01633467449278868,0.06622653586484159,-0.0021975675782439546,-0.002885497107187212,-0.002885497107187212
662,6.62,-0.008433887893416732,-0.004583913126492301,0.03684152557497127,-0.003881425202785393,-0.0005714873825413054,-0.0005714873825413054
663,6.63,-0.015821871076594596,0.025999504269112385,-0.046386669770829,-0.0041292374146524365,0.0005924049461968963,0.0005924049461968963
664,6.64,-0.00022501512038083623,0.027775428822135337,-0.06736450777808868,-0.0033344682097678985,-0.0015616031080520096,-0.0015616031080520096
665,6.65,0.004260867872916355,-0.00048442699176034533,-0.010743136205484956,-0.0019129280673840028,-0.002293540820602828,-0.002293540820602828
666,6.66,0.005764457610838172,-0.02276658405522607,0.0623873494535741,-0.0026422820300909602,-0.002822574775407503,-0.002822574775407503
667,6.67,0.0012162125953861392,-0.006763342687625145,0.03204631577009127,-0.004090379476673212,-0.002108035452199812,-0.002108035452199812
668,6.68,-0.014418357313856461,0.03230899131327619,-0.041396868354300724,-0.0033413463617452646,-0.0019528660277476782,-0.0019528660277476782
669,6.69,-0.0042192297300276274,0.023962211102291367,-0.06325626858838215,-0.0025611635618588945,-0.0014383495530178741,-0.0014383495530178741
670,6.7,0.013287969721887786,-0.009206197141028627,-0.008497851341256923,-0.0015789917153767833,-0.0026056079331830753,-0.0026056079331830753
671,6.71,0.009246125431886144,-0.0283502983938381,0.05667895727236745,-0.002847744849841597,-0.0033579756157281282,-0.0033579756157281282
672,6.72,-0.0007992849731623909,-0.012792761121417763,0.04970288856833048,-0.004618038843439447,-0.0014695002448792654,-0.0014695002448792654
673,6.73,-0.007109365341838671,0.028266711778766655,-0.033498242540510585,-0.0032128077876298284,-0.0010093390901863802,-0.0010093390901863802
674,6.74,-0.0031596103174026764,0.03969972773075942,-0.07276598226732742,-0.0034741140583629017,-0.00155902137583895,-0.00155902137583895
675,6.75,0.00795079994117127,-0.017520019329088917,0.0006277628343566329,-0.002528094097021764,-0.002575942253862829,-0.002575942253862829
676,6.76,0.01199186185161976,-0.03739192663392875,0.06258012017778711,-0.003669726108006715,-0.0025453891962042164,-0.0025453891962042164
677,6.77,-0.0036911322084500877,-0.007448501463186964,0.046733402195990786,-0.0069055768646471075,-0.0008963124803254907,-0.0008963124803254907
678,6.78,0.007376629474000126,0.02363232958865282,-0.031089713235869308,-0.005479595961534032,-3.890344550948587e-05,-3.890344550948587e-05
679,6.79,1.8538837249996998e-05,0.028936791107413116,-0.05860716590390059,-0.0038748355928028256,0.00016387144174628834,0.00016387144174628834
680,6.8,-0.006795110578350804,-0.007731380178966998,-0.003454611408909576,-0.001568740497928077,-0.0010762176148786727,-0.0010762176148786727
681,6.81,0.0023968414089550875,-0.02922651359176431,0.06962674343421454,-0.0018982554625400852,-0.0027353070741240712,-0.0027353070741240712
682,6.82,0.008415429480602768,-0.009608715415457512,0.05388550524882632,-0.003657469353468895,-0.003182591112146753,-0.003182591112146753
683,6.83,-0.004622549189209343,0.028258069765041957,-0.037786191021737865,-0.0027588491520438717,-0.0011294655382602975,-0.0011294655382602975
684,6.84,-0.010659466276076706,0.014640741319854935,-0.06183909993790486,-0.0007605668725498079,-0.00137532914786165,-0.00137532914786165
685,6.85,0.008146273751109682,-0.01629504711886466,-0.003916001811208481,-0.0013789691134562302,-0.0028706187094175648,-0.0028706187094175648
686,6.86,0.011877741451463635,-0.02686828577386413,0.0659454237343209,-0.0011421295506817038,-0.0011585229588180466,-0.0011585229588180466
687,6.87,-0.005534964228123332,-0.01178431920564646,0.0378482356863146,-0.003815024465827776,-0.00038526069449360337,-0.00038526069449360337
688,6.88,-0.009105190136524841,0.018779937307480545,-0.0331010881999539,-0.005274465093613168,-0.0009622322199674485,-0.0009622322199674485
689,6.89,-0.009186311944226519,0.01459585745539852,-0.06403902837389853,-0.0033797964818254,-0.000763100886894671,-0.000763100886894671
690,6.9,0.004170401525204785,-0.029092862547658117,-0.011149009816383386,-0.0008551463615757443,0.00025110818517286814,0.00025110818517286814
691,6.91,0.015320039685411764,-0.0429537199276111,0.0648615698472855,-0.0016847900628469115,-0.0005392790911137023,-0.0005392790911137023
692,6.92,-0.005913392505921461,-0.0031100399339281755,0.05087717483086512,-0.005295701175734964,-0.000507887228583005,-0.000507887228583005
693,6.93,-0.016662765915180497,0.022394553250657253,-0.03419799142693555,-0.005181316477645278,-0.0003598260059988249,-0.0003598260059988249
694,6.94,-0.011612178617391259,0.012379386611706823,-0.07867615558776148,-0.0027887910750807945,-0.0010066163370470982,-0.0010066163370470982
695,6.95,0.007399507349093426,-0.017835230116247453,-0.021535103202775185,-0.0011237527512731082,-0.0028268125052638552,-0.0028268125052638552
696,6.96,0.010938301273833863,-0.032734972017823216,0.0509752483407757,-0.0011053184694821984,-0.0025971382844684173,-0.0025971382844684173
697,6.97,-0.0014901413140875237,-0.017493518756038457,0.03917282311461004,-0.0038879469026438717,-9.175019503066757e-05,-9.175019503066757e-05
698,6.98,-0.0065176093133897505,0.023029835265504468,-0.04211450423276302,-0.0029715622247027253,-0.0008792500620498033,-0.0008792500620498033
699,6.99,-0.013603787190617837,0.03705613099192208,-0.07394336759315912,-0.0016050302983599029,-0.0017630932469030558,-0.0017630932469030558
700,7.0,0.007451428823277488,-0.0042050715355440495,-0.004225410358406553,-0.0021240760077310718,-0.00181819970046358,-0.00181819970046358
701,7.01,0.01430629908673099,-0.019276748988189284,0.06693559651074849,-0.003211890207004435,-0.002112011177179543,-0.002112011177179543
702,7.02,-0.00897277119904588,-0.006645104596315792,0.050602737230035985,-0.004628943557802301,-0.002232133824331414,-0.002232133824331414
703,7.03,-0.00954730169013355,0.027523295296792358,-0.0361150871089549,-0.00301294208757319,-0.0007078355710663885,-0.0007078355710663885
704,7.04,0.0035662340147511254,0.02226401498550215,-0.06440877576815088,-0.002311335376449096,-0.0011022196519093926,-0.0011022196519093926
705,7.05,0.012219337666445004,-0.0059127149088559865,-0.006001975493079358,-0.00246226435604786,-0.0011136082508158608,-0.0011136082508158608
706,7.06,0.005401157897341987,-0.017303864769632422,0.07190778801099071,-0.004492251662692,-0.00034609380070127585,-0.00034609380070127585
707,7.07,-0.0007633356150734578,-0.008595126338225578,0.05336260803511256,-0.00694743960038164,-0.0003407647886898892,-0.0003407647886898892
708,7.08,-0.004265742313694613,0.035060943511479994,-0.03491593148355856,-0.0062361237812472,-0.00036618376212511737,-0.00036618376212511737
709,7.09,-0.0033979081031388237,0.025513148734834318,-0.06591316985685741,-0.002794948077659586,-0.0011891485198907386,-0.0011891485198907386
710,7.1,0.01066707522246674,-0.010242181214141725,-0.0012509802240587599,-0.0011953102734906446,-0.0012189232601597664,-0.0012189232601597664
711,7.11,0.016094156546098345,-0.026310914058072427,0.06636010739146528,-0.004197574058600018,-0.003197988262842289,-0.003197988262842289
712,7.12,-0.007630286889664301,0.009105192498859452,0.04094669272892527,-0.005733585985603911,-0.0014553653893137994,-0.0014553653893137994
713,7.13,-0.009638014520936848,0.03246415544003801,-0.026359185473950518,-0.003266853762209891,-0.00012503888000007645,-0.00012503888000007645
714,7.14,-0.007718826893706262,0.02644387702913627,-0.06311366285986428,-0.003395887174738345,-0.0022167552578931963,-0.0022167552578931963
715,7.15,-0.005257954546270634,-0.00553206867092227,0.0028148863450912463,-0.003503975520169805,-0.0023266546228923914,-0.0023266546228923914
716,7.16,0.011263221221632654,-0.023104341423257367,0.06261328119411455,-0.004464036948788218,-0.0020956540644133216,-0.0020956540644133216
717,7.17,0.009876015154474303,0.009758950407975503,0.04602152347678262,-0.005956163064149834,-0.002188026962002189,-0.002188026962002189
718,7.18,-0.005013292914205945,0.03732970019582431,-0.03146225569565733,-0.005181822308720934,-0.0004289812698911222,-0.0004289812698911222
719,7.19,-0.012843428815713315,0.010411767666399167,-0.06172457811839832,-0.0032569014414345547,-0.0010878275728400024,-0.0010878275728400024
720,7.2,0.008581362789822942,-0.03683815249431814,-0.006574018783780423,-0.0010324961016432391,-0.0005690370471670941,-0.0005690370471670941
721,7.21,0.008778453764894898,-0.02579541675365609,0.045505627821638986,-0.002494969912112858,-0.0011657207603909215,-0.0011657207603909215
722,7.22,0.0034451030267948803,-0.015405501284015376,0.02825924134454213,-0.004315450926613784,0.000693953748550809,0.000693953748550809
723,7.23,-0.0013333591805426764,0.010637826828188196,-0.037788589467122914,-0.004281394967674543,0.0026009518393502397,0.0026009518393502397
724,7.24,-0.006504477377761791,0.010389010192242427,-0.06911385596053692,-0.004326136966294193,-0.0002826470280104681,-0.0002826470280104681
725,7.25,-0.0016888699105291891,-0.019249489622909698,-0.006289045453585003,-0.0031078600556125728,-0.0010341784893301339,-0.0010341784893301339
726,7.26,0.009425183369261445,-0.028969689281403515,0.06873560271489597,-0.004198616106312275,-0.0008706367710437707,-0.0008706367710437707
727,7.27,-0.006020808187474548,-0.007662078768675187,0.044623680191968135,-0.003769812809055283,0.001109436682266019,0.001109436682266019
728,7.28,-0.024974795902055008,0.028004479322346204,-0.04292516576379177,-0.002099781578806559,0.0006320832461228742,0.0006320832461228742
729,7.29,-0.010237370945071118,0.0112539343891235,-0.05795962830849841,0.00012578577774001874,-0.0020341592866875645,-0.0020341592866875645
730,7.3,0.01992242204662479,-0.007184349722253029,-0.0028936461562292307,-0.0009061655104707793,-0.0029181369525580177,-0.0029181369525580177
731,7.31,0.020003424000178315,-0.02901816410909754,0.060547577985500874,-0.0012409496122049901,-0.002475946588788869,-0.002475946588788869
732,7.32,-0.007853656036259555,-0.010975317262208292,0.04475094907144561,-0.002006249455646357,-0.0016596511792049652,-0.0016596511792049652
733,7.33,-0.01644666988190783,0.02116209416104803,-0.030257896545819465,-0.0023796456697854195,-0.0010033123143909607,-0.0010033123143909607
734,7.34,-0.013972797497925502,0.025296369558201207,-0.07647120766147886,-0.0023450555170805463,1.7360690024280888e-05,1.7360690024280888e-05
735,7.35,-0.005509220736848909,-0.008594672714562993,-0.007494651184338088,-0.0002534840466777859,-0.0017422277417388633,-0.0017422277417388633
736,7.36,0.017976778448662648,-0.04309114990062011,0.05862878340031242,-0.0018238109391310227,-0.0022989232896763467,-0.0022989232896763467
737,7.37,0.0027450690116207982,-0.014150237011210147,0.04515446966648309,-0.00382214475790972,-0.001092227694726666,-0.001092227694726666
738,7.38,-0.006561518367080598,0.01402703159501562,-0.026443821352800115,-0.0029618190435269512,-0.0014933797660188575,-0.0014933797660188575
739,7.39,0.002521126834778254,0.020426253973828006,-0.060459969992521775,-0.0023642474996680147,-0.0015699744607055824,-0.0015699744607055824
740,7.4,0.013430686517163216,-0.015424521740207395,0.001739460144736877,-0.0027719450439464173,-0.0008264624134392564,-0.0008264624134392564
741,7.41,0.008245906561153888,-0.029427461860566006,0.061850884885198985,-0.002702882703522553,-0.0018019390664505762,-0.0018019390664505762
742,7.42,-0.005367155115015161,-0.008539215757508569,0.04388619042262026,-0.003509293742688939,-0.0014629677657356911,-0.0014629677657356911
743,7.43,-0.0001274799878706696,0.03942025477969315,-0.042365625275986224,-0.0034352322610511216,-0.002718358886954889,-0.002718358886954889
744,7.44,0.0002021044904035518,0.03083070464072067,-0.07671808622610259,-0.0027883573850415165,-0.0031900975527798976,-0.0031900975527798976
745,7.45,0.0026016693211457515,-0.02100763189688693,-0.006855799742099031,-0.0023678703781587185,-0.0030211317251536357,-0.0030211317251536357
746,7.46,0.011792636644084033,-0.019933510905538875,0.07632186634378609,-0.003416099447990164,-0.003176953167536209,-0.003176953167536209
747,7.47,0.0018977927054734992,-0.000753794735649755,0.04660145449837881,-0.004348302510837686,-0.0012805045760259494,-0.0012805045760259494
748,7.48,-0.010820608274392237,0.04046975722279292,-0.04249786260922777,-0.004128474928179019,0.0008686527716967433,0.0008686527716967433
749,7.49,-0.0003313161737645994,0.024632177147538202,-0.07533303533023679,-0.003023362961186745,0.0009816789181638509,0.0009816789181638509
750,7.5,0.00046780545130623355,-0.004200425206028372,-0.007120797278105856,-0.0026523156980162318,2.6382883746542996e-05,2.6382883746542996e-05
751,7.51,0.004466774883161536,-0.025926557003748824,0.0690956072468867,-0.002603796044963628,-0.0012181777563106074,-0.0012181777563106074
752,7.52,-0.0013763850826067434,0.0007445438124061262,0.04241762980698416,-0.006234566257888009,-0.0006926178774853901,-0.0006926178774853901
753,7.53,-0.013187669991334217,0.040024556139469224,-0.04014919266766617,-0.007155974455148604,-0.0007120215249288223,-0.0007120215249288223
754,7.54,-0.021871890565040016,0.02911403237936091,-0.07567702897950951,-0.002151481764783821,-0.0009239041785180836,-0.0009239041785180836
755,7.55,-0.005095284581174457,-0.0002880150790103026,0.0035309248001485043,-0.0009620875934757184,-0.001636427525127039,-0.001636427525127039
756,7.56,0.019074835471843375,-0.021116854834911096,0.07368160391018945,-0.001671933094405301,-0.003160757110535061,-0.003160757110535061
757,7.57,0.0038280115259655897,0.0017264318047021231,0.048049978633043666,-0.0038827325056648336,-0.0005862033284139455,-0.0005862033284139455
758,7.58,-0.004022009105798196,0.011596326350259074,-0.036456074132996244,-0.005630419669207986,0.0008635548707345736,0.0008635548707345736
759,7.59,0.0038661609580726607,0.0068528579826795865,-0.06654266974555267,-0.004388450205279804,-0.0002043579474774594,-0.0002043579474774594
760,7.6,0.00010638727328400556,-0.013447578465416318,-0.004400781448480849,-0.0026304984568703174,-0.0017539086772029961,-0.0017539086772029961
761,7.61,0.006219136606683114,-0.019728833549264503,0.06007051776529308,-0.0024451240385802136,-0.0017955607701299469,-0.0017955607701299469
762,7.62,0.013837211468221186,-0.01640032187423373,0.05902812677227233,-0.0029847084283068487,-0.0017134570380479273,-0.0017134570380479273
763,7.63,-0.01218489987695797,0.019053743500644826,-0.030361184982998335,-0.004686938403462398,-0.0013824473572833875,-0.0013824473572833875
764,7.64,-0.012788957706065864,0.01637041819615273,-0.06708715635463366,-0.0039087070503558705,-0.001245900538463544,-0.001245900538463544
765,7.65,0.021376871289978262,-0.028895253246017282,-0.006384942484305208,-0.0008739028891643808,-0.0009756498088214164,-0.0009756498088214164
766,7.66,0.016404536946041683,-0.028283250928364752,0.05885049731488301,-0.003133191134514836,-0.0004425334365636546,-0.0004425334365636546
767,7.67,-0.017966442578171652,-0.01805489469392301,0.038627797166615276,-0.004595049430301137,-0.0008406985087346318,-0.0008406985087346318
768,7.68,-0.010450965275218773,0.013851836454310585,-0.03762007501928824,-0.003352860678915306,-0.0013428493749488948,-0.0013428493749488948
769,7.69,0.007383416998612009,0.011871720708246885,-0.06350499366294861,-0.00131259168530114,-0.0009061612398720037,-0.0009061612398720037
770,7.7,0.002890462875847724,-0.016665361337193117,-0.014101051092972428,-0.0006729720853826599,-0.0010292290978440764,-0.0010292290978440764
771,7.71,-0.0010484178330174582,-0.04036542039463484,0.054548320460389904,0.0006143746311800463,-0.003105305071510064,-0.003105305071510064
772,7.72,-0.0070492056592189505,-0.00833257243886563,0.03989385384592395,-0.0019928302595486032,-0.0025197215113255986,-0.0025197215113255986
773,7.73,-0.006749271727138281,0.04213551362191421,-0.04520903539428534,-0.003257020070942853,-0.0015889844406021994,-0.0015889844406021994
774,7.74,0.0024983132388077534,0.015375381369628585,-0.06657891839807925,-0.001841490149874838,-0.0021226191722385824,-0.0021226191722385824
775,7.75,0.009869587347063096,-0.018059590729284498,0.0061258428302528485,-0.001526197669573484,-0.002082065422016004,-0.002082065422016004
776,7.76,0.014939156420310021,-0.029536318926656133,0.07098395409533115,-0.003062949848383468,-0.0018652721132534254,-0.0018652721132534254
777,7.77,-0.017398658668322135,0.012891477148525385,0.0422083070063849,-0.004652118542752432,-0.0011503139221430362,-0.0011503139221430362
778,7.78,-0.01545568974792604,0.026467526004791294,-0.030584132930043847,-0.003773392834388083,-0.0010598623407904783,-0.0010598623407904783
779,7.79,-0.0006493731965292147,0.025594366225387105,-0.06438254284788547,-0.003100386296653497,-0.0004086827533320187,-0.0004086827533320187
780,7.8,0.0029684765275037684,-0.007487637592964384,0.003372229803507206,-0.002829491936535859,-0.001075982977092316,-0.001075982977092316
781,7.81,0.007925188844047106,-0.027923548007072918,0.07562627636518783,-0.001727609443247457,-0.003228058900700984,-0.003228058900700984
782,7.82,0.003325393306875615,-0.00257954307190943,0.048032996044981464,-0.001929370714170015,-0.002111555153315485,-0.002111555153315485
783,7.83,-0.008882480544021621,0.028198249913943693,-0.04769449305164613,-0.002954763074836745,-0.0012269755889685655,-0.0012269755889685655
784,7.84,-0.013834443861004972,0.026806567957558636,-0.07791318790339204,-0.0022824403184315807,-0.0015680821582571356,-0.0015680821582571356
785,7.85,0.002690908981651419,-0.0183695880085852,0.0017282070658176801,-0.0011788854310600231,-0.002959197864286527,-0.002959197864286527
786,7.86,0.016040904409999418,-0.009704144147941917,0.06882125681868395,-0.002603600322839916,-0.0030014184808010358,-0.0030014184808010358
787,7.87,-0.0011949872269722108,0.012949285397445378,0.04985058835736704,-0.002942136628156036,-0.001154039044411674,-0.001154039044411674
788,7.88,-0.017443364111611875,0.026978253860526984,-0.04065366669010285,-0.003916456752265454,-0.0001478107675289709,-0.0001478107675289709
789,7.89,0.0008662571966530095,0.0046921139201495194,-0.07035422522482689,-0.0022794333877666872,-0.0009253572836989584,-0.0009253572836989584
790,7.9,0.014201650363336215,-0.016953435876836214,-0.016325183774483866,-0.00019447487349860638,-0.004451812932038943,-0.004451812932038943
791,7.91,0.005157392257701803,-0.01015032108528426,0.05447490803333973,-0.001483698677589365,-0.002474566432110184,-0.002474566432110184
792,7.92,0.0050895897883469566,-0.005546737792950325,0.03787739375835892,-0.004386075800102211,-0.0014886520087973706,-0.0014886520087973706
793,7.93,0.00017863446668927728,0.027844833355423603,-0.04464258593436237,-0.004315472308095784,-0.0005647471916548746,-0.0005647471916548746
794,7.94,-0.004381029514157627,0.01739144919252009,-0.07276057834806213,-0.0024322415623478093,-0.001441982465512977,-0.001441982465512977
795,7.95,0.001377253050128925,-0.011169501844917537,-1.1752259606274268e-05,-0.0018318625894699094,-0.004079535422222958,-0.004079535422222958
796,7.96,0.012650706388542559,-0.032425740822956475,0.07041182495673418,-0.002638759800132275,-0.003311816998370748,-0.003311816998370748
797,7.97,-0.00032199036034971814,-0.004914805359575472,0.04883970425103053,-0.0032999527567512577,-0.0011613159366131141,-0.0011613159366131141
798,7.98,-0.01510682159619249,0.021615239953635908,-0.031756668767448086,-0.0033894983600241467,-0.0011843223512339055,-0.0011843223512339055
799,7.99,-0.005807259830880859,0.011222409432043693,-0.06595738980719981,-0.003753298012109969,-0.002811649548792914,-0.002811649548792914
800,8.0,0.010370733062796804,-0.01996833795904327,0.001462664106151772,-0.002087820311674687,-0.0028679332629044595,-0.0028679332629044595
801,8.01,0.012018812195104008,-0.029063564483907976,0.06909677174312176,-0.0009185880331376721,0.00022452432141347866,0.00022452432141347866
802,8.02,-0.004779282574628239,-0.013551442380012263,0.043696333830027495,-0.0011342939161140355,0.0008663833481321049,0.0008663833481321049
803,8.03,-0.012879747607277454,0.0036660225209212043,-0.04336563815652354,-0.003200267891031875,0.0009047223196622156,0.0009047223196622156
804,8.04,-0.010482008938380296,0.03354566524086384,-0.06517538587635857,-0.001359055890833002,-0.0013258410033140475,-0.0013258410033140475
805,8.05,0.01725214141340012,-0.011341587352172021,-0.0009119889010734787,-0.0002970630356185035,-0.003449258314792225,-0.003449258314792225
806,8.06,0.014550110734662959,-0.03269883574684322,0.06851521893645002,-0.0033810934023058284,-0.002381330909760392,-0.002381330909760392
807,8.07,-0.004501625745039477,-0.010500566422465035,0.053814575523814336,-0.005104365906918885,0.000485248896447741,0.000485248896447741
808,8.08,-0.0153715508768648,0.03523283887442688,-0.03783386555410559,-0.0027751439418013816,-0.0007158525627638294,-0.0007158525627638294
809,8.09,-0.004090339033093134,0.01910917322430442,-0.06857659033770089,-0.0016696802561168948,-0.0030098233087841745,-0.0030098233087841745
810,8.1,0.011232911272716048,-0.02665421804001059,-0.010013812509262022,7.174217465750957e-05,-0.002254794343159052,-0.002254794343159052
811,8.11,-0.0012615090463064397,-0.015151287358983166,0.06312083732349522,-0.0017035635322363962,-0.0024912767116277122,-0.0024912767116277122
812,8.12,-0.00521700784826303,-0.0030406931860284363,0.047844074191761725,-0.005413267592567228,-0.00015461047267382034,-0.00015461047267382034
813,8.13,0.0051084745728938894,0.03007494886653228,-0.03787989191071352,-0.0053200425502403954,0.0008354904408689433,0.0008354904408689433
814,8.14,-0.000535508635551379,0.020159470305373756,-0.07401033652153732,-0.0020618701004155447,-0.0003551527662592156,-0.0003551527662592156
815,8.15,-0.006471298882469471,-0.004237862487815013,-0.009506586198797476,-0.0018070454334279177,-0.0025445455314433755,-0.0025445455314433755
816,8.16,0.0035695147360534016,-0.03051638134679025,0.06509739373161669,-0.0018116990397539843,-0.003164038091386448,-0.003164038091386448
817,8.17,0.0002509211712869936,-0.013827119377464985,0.04010432168484891,-0.001346287069283693,-0.001251325022816846,-0.001251325022816846
818,8.18,-0.015148097091738252,0.03298662385578527,-0.04563264965157264,-0.003111918281886925,-0.00034283041864,-0.00034283041864
819,8.19,-0.011104268549437489,0.01709978996028562,-0.07176556421290385,-0.0035690207172155205,-0.0032020981767259754,-0.0032020981767259754
820,8.2,0.0009449762662603603,-0.02599144754109421,-0.0008003811561152555,-0.0002442647408128604,-0.002865098612398828,-0.002865098612398828
821,8.21,0.010968937019873018,-0.03309171986120313,0.06782555951462345,-0.0005737858498041738,-0.0011255996636871546,-0.0011255996636871546
822,8.22,-0.0002875045294874496,0.008069705054983663,0.039761216215385,-0.00393621558055115,-0.002987208406452816,-0.002987208406452816
823,8.23,0.00030553452687582627,0.015301153421963852,-0.039688321731873456,-0.0039946250626863135,-0.002149365125923029,-0.002149365125923029
824,8.24,-0.005151694818770935,0.022954857622026852,-0.06243074387448174,-0.00260425057105441,-0.0008733338671298985,-0.0008733338671298985
825,8.25,0.004762337338289379,-0.004770876231384813,0.010769272540136161,-0.002369716033986649,-0.0026876659887175845,-0.0026876659887175845
826,8.26,0.024358139144039535,-0.022684160388708817,0.06885586815101105,-0.003596752936212219,-0.0029623379509300194,-0.0029623379509300194
827,8.27,0.005791059394481889,0.0009811239867954782,0.04152561702403644,-0.004238462496001364,-0.003665962428442647,-0.003665962428442647
828,8.28,-0.01948415554528428,0.04155498305025274,-0.03302783490697651,-0.00361246264040354,-0.0030610627156566392,-0.0030610627156566392
829,8.29,-0.01151742152441471,0.032822887121768646,-0.07069793182357367,-0.0028785827567270887,-0.0032693857358577025,-0.0032693857358577025
830,8.3,0.010641895828120793,-0.029168538230392768,-0.009102393472213796,-0.0024487086179699104,-0.0024435019350265907,-0.0024435019350265907
831,8.31,0.015455031034868508,-0.03034949222363227,0.07811268633484746,-0.001874362476893736,-9.007114061497642e-05,-9.007114061497642e-05
832,8.32,-0.00419332608289947,-0.00562143647808629,0.054392504880972525,-0.0031447171521024725,-0.00033530163863700177,-0.00033530163863700177
833,8.33,-0.015754317766888785,0.025035954382504395,-0.041017294809775354,-0.0040923611397978045,0.00014024647985151227,0.00014024647985151227
834,8.34,-0.0002652051393717638,0.020225968368480174,-0.07011081131130534,-0.0021320859298765084,-0.0012384259427414214,-0.0012384259427414214
835,8.35,0.003938195576406111,0.003138677298872055,-0.0068297571667453715,-0.0015268510964682926,-0.0016782578032542685,-0.0016782578032542685
836,8.36,0.009898416190962402,-0.02314554459428363,0.06650840208329854,-0.00209536411575005,-0.0013191799769022813,-0.0013191799769022813
837,8.37,0.006149565794169986,-0.019315981392607713,0.04773191802756498,-0.004243034495233106,-0.0023402717817750524,-0.0023402717817750524
838,8.38,0.0038102287682244404,0.02637488070492909,-0.04389510736934611,-0.003715568256944516,-0.0022062951478123466,-0.0022062951478123466
839,8.39,-0.003453082755699872,0.03370459655070644,-0.08265226872540604,-0.0021641553565162975,-0.0014611505734934975,-0.0014611505734934975
840,8.4,-0.0015203773694875303,-0.006778191063797196,-0.007333734659769255,-0.0030161862675747854,-0.0023270996342535768,-0.0023270996342535768
841,8.41,0.01529575274747182,-0.03869362877913463,0.06039583278184615,-0.004032722038991224,-0.002929568483913886,-0.002929568483913886
842,8.42,-0.008035523516553133,0.0009010089317740794,0.04185857790635575,-0.00533582299387239,-0.0029979113980265664,-0.0029979113980265664
843,8.43,-0.020819960995540926,0.025201475367545488,-0.04260525922941155,-0.0042583908443220185,-0.000929446650135607,-0.000929446650135607
844,8.44,0.0014382184521043173,0.009912874142323424,-0.07430750464926364,-0.0021748776595835887,-0.0010851514417559935,-0.0010851514417559935
845,8.45,0.010065927310196855,-0.02521017193820707,-0.0021216519508979216,4.1198385974065854e-05,-0.002895679351363559,-0.002895679351363559
846,8.46,-0.0002696170837791336,-0.021112018443895063,0.06022013687889287,-0.0008468140864974937,-0.002342857080269403,-0.002342857080269403
847,8.47,-0.011283948103690563,-0.006632476268555164,0.053482097174527114,-0.0012114020587859118,-0.0026948825387938464,-0.0026948825387938464
848,8.48,-0.0030096907709767523,0.014489000771788168,-0.024433522566320507,-0.0011455972017213245,-0.0003438275154916481,-0.0003438275154916481
849,8.49,-0.00021026435144822463,0.019533166587884922,-0.056956735339509054,-0.0007142732434590281,-0.00019867270424305414,-0.00019867270424305414
850,8.5,0.003938696797478525,-0.03735332090289686,-0.0010891046562530211,-0.0016350279681477886,-0.00046955582095852986,-0.00046955582095852986
851,8.51,0.0024687890910349494,-0.04595287774767044,0.06807668425258788,-0.002018492601664264,0.00023721209748410382,0.00023721209748410382
852,8.52,-0.01049578998084749,-0.009152586523127162,0.04653631611112397,-0.0023416640426065496,-0.00036509670866012817,-0.00036509670866012817
853,8.53,-0.006427906418884629,0.03317146140930277,-0.044209126940352415,-0.0027262914955702077,-0.0005668779338284997,-0.0005668779338284997
854,8.54,0.0021361267851002343,0.007107398776191094,-0.07098555092918571,-0.0028487488376230407,-0.0022914553297640017,-0.0022914553297640017
855,8.55,-0.0033678416007899533,-0.025509340884441182,0.005440671615054293,-0.0018832786167604246,-0.003261617508022335,-0.003261617508022335
