,ts,ax,ay,az,wx,wy,wz
0,0.0,0.035562,-0.005044,0.024927,-0.017822,0.025848000000000003,-0.008987
1,0.01,0.08056100000000001,0.004562,0.021025,-0.01889,0.020523,-0.006851
2,0.02,0.10664100000000001,-0.03135,0.024219,-0.01889,0.016266,-0.007918999999999999
3,0.03,0.083481,0.005807,0.007301999999999999,-0.01889,0.015198,-0.008987
4,0.04,0.06325499999999999,0.004319000000000003,0.0021030000000000024,-0.01889,0.013062,-0.008987
5,0.05,0.068825,0.004919,0.039305,-0.014633000000000002,0.014130000000000002,-0.008987
6,0.06,0.06761,-0.018747999999999997,0.011665000000000002,-0.013565,0.014130000000000002,-0.007918999999999999
7,0.07,0.092463,-0.025667000000000002,0.011742,-0.011444,0.017319,-0.007918999999999999
8,0.08,0.03988,-0.010961,-0.019864,-0.013565,0.020523,-0.012177
9,0.09,0.012196,0.007653,-0.009856,-0.015701,0.020523,-0.011124
10,0.1,-0.018234999999999998,0.050011,-0.008666999999999994,-0.01889,0.017319,-0.006851
11,0.11,-0.008388,0.04318,-0.019068,-0.016769,0.019455,0.0005949999999999996
12,0.12,-0.049244,0.025066,0.028132000000000004,-0.014633000000000002,0.020523,0.0037990000000000003
13,0.13,-0.010337,-0.0048550000000000025,0.013429,-0.012497,0.023712,0.004868
14,0.14,0.020466,-0.0113,-0.036902,-0.011444,0.025848000000000003,0.004868
15,0.15,0.030335999999999995,-0.008726999999999999,-0.052266999999999994,-0.016769,0.026917,0.004868
16,0.16,0.031344,-0.03297,-0.033932,-0.01889,0.034363,-0.0004580000000000001
17,0.17,0.043204,-0.021245,-0.011438000000000005,-0.025284,0.039702999999999995,-0.000458
18,0.18,0.046258,-0.025197999999999998,0.005197,-0.02742,0.040756,0.001663
19,0.19,0.036157999999999996,-0.05330700000000001,-0.007382,-0.030608999999999997,0.038635,0.001663
20,0.2,0.042183,-0.037413,-0.011099,-0.032744999999999996,0.037567,0.002731
21,0.21,0.051852999999999996,-0.028213,0.021061,-0.032744999999999996,0.038635,0.002731
22,0.22,0.04331,0.010935000000000002,0.006253,-0.031677,0.036499000000000004,0.0037990000000000003
23,0.23,0.088165,-0.031309,0.055773,-0.02742,0.037567,0.001663
24,0.24,0.043779000000000005,0.011237999999999998,0.054560000000000004,-0.023148,0.031174,-0.0004580000000000001
25,0.25,0.025174,0.064636,0.066804,-0.019958,0.026917,-0.000458
26,0.26,0.020988999999999997,0.025442,0.029376999999999997,-0.017822,0.025848000000000003,-0.0015259999999999994
27,0.27,0.027212,0.030458999999999993,-0.0023360000000000013,-0.016769,0.023712,-0.002594
28,0.28,0.019880000000000002,-0.017943999999999998,-0.004456000000000001,-0.016769,0.02478,-0.003662
29,0.29,0.032111,0.017050000000000003,-0.037876000000000014,-0.015701,0.021591,-0.003662
30,0.3,0.018481,0.048111,-0.018271000000000003,-0.01889,0.021591,-0.007918999999999999
31,0.31,0.046665,0.039762,-0.0002549999999999983,-0.01889,0.021591,-0.006851
32,0.32,0.004619,0.036026,-0.016893000000000002,-0.021027,0.02478,-0.008987
33,0.33,-0.003243,0.018178,0.032601,-0.022095,0.026917,-0.011124
34,0.34,-0.015396,0.0012369999999999985,0.013969000000000006,-0.023148,0.032242,-0.010056
35,0.35,-0.042279000000000004,0.022228000000000005,0.013132,-0.022095,0.037567,-0.008987
36,0.36,-0.030501,-0.026420999999999997,0.034562,-0.021027,0.036499000000000004,-0.011124
37,0.37,-0.034947000000000006,-0.011174,-0.026292000000000003,-0.022095,0.035431,-0.011124
38,0.38,-0.022294999999999995,0.008166,-0.013733,-0.019958,0.032242,-0.008987
39,0.39,-0.038610000000000005,0.031267,0.019675,-0.01889,0.025848000000000003,-0.006851
40,0.4,-0.006038000000000003,0.023575,0.044699,-0.01889,0.023712,-0.006851
41,0.41,-0.0014940000000000005,-0.0010100000000000005,0.05595599999999999,-0.014633000000000002,0.020523,-0.005783
42,0.42,0.029182999999999997,-0.008125,-0.024322,-0.011444,0.018387,-0.006851
43,0.43,0.032129000000000005,-0.014338,-0.002804,-0.010376,0.014130000000000002,-0.005783
44,0.44,0.027536,-0.008634999999999999,0.006651000000000001,-0.009308,0.006668,-0.008987
45,0.45,-0.008607,-0.008786,0.075223,-0.012497,0.0024110000000000004,-0.011124
46,0.46,-0.021041,-0.025528,0.102244,-0.006104,-0.005051,-0.012177
47,0.47,-0.017585,-0.002425,0.067237,-0.002914,-0.0018460000000000004,-0.015381
48,0.48,-0.031427,-0.018144000000000004,0.031432,-0.002914,-0.005051,-0.01857
49,0.49,-0.048503,-0.00896,0.024305,-0.001846,-0.000778,-0.019638
50,0.5,-0.064121,-0.036768,-0.050226,-0.002914,0.002411,-0.020706
51,0.51,-0.044691,-0.038716,-0.035537,-0.005051,0.004547,-0.020706
52,0.52,-0.011753,-0.04063,-0.056204,-0.0071719999999999996,0.007736,-0.019638
53,0.53,-0.051288,-0.0029339999999999987,-0.053157,-0.010376,0.007736,-0.021774
54,0.54,-0.041966,0.030025,-0.043084,-0.012497,0.009872,-0.015381
55,0.55,-0.013661000000000001,0.008883000000000002,0.003471000000000005,-0.012497,0.013062,-0.011124
56,0.56,-0.022407,0.008879000000000001,0.004976,-0.011444,0.015198,-0.010056
57,0.57,-0.027687,-0.009562000000000001,0.012784,-0.009308,0.020523,-0.005783
58,0.58,0.013571000000000001,0.008447,-0.0025489999999999987,-0.011444,0.021591,-0.006851
59,0.59,0.038098000000000014,0.004253,-0.020229,-0.013565,0.022659000000000002,-0.005783
60,0.6,0.025304,-0.0072489999999999985,0.005867000000000001,-0.014633000000000002,0.022659000000000002,-0.008987
61,0.61,0.022086,-0.013405000000000002,0.009573,-0.017822,0.02478,-0.011124
62,0.62,0.04338,-0.055552,0.042483,-0.019958,0.02478,-0.015381
63,0.63,0.019247999999999998,0.008910000000000001,0.053016999999999995,-0.017822,0.022659000000000002,-0.017502
64,0.64,-0.013372000000000002,0.014484,0.056244,-0.016769,0.020523,-0.01857
65,0.65,-0.017238999999999997,0.002764,0.046176,-0.013565,0.013062,-0.015381
66,0.66,-0.0007559999999999963,-0.022483000000000003,0.047758,-0.010376,0.009872,-0.012177
67,0.67,-0.012388,-0.0031569999999999988,0.045038999999999996,-0.0071719999999999996,0.006668,-0.010056
68,0.68,-0.0009860000000000008,-0.028211,-0.020932,-0.0039829999999999996,0.005615,-0.011124
69,0.69,0.024909,-0.025769,-0.020281,-0.002914,0.003479,-0.011124
70,0.7,0.023913,-0.008909,-0.040826,-0.006104,0.005615,-0.014313
71,0.71,0.013616,0.034575,-0.025494,-0.00824,-0.001846,-0.014313
72,0.72,-0.017093999999999998,0.005626000000000001,-0.025807999999999998,-0.00824,0.0024110000000000004,-0.014313
73,0.73,-0.029851,-0.007094,-0.017787999999999998,-0.00824,-0.002914,-0.019638
74,0.74,-0.045531999999999996,0.0071530000000000005,-0.011789,-0.0071719999999999996,-0.000778,-0.019638
75,0.75,-0.057651,-0.031056000000000014,-0.019400999999999998,-0.005051,-0.005051,-0.023895
76,0.76,-0.114054,0.009733000000000002,-0.011961,-0.005051,-0.0039829999999999996,-0.023895
77,0.77,-0.11855,-0.045426,0.033881,-0.005051,-0.000778,-0.0271
78,0.78,-0.086631,-0.066912,0.041544,-0.00824,0.009872,-0.031356999999999996
79,0.79,0.264729,0.008937000000000006,-0.076575,-0.002914,0.016266,-0.023895
80,0.8,0.17497,0.102365,-0.040199,-0.0007780000000000009,0.041824000000000014,0.021912
81,0.81,0.224046,-0.032916999999999974,-0.322963,-0.022095,0.04715,-0.006851000000000001
82,0.82,0.038663,0.06906699999999999,-0.273372,-0.043396,-0.017822,0.000595
83,0.83,-0.022084,0.021147,0.097289,-0.052979,-0.010376,0.005936
84,0.84,0.0010760000000000006,-0.019028,0.321,-0.032744999999999996,-0.014633000000000002,-0.011123999999999998
85,0.85,-0.080969,0.012498000000000006,0.207773,-0.0039829999999999996,-0.023148,-0.020706
86,0.86,-0.09874,0.016065999999999997,0.146099,0.004547,-0.017822,-0.021774
87,0.87,-0.081459,-0.045137000000000004,0.17164200000000002,0.010941,-0.01889,-0.0271
88,0.88,-0.132439,-0.048659,0.060515,0.017319,-0.019958,-0.028168000000000002
89,0.89,-0.102546,-0.059672,-0.044492000000000004,0.006668,-0.013565,-0.029220999999999997
90,0.9,-0.107147,-0.028992,-0.049839,0.00027499999999999915,-0.006104,-0.026031
91,0.91,-0.100789,-0.031849,-0.045117000000000004,-0.0039829999999999996,0.004547,-0.023895
92,0.92,-0.077554,0.00379,-0.101653,-0.013565,0.020523,-0.017502
93,0.93,-0.060887000000000004,0.032983,-0.158424,-0.021027,0.026917,-0.013244999999999998
94,0.94,-0.021941,0.06317,-0.136541,-0.025284,0.034363,-0.006851
95,0.95,-0.0017809999999999996,0.093296,-0.093174,-0.028488,0.042892,-0.005783
96,0.96,0.01339,0.044501,-0.07221799999999999,-0.024215999999999998,0.048218000000000004,-0.010056
97,0.97,0.00461,0.039744,-0.065819,-0.022095,0.052475,-0.014313
98,0.98,0.022616,0.023378,-0.028911000000000003,-0.017822,0.05354299999999999,-0.015381
99,0.99,0.017282,0.0019900000000000004,0.026869,-0.017822,0.052475,-0.013244999999999998
100,1.0,0.041723,0.003889,0.028853,-0.013565,0.05354299999999999,-0.008987
101,1.01,0.065212,-0.036394,-0.015559999999999997,-0.014633000000000002,0.050354,-0.006851
102,1.02,0.052841,-0.016873,0.033864,-0.017822,0.045029,-0.003662
103,1.03,0.035406999999999994,-0.007137,0.041609,-0.016769,0.036499000000000004,-0.003662
104,1.04,0.016708,-0.030774000000000006,0.034194,-0.016769,0.031174,-0.003662
105,1.05,0.012287000000000001,-0.013599000000000002,0.048454000000000004,-0.012497,0.02478,-0.00473
106,1.06,0.010435999999999999,0.00030299999999999945,0.016362,-0.010376,0.021591,-0.005783
107,1.07,0.010912999999999999,0.004095999999999999,-0.003082,-0.00824,0.018387,-0.007918999999999999
108,1.08,0.014985,0.029582,-0.044084,-0.0071719999999999996,0.017319,-0.008987
109,1.09,0.028058000000000003,-0.002086000000000001,-0.023447,-0.005051,0.018387,-0.010056
110,1.1,0.024713,0.01585,-0.058875,-0.0071719999999999996,0.019455,-0.010056
111,1.11,0.036232,0.022828,-0.037187,-0.009308,0.021591,-0.008987
112,1.12,0.029782,0.004894,-0.016143,-0.010376,0.019455,-0.007918999999999999
113,1.13,0.055404999999999996,-0.021008000000000002,-0.057133,-0.011444,0.022659000000000002,-0.007918999999999999
114,1.14,0.037219,0.023872,-0.013539000000000002,-0.012497,0.020523,-0.006851
115,1.15,0.037787,-0.011178,-0.024141,-0.013565,0.019455,-0.006851
116,1.16,0.019753,0.007456,-0.009048,-0.011444,0.017319,-0.007918999999999999
117,1.17,0.034883,0.012968,-4.7000000000000173e-05,-0.009308,0.019455,-0.006851
118,1.18,0.045721,-0.009110000000000005,0.023813,-0.0071719999999999996,0.013062,-0.006851
119,1.19,0.079888,-0.02528,-0.003559,-0.0071719999999999996,0.011993,-0.005783
120,1.2,0.071733,0.026624000000000002,-0.011567000000000001,-0.0071719999999999996,0.007736,-0.007918999999999999
121,1.21,0.071413,-0.0162,0.006287999999999999,-0.010376,0.010941,-0.012177
122,1.22,0.04665,0.0032530000000000002,0.062231000000000015,-0.010376,0.010941,-0.014313
123,1.23,-0.012997,0.004085,0.081786,-0.009308,0.009872,-0.012177
124,1.24,-0.028631999999999998,0.063693,0.09328099999999999,-0.0039829999999999996,0.005615,-0.006851
125,1.25,-0.030682,0.047773,0.05821900000000001,-0.0039829999999999996,0.000275,-0.0004580000000000001
126,1.26,-0.014556999999999999,0.004352999999999999,0.025366,0.004546999999999999,0.001343,0.0037990000000000003
127,1.27,0.028036000000000002,0.017319,-0.039983,0.006668,-0.010376,0.0016629999999999993
128,1.28,-0.011478000000000002,0.018894,-0.061389,0.007736,-0.006104,-0.001526
129,1.29,-0.0001079999999999996,-0.026136,-0.028955,0.009872,-0.0071719999999999996,-0.005783
130,1.3,-0.05380599999999999,-0.05038200000000001,-0.034474,0.007736,-0.006104,-0.007918999999999999
131,1.31,-0.05657100000000001,-0.031654,-0.067605,0.007736,-0.0039829999999999996,-0.006851
132,1.32,-0.040951999999999995,-0.025463000000000003,-0.038768000000000004,0.005615,0.001343,-0.00473
133,1.33,-0.035459,-0.037295,-0.045665,0.00027500000000000007,0.004547,-0.001526
134,1.34,-0.048724,-0.031785,-0.041429,-0.001846,0.009872,-0.003662
135,1.35,-0.017296000000000002,-0.037848,-0.027558,-0.00824,0.014130000000000002,-0.001526
136,1.36,-0.034141000000000005,0.018258,0.007440000000000001,-0.010376,0.014130000000000002,0.0016629999999999993
137,1.37,-0.013646,0.00037200000000000254,0.006369,-0.0071719999999999996,0.017319,-0.001526
138,1.38,-0.023285,0.0038569999999999993,-0.014625999999999998,-0.005051,0.015198,-0.003662
139,1.39,0.013635,-0.001117,-0.011277000000000002,-0.005051,0.014130000000000002,-0.002594
140,1.4,0.049166,-0.0035770000000000008,0.022987999999999998,-0.0039829999999999996,0.008804000000000001,-0.0004580000000000001
141,1.41,0.105262,0.015479,0.013504999999999998,-0.0071719999999999996,0.007736,-0.003662
142,1.42,0.108402,-0.030506000000000002,0.040581,-0.009308,0.006668,-0.012177
143,1.43,0.022284,0.02054,0.03112,-0.005051,0.0034789999999999995,-0.010056
144,1.44,0.060327,0.059255999999999996,0.044644,-0.00824,-0.006104,-0.006851
145,1.45,0.040007999999999995,0.03771,0.046918,-0.005051,-0.010376,-0.008987
146,1.46,0.053452,0.039117,0.053232,-0.000778,-0.014633000000000002,-0.011124
147,1.47,0.041439,0.003423000000000001,-0.0009909999999999988,0.004547,-0.017822,-0.013244999999999998
148,1.48,0.008504999999999999,-0.006140999999999999,-0.016753,0.007736,-0.021027,-0.016449000000000002
149,1.49,-0.004695999999999999,-0.02332,-0.032851,0.009872,-0.024215999999999998,-0.016449000000000002
150,1.5,-0.038975,-0.013669,-0.025889999999999996,0.011993,-0.024215999999999998,-0.017502
151,1.51,-0.067227,-0.016372,-0.043436,0.009872,-0.025284,-0.014313
152,1.52,-0.094286,-0.032289,0.024939,0.007736,-0.026351999999999997,-0.010056
153,1.53,-0.072578,-0.03173,-0.009795999999999996,0.007736,-0.024215999999999998,-0.00473
154,1.54,-0.038916,-0.030505,-0.024441,0.005615,-0.023148,-0.00473
155,1.55,0.002731,-0.013223,-0.041683,0.006668,-0.01889,-0.001526
156,1.56,0.001465000000000001,0.003119,-0.024805,0.006668,-0.021027,-0.002594
157,1.57,-0.0019949999999999968,0.051068999999999996,-0.034494,0.004547,-0.023148,-0.002594
158,1.58,-0.0028980000000000004,0.010631000000000002,0.0061,0.004547,-0.019958,-0.001526
159,1.59,0.0002139999999999989,0.015401,0.023613,0.009872,-0.015701,-0.003662
160,1.6,-0.028386,0.021361,-0.035496,0.008804000000000001,-0.014633000000000002,-0.00473
161,1.61,-0.027464999999999996,0.00932,-0.030144999999999998,0.009872,-0.00824,-0.003662
162,1.62,-0.013866000000000005,0.002841,-0.019103,0.008804000000000001,-0.009308,-0.005783
163,1.63,-0.04759,-0.0007689999999999989,-0.044056,0.002411,-0.006104,-0.003662
164,1.64,-0.07231599999999999,-0.005708,-0.026042000000000003,0.002411,-0.001846,-0.00473
165,1.65,-0.04567,-0.00027800000000000047,0.00976,0.001343,-0.000778,-0.00473
166,1.66,-0.045494,0.009897,0.031092,0.001343,0.001343,-0.007918999999999999
167,1.67,-0.016165000000000002,-0.041517,0.028567000000000002,0.004547,0.00027500000000000007,-0.005783
168,1.68,-0.033207,-0.019509000000000002,-0.021818999999999998,0.002411,0.002411,-0.00473
169,1.69,-0.0016509999999999995,-0.02415,0.010536,0.001343,0.001343,-0.00473
170,1.7,0.014158,-0.020121,-0.011523000000000002,0.004547,0.00027500000000000007,-0.005783
171,1.71,0.039798000000000014,-0.038002,0.010589,-0.0007779999999999996,-0.002914,-0.003662
172,1.72,0.042045,-0.010309000000000002,-9.19999999999992e-05,0.002411,-0.0039829999999999996,-0.005783
173,1.73,0.016924,-0.021119,0.021921000000000003,0.002411,-0.006104,-0.007918999999999999
174,1.74,-0.028446000000000006,-0.005268999999999999,0.008081,0.002411,-0.0071719999999999996,-0.005783
175,1.75,0.0011549999999999998,-0.006164,-0.0018099999999999993,0.003479,-0.006104,-0.007918999999999999
176,1.76,-0.057179999999999995,-0.014852,0.043772000000000005,0.002411,-0.009308,-0.007918999999999999
177,1.77,-0.048833,-0.001947,-0.0038,0.005615,-0.005051,-0.008987
178,1.78,-0.046488,-0.020904,0.0274,0.004547,-0.001846,-0.010056
179,1.79,-0.058803999999999995,-0.034475,-0.033135000000000005,0.003479,-0.001846,-0.012177
180,1.8,-0.017422999999999998,-0.017847,-0.037134,0.001343,0.0013430000000000007,-0.008987
181,1.81,-0.011058,0.0010429999999999988,-0.050672,-0.000778,0.004547,-0.008987
182,1.82,-0.017358000000000002,-0.030175,-0.041948,-0.0039829999999999996,0.004547,-0.005783
183,1.83,-0.003445,-0.008302,-0.025185,-0.006104,0.006668,-0.008987
184,1.84,0.011209,0.008579,0.01023,-0.0071719999999999996,0.007736,-0.00473
185,1.85,0.030206999999999998,0.020835,0.068051,-0.0071719999999999996,0.006668,-0.00473
186,1.86,0.046506,0.017605000000000003,0.02027,-0.0039829999999999996,0.008804000000000001,-0.006851
187,1.87,0.038814,-0.026947000000000002,0.031252999999999996,-0.001846,0.007736,-0.007918999999999999
188,1.88,0.010062999999999999,0.005065999999999999,0.036833,-0.000778,0.005615,-0.010056
189,1.89,0.0017820000000000004,-0.005438,-0.004277,-0.000778,0.006668,-0.008987
190,1.9,0.001879999999999998,0.0036729999999999996,0.015097999999999999,-0.002914,0.006668,-0.008987
191,1.91,0.022513,0.012752,-0.030146,-0.002914,0.006668,-0.008987
192,1.92,0.004328000000000002,-0.004393000000000001,-0.008433,-0.0039829999999999996,0.008804000000000001,-0.010056
193,1.93,-0.022142,-0.017579,0.042056,-0.000778,0.009872,-0.008987
194,1.94,-0.023214,0.011781,-0.012460999999999995,-0.001846,0.009872,-0.007918999999999999
195,1.95,-0.033014,0.0037449999999999983,-0.008014,-0.001846,0.010941,-0.006851
196,1.96,-0.026898000000000002,-0.013786000000000001,0.00043900000000000015,-0.001846,0.011993,-0.005783
197,1.97,-0.02586,-0.021691,-0.043882,-0.0039829999999999996,0.015198,-0.006851
198,1.98,-0.019355,-0.025869,0.036501000000000006,-0.006104,0.009872,-0.006851
199,1.99,-0.037859,-0.016341,-0.016344,-0.006104,0.013062,-0.007918999999999999
200,2.0,-0.03726,-0.010786999999999998,0.013219999999999999,-0.006104,0.011993,-0.007918999999999999
201,2.01,-0.00923,-0.006227,0.028245999999999997,-0.005051,0.010941,-0.008987
202,2.02,-0.009002,0.0011840000000000002,0.020503999999999998,-0.006104,0.011993,-0.010056
203,2.03,-0.0004800000000000004,0.037608,-0.025467,-0.002914,0.008804000000000001,-0.008987
204,2.04,-0.020611,0.033723,0.010281,-0.001846,0.009872,-0.012177
205,2.05,-0.019843,0.015294,-0.00218,-0.002914,0.010941,-0.010056
206,2.06,0.022205000000000003,0.009965000000000002,0.014581,0.00027500000000000007,0.010941,-0.011124
207,2.07,0.018108000000000003,-0.0004809999999999997,-0.012733,-0.000778,0.009872,-0.011124
208,2.08,0.0076549999999999995,-0.0043399999999999975,0.006516000000000001,-0.0039829999999999996,0.011993,-0.013244999999999998
209,2.09,-0.039211,-0.031089,0.014740999999999999,-0.005051,0.011993,-0.013244999999999998
210,2.1,-0.025085,0.010983,0.023365,-0.002914,0.013062,-0.013244999999999998
211,2.11,0.17735100000000004,0.089531,-0.014930999999999996,-0.000778,0.007736,-0.008987
212,2.12,0.059993999999999985,0.10688399999999999,0.021918000000000003,0.021591,-0.001846,-0.00473
213,2.13,0.019745,0.014835,-0.078038,0.0013430000000000007,0.008804000000000001,-0.012177
214,2.14,-0.104626,-0.056486,0.103528,0.002411,-0.00824,-0.013244999999999998
215,2.15,-0.05557800000000001,-0.057011,0.12366700000000001,0.009872,-0.000778,-0.010056
216,2.16,-0.049114000000000005,-0.030782,0.052964,0.015198,-0.002914,-0.012177
217,2.17,-0.09604800000000001,-0.063358,-0.045333,0.008804000000000001,0.001343,-0.014313
218,2.18,-0.06513300000000001,-0.040541,-0.0017,0.002411,0.004547,-0.015381
219,2.19,-0.043677999999999995,-0.054742,-0.039994999999999996,-0.000778,0.003479,-0.015381
220,2.2,-0.023334,-0.020875,-0.059311,-0.00824,0.006668,-0.016449000000000002
221,2.21,-0.009062,0.01818,0.002492000000000001,-0.012497,0.010941,-0.015381
222,2.22,0.024784999999999998,0.031352,-0.023867,-0.012497,0.011993,-0.014313
223,2.23,0.055115,0.015760000000000003,-0.014667,-0.012497,0.018387,-0.016449000000000002
224,2.24,0.086114,0.053712,-0.031451,-0.009308,0.013062,-0.013244999999999998
225,2.25,0.082264,0.023122999999999998,-0.005481000000000001,-0.009308,0.010941,-0.012177
226,2.26,0.0761,0.014763,0.028210000000000002,-0.005051,0.008804000000000001,-0.012177
227,2.27,0.062337000000000004,0.01475,0.018272999999999998,0.00027500000000000007,0.00027500000000000007,-0.013244999999999998
228,2.28,0.03594,-0.037049,0.029653,0.002411,-0.0039829999999999996,-0.012177
229,2.29,0.033113,-0.001132000000000001,0.062966,0.005615,-0.012497,-0.012177
230,2.3,0.015354,-0.007528,0.049512,0.005615,-0.015701,-0.011124
231,2.31,0.026798000000000002,-0.02835,0.040417,0.006668,-0.01889,-0.011124
232,2.32,0.036539999999999996,-0.017894000000000004,0.024054,0.007736,-0.01889,-0.015381
233,2.33,0.013984,-0.0023780000000000003,-0.019112,0.005615,-0.012497,-0.015381
234,2.34,0.016873,0.015847,-0.047666,0.004547,-0.011444,-0.013244999999999998
235,2.35,-0.043169,0.053097000000000005,-0.038124,-0.0007780000000000005,-0.010376,-0.007918999999999999
236,2.36,-0.052083,0.052816999999999996,-0.021259,-0.000778,-0.010376,0.0005950000000000005
237,2.37,0.00799,0.041214999999999995,-0.024548,0.002411,-0.0029140000000000012,0.004868
238,2.38,0.011937999999999999,0.020322999999999997,-0.028172000000000003,0.005615,-0.005051,0.006989
239,2.39,0.041518,0.016378,-0.027788,0.004547,-0.0039829999999999996,0.0037990000000000003
240,2.4,0.015965,-0.0035400000000000006,-0.043419,0.006668,-0.0071719999999999996,-0.0004580000000000001
241,2.41,0.039567000000000005,0.001288,-0.018805,0.007736,-0.005051,-0.003662
242,2.42,0.043456,-0.010904,-0.01772,0.007736,-0.013565,-0.006851
243,2.43,-0.014951999999999997,-0.009017,0.03373,0.008804000000000001,-0.014633000000000002,-0.008987
244,2.44,-0.012153,-0.040401,0.015766,0.008804000000000001,-0.017822,-0.005783
245,2.45,-0.047957,-0.024812,0.010767,0.010941,-0.017822,-0.003662
246,2.46,-0.057349000000000004,-0.043084,0.030132,0.013062,-0.016769,-0.0015259999999999994
247,2.47,-0.031768,-0.026839,-0.029385999999999995,0.013062,-0.015701,-0.003662
248,2.48,-0.026624,-0.045237,-0.017438,0.013062,-0.012497,-0.002594
249,2.49,-0.018752,-0.013539000000000002,-0.042552,0.007736,-0.012497,-0.002594
250,2.5,-0.03415,-0.029552999999999996,-0.057336,0.006668,-0.014633000000000002,-0.001526
251,2.51,-0.054462,-0.012777999999999998,-0.028467,0.0013430000000000007,-0.010376,0.000595
252,2.52,-0.013719999999999998,0.003650000000000001,-0.012482999999999996,0.000275,-0.0071719999999999996,-0.002594
253,2.53,0.008414,0.011269,0.017830000000000002,0.001343,-0.0039829999999999996,0.000595
254,2.54,0.010316000000000002,0.017591,0.030737,0.001343,-0.006104,-0.001526
255,2.55,0.050506,0.054797000000000005,0.020041,0.001343,-0.005051,-0.001526
256,2.56,0.044199,0.010115,0.023287000000000002,0.00027500000000000007,-0.0039829999999999996,-0.003662
257,2.57,0.034981,0.005882,0.007498000000000001,0.004547,-0.009308,-0.005783
258,2.58,0.018224,0.036938,0.010974,0.004547,-0.010376,-0.001526
259,2.59,-0.022931,-0.012523,0.035108,0.006668,-0.015701,-0.005783
260,2.6,0.011195,-0.006335,-0.012332,0.007736,-0.015701,-0.005783
261,2.61,-0.011321,-0.021348,0.021249,0.007736,-0.01889,-0.005783
262,2.62,-0.050524,-0.018489,-0.014444000000000004,0.007736,-0.021027,-0.00473
263,2.63,-0.054028,-0.012334999999999999,0.002059000000000002,0.007736,-0.01889,-0.003662
264,2.64,-0.049092000000000004,-0.021508000000000003,-0.011456000000000001,0.008804000000000001,-0.019958,-0.003662
265,2.65,-0.022078999999999998,-0.023351,0.0249,0.011993,-0.01889,0.0005949999999999996
266,2.66,-0.004962000000000001,-0.012251,-0.023018,0.014130000000000002,-0.014633000000000002,0.0037990000000000003
267,2.67,0.077455,0.033453,-0.130471,0.010941,-0.014633000000000002,-0.005783000000000001
268,2.68,0.022512,-0.03033,-0.120893,-0.002914,-0.030608999999999997,-0.003662
269,2.69,-0.037334,-0.05139199999999999,0.057313,-0.006104,-0.016769,0.001663
270,2.7,-0.060589,-0.012132999999999998,0.123801,0.006668,-0.015701,0.0037990000000000003
271,2.71,-0.062973,0.044224,0.023464,0.008804000000000001,-0.006104,0.0037990000000000003
272,2.72,-0.032287,-0.018609999999999998,0.013188999999999998,0.006668,-0.0007780000000000009,0.005936
273,2.73,0.009838,-0.009631,-0.003449000000000001,0.005615,-0.000778,0.001663
274,2.74,0.007106999999999999,-0.020665,-0.038301999999999996,0.001343,-0.0039829999999999996,0.001663
275,2.75,0.009859,0.00010900000000000147,-0.008608999999999999,0.001343,-0.007172000000000001,0.001663
276,2.76,0.022556,0.005082999999999997,-0.013159,-0.001846,-0.009308,0.002731
277,2.77,0.015173000000000002,0.021609,0.012895999999999998,0.002411,-0.010376,0.000595
278,2.78,-0.0005110000000000001,0.028355,0.068507,0.007736,-0.010376,0.0037990000000000003
279,2.79,-0.00599,0.00303,0.042901,0.010941,-0.005051,0.002731
280,2.8,-0.029322000000000004,-0.010643,0.005394000000000003,0.014130000000000002,-0.0039829999999999996,0.0037990000000000003
281,2.81,0.008014,-0.008537000000000001,-0.041433,0.010941,-0.0039829999999999996,0.002731
282,2.82,0.002861,-0.013696000000000002,-0.034922,0.008804000000000001,-0.0039829999999999996,0.0037990000000000003
283,2.83,-0.009905000000000004,-0.025764999999999996,-0.009132,0.003479,-0.000778,-0.0004580000000000001
284,2.84,-0.029168000000000006,-0.021330000000000002,0.01404,-0.0007780000000000005,0.0024110000000000004,0.002731
285,2.85,-0.019799,-0.021629,-0.025749,-0.000778,0.003479,0.000595
286,2.86,0.004136000000000001,0.0029499999999999995,0.00656,-0.000778,0.004547,0.000595
287,2.87,-0.010624,0.018231999999999998,-0.024916999999999998,-0.001846,0.007736,-0.0004580000000000001
288,2.88,-0.008172,0.011745999999999996,-0.025177,0.001343,0.004547,-0.001526
289,2.89,0.054501000000000015,0.019057,-0.009982,-0.001846,0.003479,0.001663
290,2.9,0.042509000000000005,0.014469,0.003982000000000003,0.000275,-0.0029139999999999995,0.001663
291,2.91,0.041776,0.017313,0.011561,0.001343,-0.0071719999999999996,0.000595
292,2.92,0.052729,0.0005189999999999999,0.018501,0.005615,-0.00824,0.001663
293,2.93,0.013955000000000002,-0.0011259999999999985,0.044657,0.007736,-0.011444,0.001663
294,2.94,0.007615999999999999,-0.049539,0.028391000000000003,0.008804000000000001,-0.014633000000000002,-0.0004580000000000001
295,2.95,0.011098,-0.036427,0.01989,0.008804000000000001,-0.012497,0.002731
296,2.96,0.013169,-0.020225999999999997,0.026785000000000003,0.006668,-0.016769,0.001663
297,2.97,0.034282,-0.048077999999999996,0.012051000000000001,0.003479,-0.021027,0.002731
298,2.98,0.028493,0.010175,0.012392,0.003479,-0.023148,-0.000458
299,2.99,0.046667,-0.013515000000000001,-0.007515999999999999,0.002411,-0.023148,-0.0004580000000000001
300,3.0,0.020778,0.021458,0.012059,0.002411,-0.028488,0.000595
301,3.01,0.00031300000000000083,0.031127,0.000391,0.005615,-0.028488,-0.0004580000000000001
302,3.02,-0.009290000000000001,0.023547,0.012608,0.006668,-0.026351999999999997,-0.0004580000000000001
303,3.03,-0.020203,0.004525,0.013674,0.008804000000000001,-0.02742,-0.000458
304,3.04,-0.042199,-0.002374000000000001,-0.01705,0.009872,-0.025284,-0.0004580000000000001
305,3.05,-0.045592,-0.026555000000000002,-0.014907000000000004,0.009872,-0.021027,-0.0004580000000000001
306,3.06,-0.024228,-0.028911000000000003,4.6000000000000895e-05,0.009872,-0.015701,0.002731
307,3.07,-0.045452,-0.057539,-0.0031850000000000003,0.004546999999999999,-0.015701,0.001663
308,3.08,-0.038285,-0.015383,-0.01736,-0.001846,-0.009308,0.000595
309,3.09,-0.032691000000000005,-0.0206,-0.035554,-0.005051,-0.0071719999999999996,0.005936
310,3.1,0.028794999999999998,0.009738000000000005,-0.009688,-0.00824,-0.006104,0.005936
311,3.11,0.008262000000000002,0.011635,0.009852,-0.009308,-0.000778,0.004868
312,3.12,0.0010960000000000002,0.016406,0.022034,-0.006104,-0.001846,0.005936
313,3.13,0.021164,0.017106,0.004802000000000001,-0.0018460000000000004,0.000275,0.008057
314,3.14,0.0026760000000000013,0.014402999999999997,0.025556,-0.000778,0.002411,0.006989
315,3.15,-0.0074069999999999995,0.005757,0.020626,0.00027500000000000007,0.002411,0.004868
316,3.16,-0.012105,-0.012182,0.036963,0.001343,0.001343,0.005936
317,3.17,-0.013518,-0.049368,-0.031293,0.00027500000000000007,0.002411,0.0037990000000000003
318,3.18,-0.014440999999999999,-0.043443999999999997,0.004043999999999999,-0.001846,-0.001846,0.006989
319,3.19,-0.024332,-0.012650000000000005,-0.02532,-0.0039829999999999996,-0.006104,0.005936
320,3.2,-0.014138999999999999,-0.028192,-0.010093,-0.006104,-0.006104,0.0037990000000000003
321,3.21,-0.014623999999999996,-0.008438,-0.00015300000000000036,-0.006104,-0.005051,0.002731
322,3.22,-0.0067839999999999975,0.02037,0.03235,-0.002914,-0.0071719999999999996,0.005936
323,3.23,0.014766,0.004181999999999997,0.030868,-0.001846,-0.0071719999999999996,0.0037990000000000003
324,3.24,0.029631,0.0063939999999999995,-0.004132999999999998,0.002411,-0.00824,0.004868
325,3.25,0.008722,-0.010095999999999999,0.017681,0.002411,-0.010376,0.0037990000000000003
326,3.26,0.008984000000000002,-0.016681,-0.015605999999999997,0.000275,-0.009308,0.008057
327,3.27,0.0017470000000000005,0.003146999999999997,-0.009640000000000001,-0.001846,-0.006104,0.005936
328,3.28,0.02715,-0.004672000000000001,-0.019653,-0.005051,-0.00824,0.005936
329,3.29,0.003795,-0.0029570000000000013,0.005035,-0.00824,-0.010376,0.005936
330,3.3,0.039284,0.010445999999999999,-0.014845999999999996,-0.00824,-0.012497,0.004868
331,3.31,0.059845,0.014243,-0.005292,-0.009308,-0.015701,0.002731
332,3.32,0.007890999999999995,0.018139,0.011327,-0.00824,-0.013565,0.000595
333,3.33,0.00040000000000000105,0.029042000000000002,0.0017999999999999976,-0.006104,-0.013565,-0.000458
334,3.34,-0.06823799999999998,0.044289999999999996,-0.002848,-0.0039829999999999996,-0.013565,0.001663
335,3.35,-0.052449,0.046533,0.03841,-0.002914,-0.013565,0.010193
336,3.36,-0.051226,-0.023178,0.017884,0.001343,-0.010376,0.012314
337,3.37,-0.091138,0.017491999999999997,-0.024038,0.002411,-0.002914,0.013382
338,3.38,-0.014554,0.017847,-0.064902,0.001343,-0.002914,0.017639
339,3.39,0.008262000000000002,-0.02068,-0.077205,-0.0039829999999999996,0.0013430000000000007,0.013382
340,3.4,-0.002630000000000002,-0.013021000000000001,-0.032826,-0.0071719999999999996,0.003479,0.012314
341,3.41,-0.041431,-0.011691,0.002968000000000002,-0.010376,0.005615,0.009125
342,3.42,-0.026854000000000003,-0.028926,-0.018598,-0.010376,0.007736,0.002731
343,3.43,-0.045785,-0.020796000000000002,-0.022728,-0.011444,0.006668,0.002731
344,3.44,-0.043433,-0.004083,0.007712,-0.011444,0.008804000000000001,0.002731
345,3.45,0.03483,0.006657,-0.001456999999999999,-0.010376,0.005615,0.004868
346,3.46,0.023076,-0.015567,-0.029376999999999997,-0.001846,0.007736,0.009125
347,3.47,-0.045302999999999996,-0.030979000000000003,-0.03636,-0.00824,0.009872,0.006989
348,3.48,-0.103698,-0.020855000000000002,-0.011798000000000001,-0.009308,0.005615,0.010193
349,3.49,-0.082241,-0.015615,0.034248,-0.010376,0.006668,0.016586
350,3.5,-0.087724,0.00646,-0.015574000000000001,-0.009308,0.004547,0.015518
351,3.51,-0.048060000000000005,0.04144,-0.030963,-0.013565,0.005615,0.015518
352,3.52,-0.043121,0.033736,-0.031624,-0.016769,0.005615,0.011261
353,3.53,-0.02748,0.05011,-0.049406,-0.014633000000000002,0.005615,0.008057
354,3.54,-0.034305,0.091807,-0.049843,-0.015701,0.004547,0.0037990000000000003
355,3.55,-0.053344,0.04123,-0.046214,-0.014633000000000002,-0.000778,-0.0004579999999999997
356,3.56,-0.002184000000000005,0.015125,-0.068219,-0.010376,-0.005051,-0.00473
357,3.57,-0.034587,0.013305,-0.100436,-0.009308,-0.006104,-0.012177
358,3.58,-0.055533000000000006,0.0020580000000000012,-0.12830899999999998,-0.00824,-0.013565,-0.016449000000000002
359,3.59,-0.06915,-0.006279,-0.136185,-0.009308,-0.016769,-0.021774
360,3.6,-0.088728,-0.032832,-0.14205,-0.010376,-0.019958,-0.023895
361,3.61,-0.146208,-0.074408,-0.14752,-0.012497,-0.021027,-0.026031
362,3.62,-0.175125,-0.09083300000000001,-0.13205699999999998,-0.014633000000000002,-0.021027,-0.022827
363,3.63,-0.168103,-0.112318,-0.168213,-0.013565,-0.01889,-0.024963
364,3.64,-0.187532,-0.12762300000000001,-0.187114,-0.017822,-0.01889,-0.028168000000000002
365,3.65,-0.213508,-0.15218099999999998,-0.20992399999999997,-0.022095,-0.019958,-0.030289
366,3.66,-0.21349,-0.13766199999999998,-0.242993,-0.026351999999999997,-0.021027,-0.033493
367,3.67,-0.257864,-0.177263,-0.239931,-0.034866,-0.025284,-0.034546
368,3.68,-0.245644,-0.145994,-0.211441,-0.038071,-0.02742,-0.034546
369,3.69,-0.274864,-0.1721,-0.198517,-0.044464,-0.034866,-0.032425
370,3.7,-0.248072,-0.152693,-0.183843,-0.046585,-0.034866,-0.031356999999999996
371,3.71,-0.173321,-0.16852899999999998,-0.209535,-0.046585,-0.040192,-0.031356999999999996
372,3.72,-0.17038599999999998,-0.139501,-0.21336,-0.047652999999999994,-0.045531999999999996,-0.031356999999999996
373,3.73,-0.103255,-0.108569,-0.203476,-0.050858,-0.057236,-0.026031
374,3.74,-0.045264,-0.07454,-0.159493,-0.050858,-0.068954,-0.022827
375,3.75,-0.056852999999999994,-0.035335999999999985,-0.133653,-0.052979,-0.085999,-0.014313
376,3.76,-0.041473,-0.06805399999999999,-0.064269,-0.06044,-0.100922,-0.007918999999999999
377,3.77,-0.052948,-0.088381,-0.045977,-0.055115,-0.117966,-0.0004580000000000001
378,3.78,-0.081045,-0.089688,-0.059441999999999995,-0.049789,-0.139267,0.0037990000000000003
379,3.79,-0.092042,-0.067268,-0.061827999999999994,-0.044464,-0.153122,0.0037990000000000003
380,3.8,-0.104145,-0.069918,-0.068717,-0.043396,-0.170166,0.0037990000000000003
381,3.81,-0.097651,-0.085712,-0.10391800000000001,-0.044464,-0.18293800000000002,-0.0004580000000000001
382,3.82,-0.15557100000000001,-0.17563900000000002,-0.08897200000000001,-0.043396,-0.198929,-0.001526
383,3.83,-0.196657,-0.148116,-0.12493199999999999,-0.044464,-0.213837,-0.008987
384,3.84,-0.229789,-0.203819,-0.138344,-0.046585,-0.22662399999999996,-0.007918999999999999
385,3.85,-0.236886,-0.18293,0.019411000000000005,-0.057236,-0.244736,-0.008987
386,3.86,-0.243256,-0.21103000000000002,0.09050599999999999,-0.055115,-0.24578899999999998,-0.007918999999999999
387,3.87,-0.22401300000000002,-0.216889,0.12320899999999999,-0.054047000000000005,-0.25325,-0.010056
388,3.88,-0.236327,-0.267519,-0.0056700000000000006,-0.059372,-0.254318,-0.013244999999999998
389,3.89,-0.221423,-0.242785,-0.07724,-0.065765,-0.260712,-0.01857
390,3.9,-0.25601,-0.20780500000000002,-0.11489400000000001,-0.08067300000000001,-0.26710500000000004,-0.022827
391,3.91,-0.22947399999999998,-0.187608,-0.15493099999999999,-0.094528,-0.269226,-0.021774
392,3.92,-0.27155300000000004,-0.186659,-0.158968,-0.10624700000000001,-0.270294,-0.021774
393,3.93,-0.233145,-0.18433,-0.14683800000000002,-0.11903399999999999,-0.273499,-0.014313
394,3.94,-0.227715,-0.179795,-0.12881800000000002,-0.11903399999999999,-0.268158,-0.007918999999999999
395,3.95,-0.1805,-0.220469,-0.166768,-0.121155,-0.254318,-0.003662
396,3.96,-0.262886,-0.15146800000000002,-0.189629,-0.117966,-0.22981300000000002,-0.001526
397,3.97,-0.260063,-0.10126399999999999,-0.22121999999999997,-0.11903399999999999,-0.227692,0.012314
398,3.98,-0.27474299999999996,-0.08344,-0.282456,-0.115829,-0.20211800000000002,0.02298
399,3.99,-0.19353099999999998,-0.075119,-0.282974,-0.12008699999999999,-0.184006,0.038956
400,4.0,-0.18818,-0.119452,-0.306672,-0.117966,-0.15098599999999998,0.045349
401,4.01,-0.15344000000000002,-0.135431,-0.303757,-0.121155,-0.129684,0.057067999999999994
402,4.02,-0.130194,-0.130951,-0.300058,-0.12648,-0.098785,0.075165
403,4.03,-0.102499,-0.121429,-0.22016599999999997,-0.133942,-0.077484,0.091156
404,4.04,-0.004924999999999999,-0.14648,-0.2367,-0.136078,-0.056183000000000004,0.10713199999999999
405,4.05,0.000501999999999999,-0.17706,-0.225215,-0.139267,-0.026351999999999997,0.109253
406,4.06,0.05981,-0.34092100000000003,-0.240141,-0.146729,-0.0007779999999999992,0.115646
407,4.07,-0.106303,-0.21729600000000002,-0.125539,-0.149918,0.034363,0.126297
408,4.08,-0.106092,-0.14665799999999998,-0.0004380000000000009,-0.15098599999999998,0.048218000000000004,0.145477
409,4.09,-0.101298,-0.020667000000000005,0.10423199999999999,-0.147797,0.08017,0.168915
410,4.1,-0.014491999999999996,0.10862100000000001,0.195495,-0.14247100000000001,0.104675,0.189148
411,4.11,-0.045739999999999996,0.259946,0.25459699999999996,-0.141403,0.136642,0.21365399999999998
412,4.12,0.052348000000000006,0.303774,0.292174,-0.138199,0.157944,0.232834
413,4.13,0.185211,0.380419,0.282344,-0.140335,0.170731,0.253067
414,4.14,0.33714299999999997,0.399152,0.332389,-0.138199,0.180313,0.26799
415,4.15,0.383353,0.512159,0.402433,-0.133942,0.177109,0.275436
416,4.16,0.45665,0.6461939999999999,0.544349,-0.12648,0.16966199999999998,0.283966
417,4.17,0.503371,0.65781,0.757688,-0.11264,0.155807,0.299942
418,4.18,0.471102,0.674566,0.950161,-0.08494600000000001,0.134506,0.309525
419,4.19,0.437036,0.611979,1.058286,-0.048721,0.11746199999999998,0.311661
420,4.2,0.42750600000000005,0.6017859999999999,1.068755,-0.010376,0.094025,0.303131
421,4.21,0.30296300000000004,0.554322,1.077835,0.022659000000000002,0.073792,0.291412
422,4.22,0.31369600000000003,0.47823999999999994,1.098911,0.052475,0.0578,0.270111
423,4.23,0.242777,0.363019,1.065213,0.07484400000000001,0.054611,0.250946
424,4.24,0.177297,0.301095,0.9837819999999999,0.085495,0.052475,0.232834
425,4.25,0.12129200000000001,0.30309400000000003,0.998707,0.090836,0.048218000000000004,0.21791100000000002
426,4.26,0.09134199999999999,0.199792,0.934132,0.086563,0.050354,0.19981400000000002
427,4.27,0.071564,0.081048,0.803362,0.072723,0.048218000000000004,0.18382300000000001
428,4.28,-0.029839999999999988,-0.08186199999999999,0.6807310000000001,0.05140700000000001,0.054611,0.167847
429,4.29,-0.07865499999999999,-0.227289,0.639058,0.019455,0.050354,0.154007
430,4.3,-0.25858600000000004,-0.372218,0.649133,-0.013565,0.058868,0.145477
431,4.31,-0.340122,-0.363272,0.697315,-0.045531999999999996,0.065262,0.150803
432,4.32,-0.421296,-0.374925,0.7002729999999999,-0.073227,0.067398,0.160385
433,4.33,-0.44555200000000006,-0.39458200000000004,0.776014,-0.091324,0.06951900000000001,0.176376
434,4.34,-0.456528,-0.39068600000000003,0.7793329999999999,-0.100922,0.06633,0.192352
435,4.35,-0.392932,-0.404989,0.736509,-0.104111,0.054611,0.20726
436,4.36,-0.447712,-0.30599899999999997,0.620464,-0.104111,0.032242,0.218979
437,4.37,-0.395043,-0.172837,0.595194,-0.100922,0.008803999999999998,0.236023
438,4.38,-0.39273,-0.057,0.6017140000000001,-0.092392,-0.017822,0.24774200000000002
439,4.39,-0.45731499999999997,0.017781,0.586101,-0.08067300000000001,-0.039139,0.25945999999999997
440,4.4,-0.390989,0.04556,0.49925,-0.065765,-0.050858,0.27331500000000003
441,4.41,-0.398386,0.063711,0.450064,-0.045531999999999996,-0.06362899999999999,0.27864099999999997
442,4.42,-0.375286,0.072753,0.384432,-0.026351999999999997,-0.06150800000000001,0.283966
443,4.43,-0.380052,0.154149,0.343525,-0.00824,-0.054047000000000005,0.286087
444,4.44,-0.39879000000000003,0.24685500000000002,0.403493,0.015198,-0.048721,0.282898
445,4.45,-0.42113,0.30590100000000003,0.43926000000000004,0.042892,-0.034866,0.280762
446,4.46,-0.437338,0.32264299999999996,0.487307,0.070587,-0.024215999999999998,0.27331500000000003
447,4.47,-0.5614,0.277688,0.5659850000000001,0.119598,-0.0039829999999999996,0.26159699999999997
448,4.48,-0.634939,0.195406,0.588168,0.155807,0.010941,0.250946
449,4.49,-0.641637,0.082541,0.6025729999999999,0.187775,0.029037,0.241348
450,4.5,-0.684521,0.003113999999999992,0.638289,0.220795,0.04715,0.23069800000000001
451,4.51,-0.685995,-0.005839,0.6621819999999999,0.252747,0.058868,0.218979
452,4.52,-0.708681,-0.023386,0.645208,0.277252,0.063126,0.208328
453,4.53,-0.747812,-0.0005379999999999968,0.699372,0.29536399999999996,0.067398,0.20086700000000002
454,4.54,-0.7939609999999999,0.09527999999999999,0.7234189999999999,0.303879,0.062073,0.20086700000000002
455,4.55,-0.799262,0.193892,0.814106,0.307083,0.05140700000000001,0.20726
456,4.56,-0.818444,0.278462,0.972608,0.30175799999999997,0.037567,0.21579
457,4.57,-0.785086,0.363931,1.028939,0.30175799999999997,0.02478,0.22856100000000001
458,4.58,-0.782101,0.376877,1.074185,0.29643200000000003,0.007736,0.232834
459,4.59,-0.738955,0.367194,1.114503,0.283646,-0.009308,0.23069800000000001
460,4.6,-0.664138,0.351898,1.1736950000000002,0.272995,-0.028488,0.212585
461,4.61,-0.645357,0.443421,1.249882,0.263397,-0.055115,0.182755
462,4.62,-0.631137,0.5706760000000001,1.377162,0.25595100000000004,-0.092392,0.140152
463,4.63,-0.761364,0.772452,1.509799,0.244232,-0.124359,0.087952
464,4.64,-0.790172,1.029456,1.7938490000000002,0.242096,-0.212769,0.045349
465,4.65,-0.954239,1.269707,1.940473,0.252747,-0.29586799999999996,0.012314
466,4.66,-1.074869,1.282749,2.052437,0.25914,-0.395996,-0.012177
467,4.67,-0.9365899999999999,1.092075,1.9133639999999998,0.29216,-0.513184,-0.036682
468,4.68,-0.8491059999999999,0.981466,1.55692,0.319855,-0.633545,-0.072906
469,4.69,-0.849482,0.9047149999999999,1.183426,0.328384,-0.753922,-0.11338800000000002
470,4.7,-0.8831030000000001,0.704795,1.151917,0.329453,-0.8636469999999999,-0.163452
471,4.71,-1.1210930000000001,0.538733,1.180092,0.343292,-0.948868,-0.222046
472,4.72,-1.25369,0.530279,1.21634,0.364609,-1.014923,-0.289154
473,4.73,-1.42524,0.507726,1.208164,0.38697800000000004,-1.0490110000000001,-0.353073
474,4.74,-1.5823129999999999,0.451946,1.164402,0.408279,-1.0916139999999999,-0.41485600000000006
475,4.75,-1.650266,0.24593,1.0060040000000001,0.433838,-1.115051,-0.46171599999999996
476,4.76,-1.541283,-0.032449999999999986,0.685685,0.446625,-1.1363530000000002,-0.49687200000000004
477,4.77,-1.3119299999999998,-0.383782,0.363769,0.45195,-1.153397,-0.5341640000000001
478,4.78,-0.94234,-0.580921,0.216714,0.466873,-1.154465,-0.5916899999999999
479,4.79,-0.737648,-0.989526,0.116428,0.5211939999999999,-1.144882,-0.682236
480,4.8,-0.486067,-1.416526,-0.040199,0.615997,-1.137421,-0.7823640000000001
481,4.81,-0.27398,-1.5995190000000001,-0.192438,0.739578,-1.1406100000000001,-0.8750459999999999
482,4.82,-0.039351,-1.603526,-0.49567100000000003,0.861008,-1.132095,-0.930435
483,4.83,-0.096302,-1.7927520000000001,-0.884238,0.913208,-1.154465,-0.940033
484,4.84,0.052714,-1.490524,-1.2660959999999999,0.9025569999999999,-1.1853639999999999,-0.876114
485,4.85,0.06859199999999999,-1.237023,-1.503754,0.806686,-1.2109219999999998,-0.7568050000000001
486,4.86,0.186807,-0.863942,-1.747814,0.6532899999999999,-1.205597,-0.5916899999999999
487,4.87,0.33226100000000003,-0.680733,-1.8130259999999998,0.470062,-1.199203,-0.410583
488,4.88,0.621698,-0.429482,-1.9638740000000001,0.29536399999999996,-1.169373,-0.23162800000000003
489,4.89,1.029892,-0.260932,-2.0613240000000004,0.11639400000000001,-1.0958709999999998,-0.08142100000000001
490,4.9,1.2239440000000001,-0.073879,-1.9956740000000002,-0.044464,-0.994675,0.024033000000000002
491,4.91,1.1633790000000002,0.077178,-1.797422,-0.186142,-0.8796229999999999,0.098602
492,4.92,1.086601,0.31045700000000004,-1.450999,-0.293732,-0.761383,0.160385
493,4.93,1.023221,0.544553,-1.057451,-0.357651,-0.652725,0.187027
494,4.94,0.8423709999999999,0.724286,-0.691917,-0.36937,-0.556854,0.175308
495,4.95,0.769003,0.9092379999999999,-0.619112,-0.355515,-0.47802700000000004,0.14866600000000002
496,4.96,0.534316,0.676868,-0.720596,-0.33634899999999995,-0.424759,0.109253
497,4.97,0.46001400000000003,0.271685,-0.897424,-0.33421300000000004,-0.352325,0.081558
498,4.98,0.274706,-0.189196,-1.030778,-0.355515,-0.273499,0.06665
499,4.99,0.097836,-0.541824,-0.9806540000000001,-0.383209,-0.19253499999999998,0.061325
500,5.0,-0.162711,-0.689954,-0.8560129999999999,-0.41943400000000003,-0.100922,0.063446
501,5.01,-0.34798,-0.688685,-0.699414,-0.452454,-0.029541000000000005,0.075165
502,5.02,-0.45425200000000004,-0.716292,-0.568276,-0.482285,0.035431,0.07836900000000001
503,5.03,-0.439169,-0.8025979999999999,-0.383732,-0.497192,0.063126,0.095413
504,5.04,-0.38495,-0.8474450000000001,-0.327642,-0.519562,0.040756,0.091156
505,5.05,-0.257126,-0.719368,-0.145261,-0.500397,-0.033813,0.067719
506,5.06,-0.035187,-0.696976,0.05480400000000002,-0.48547399999999996,-0.083878,0.046402
507,5.07,0.049391,-0.645886,0.322166,-0.407715,-0.111572,0.008057
508,5.08,0.09173400000000001,-0.6288590000000001,0.394447,-0.344864,-0.11476099999999999,-0.014313
509,5.09,0.071699,-0.513239,0.213046,-0.270294,-0.104111,-0.024963
510,5.1,0.123606,-0.424975,-0.132654,-0.215973,-0.091324,-0.034546
511,5.11,0.207837,-0.43232600000000004,-0.44253400000000004,-0.180817,-0.046585,-0.033493
512,5.12,0.192127,-0.292862,-0.741552,-0.148849,0.011993,-0.017501999999999997
513,5.13,0.23347800000000002,-0.104901,-0.938058,-0.132874,0.09295699999999997,0.013382
514,5.14,0.292939,0.19880599999999998,-0.98361,-0.10943599999999999,0.167526,0.048538
515,5.15,0.35686799999999996,0.35917899999999997,-0.858507,-0.081741,0.24635300000000002,0.086884
516,5.16,0.508739,0.459118,-0.669327,-0.037003,0.317734,0.11991900000000001
517,5.17,0.460833,0.48464799999999997,-0.515373,0.031174,0.36993400000000004,0.14761400000000002
518,5.18,0.37091199999999996,0.42729799999999996,-0.388974,0.09828200000000001,0.402954,0.16677899999999998
519,5.19,0.336302,0.22585100000000002,-0.337781,0.15473900000000002,0.434906,0.180634
520,5.2,0.300198,0.037000999999999985,-0.339301,0.195221,0.46260100000000004,0.179565
521,5.21,0.237604,-0.16528800000000002,-0.31550300000000003,0.221863,0.47645600000000005,0.163589
522,5.22,0.19391,-0.32500300000000004,-0.273052,0.238907,0.480713,0.136963
523,5.23,0.032182999999999996,-0.49699499999999996,-0.245785,0.260208,0.47113,0.09967000000000001
524,5.24,-0.108651,-0.551979,-0.18784700000000001,0.281509,0.456207,0.057067999999999994
525,5.25,-0.45749399999999996,-0.463743,0.007169999999999995,0.307083,0.421066,-0.007918999999999997
526,5.26,-0.655488,-0.39265100000000003,0.19173199999999999,0.313477,0.392303,-0.046265
527,5.27,-0.846794,-0.375163,0.171457,0.306015,0.350754,-0.0793
528,5.28,-0.957622,-0.48679399999999995,0.175035,0.271927,0.308136,-0.100601
529,5.29,-1.1405809999999998,-0.666553,0.17666099999999998,0.220795,0.264465,-0.11550899999999999
530,5.3,-1.2653450000000002,-0.737787,0.12925999999999999,0.166458,0.166458,-0.117645
531,5.31,-1.364321,-0.616854,-0.025513,0.104675,0.086563,-0.116577
532,5.32,-1.574937,-0.44761999999999996,-0.160922,0.038635,-0.019958,-0.11338800000000002
533,5.33,-1.636679,-0.254889,-0.23690300000000003,-0.024216,-0.124359,-0.108063
534,5.34,-1.722648,-0.075576,-0.24909,-0.085999,-0.210648,-0.11018399999999999
535,5.35,-1.801652,0.093379,-0.303539,-0.144592,-0.27882399999999996,-0.130432
536,5.36,-1.803362,0.139456,-0.427896,-0.194656,-0.32568400000000003,-0.143204
537,5.37,-1.8735099999999998,0.227278,-0.5074069999999999,-0.26710500000000004,-0.328888,-0.157059
538,5.38,-1.9599099999999998,0.291699,-0.48071099999999994,-0.33421300000000004,-0.302261,-0.166641
539,5.39,-2.009444,0.503166,-0.413206,-0.39813200000000004,-0.247925,-0.152802
540,5.4,-2.1433020000000003,0.460579,-0.59913,-0.455658,-0.184006,-0.127228
541,5.41,-2.019072,0.284142,-0.6457430000000001,-0.504654,-0.094528,-0.07077
542,5.42,-1.800836,0.45935699999999996,-0.6943600000000001,-0.5259550000000001,-0.013565,-0.016449
543,5.43,-1.6104209999999999,1.003241,-0.848785,-0.533417,0.081238,0.034683
544,5.44,-1.251968,1.664252,-1.0599129999999999,-0.548325,0.17924500000000002,0.075165
545,5.45,-0.9735219999999999,2.141235,-1.228312,-0.5738979999999999,0.29643200000000003,0.10392799999999999
546,5.46,-0.357072,2.319579,-1.159894,-0.593063,0.401886,0.129501
547,5.47,0.15029100000000006,2.4094849999999997,-0.853606,-0.568573,0.491364,0.14440899999999998
548,5.48,0.6464810000000001,2.251912,-0.304633,-0.5014649999999999,0.560608,0.146545
549,5.49,1.062141,1.951816,0.275764,-0.38853499999999996,0.618134,0.13589500000000002
550,5.5,1.392184,1.503048,0.661817,-0.24685700000000002,0.6405029999999999,0.120972
551,5.51,1.490588,0.770089,0.6987260000000001,-0.121155,0.6437069999999999,0.12204000000000001
552,5.52,1.7474919999999998,0.12666,0.61348,-0.023148,0.6532899999999999,0.128433
553,5.53,1.926322,-0.29889699999999997,0.365537,0.042892,0.646896,0.13056900000000002
554,5.54,2.304417,-0.558179,0.22742199999999999,0.085495,0.633041,0.11671400000000001
555,5.55,2.377925,-0.8270069999999999,0.08200299999999999,0.104675,0.619202,0.09753400000000001
556,5.56,2.481261,-1.0670389999999998,-0.069802,0.114258,0.5979,0.074112
557,5.57,2.523229,-1.0872700000000002,-0.130523,0.119598,0.57872,0.058121000000000006
558,5.58,2.466816,-0.9881969999999999,-0.132438,0.122787,0.573395,0.049606
559,5.59,2.3049939999999998,-0.704091,-0.045624,0.11853,0.577652,0.04747
560,5.6,2.09167,-0.273383,0.190898,0.113205,0.5680689999999999,0.061325
561,5.61,1.862168,0.290691,0.460186,0.10255399999999999,0.551025,0.08902
562,5.62,1.582093,0.710224,0.71119,0.086563,0.531845,0.125244
563,5.63,1.255075,0.802087,0.867532,0.065262,0.49563599999999997,0.162521
564,5.64,0.985708,0.5442170000000001,0.9980629999999999,0.046082,0.44343599999999994,0.222183
565,5.65,0.855642,0.46347299999999997,1.163635,0.039702999999999995,0.389099,0.279694
566,5.66,0.921977,0.37609499999999996,1.235213,0.038635,0.345428,0.311661
567,5.67,1.036143,0.336791,1.2023549999999998,0.03331,0.332642,0.299942
568,5.68,1.071356,0.346889,1.219066,0.017319,0.34436,0.255203
569,5.69,1.084591,0.246261,1.281052,0.002411,0.392303,0.182755
570,5.7,0.979187,0.22770300000000002,1.2602440000000001,-0.001846,0.439163,0.110321
571,5.71,0.726687,0.273851,1.1516979999999999,-0.005051,0.464737,0.060257000000000005
572,5.72,0.629309,0.198604,1.059294,-0.016769,0.47538800000000003,0.040024000000000004
573,5.73,0.594792,0.061471999999999985,0.831758,-0.028488,0.44236800000000004,0.038956
574,5.74,0.613334,-0.19258599999999998,0.49778500000000003,-0.048721,0.407211,0.042145
575,5.75,0.66661,-0.562584,0.238195,-0.083878,0.358215,0.041076999999999995
576,5.76,0.801341,-0.825292,0.026033999999999998,-0.11903399999999999,0.30175799999999997,0.032562
577,5.77,0.774356,-0.976585,-0.031501999999999995,-0.157379,0.248489,0.015518
578,5.78,0.70202,-0.935343,0.121098,-0.19253499999999998,0.215469,-0.012177
579,5.79,0.573183,-1.032353,0.342948,-0.218094,0.195221,-0.032425
580,5.8,0.378058,-1.0631959999999998,0.497692,-0.22236599999999998,0.1931,-0.038818
581,5.81,0.25661799999999996,-1.0128190000000001,0.585396,-0.213837,0.189896,-0.022827
582,5.82,0.117325,-0.877159,0.668284,-0.19786099999999998,0.185638,0.009125
583,5.83,0.166752,-0.627881,0.6566270000000001,-0.190399,0.172852,0.046402
584,5.84,0.213588,-0.43068500000000004,0.649053,-0.184006,0.15473900000000002,0.079437
585,5.85,0.297043,-0.255684,0.543088,-0.180817,0.120651,0.113525
586,5.86,0.390434,-0.03806200000000001,0.427809,-0.177612,0.08230599999999999,0.138016
587,5.87,0.427846,0.047288,0.28310100000000005,-0.179749,0.043961,0.14973399999999998
588,5.88,0.41422700000000007,0.107303,0.16156099999999998,-0.177612,0.021591,0.151871
589,5.89,0.390871,0.142783,0.156717,-0.169098,0.016266,0.143341
590,5.9,0.310156,0.23489200000000002,0.18071700000000002,-0.154175,0.029037,0.124176
591,5.91,0.259534,0.389459,0.278679,-0.12648,0.058868,0.093277
592,5.92,0.144403,0.421432,0.388959,-0.098785,0.07911699999999999,0.06665
593,5.93,0.007902000000000006,0.495547,0.5684739999999999,-0.056183000000000004,0.10787999999999999,0.049606
594,5.94,-0.125419,0.499349,0.688861,-0.0007780000000000044,0.119598,0.042145
595,5.95,-0.370345,0.434453,0.769204,0.055679,0.135574,0.046402
596,5.96,-0.514824,0.24952,0.8150689999999999,0.114258,0.1409,0.059189
597,5.97,-0.728695,0.067176,0.8765870000000001,0.171783,0.147293,0.07836900000000001
598,5.98,-0.766893,-0.13952799999999999,0.858476,0.22824099999999997,0.157944,0.10392799999999999
599,5.99,-0.7629,-0.26118600000000003,0.795359,0.279373,0.153687,0.124176
600,6.0,-0.705196,-0.352853,0.7293890000000001,0.314529,0.141968,0.142288
601,6.01,-0.5772149999999999,-0.314807,0.7074229999999999,0.335846,0.133438,0.15506
602,6.02,-0.44057299999999994,-0.15672,0.8227530000000001,0.343292,0.128113,0.157196
603,6.03,-0.41464799999999996,0.047742000000000014,0.9832350000000001,0.343292,0.12492400000000001,0.15506
604,6.04,-0.422105,0.341463,1.182796,0.339035,0.114258,0.15293900000000002
605,6.05,-0.32963000000000003,0.565217,1.3411600000000001,0.328384,0.101486,0.151871
606,6.06,-0.28482199999999996,0.654184,1.508785,0.312408,0.06951900000000001,0.14866600000000002
607,6.07,-0.06095600000000001,0.663088,1.608244,0.303879,0.03331,0.136963
608,6.08,0.036904000000000006,0.715385,1.555304,0.29216,-0.010376,0.115646
609,6.09,0.18074400000000002,0.782525,1.537413,0.272995,-0.06044,0.081558
610,6.1,0.217008,0.7356090000000001,1.522394,0.248489,-0.12008699999999999,0.03363
611,6.11,0.194828,0.7352350000000001,1.608515,0.227188,-0.17868,-0.022827
612,6.12,-0.097747,0.749049,1.7318419999999999,0.208008,-0.243668,-0.076096
613,6.13,-0.445406,0.9968090000000001,1.890702,0.198425,-0.310776,-0.120834
614,6.14,-1.014651,1.269682,2.129253,0.185638,-0.405579,-0.154922
615,6.15,-1.358249,1.184234,2.382213,0.187775,-0.5270229999999999,-0.169846
616,6.16,-1.095434,1.06375,2.371779,0.22291599999999998,-0.636749,-0.180496
617,6.17,-0.537593,1.1082670000000001,2.118091,0.253815,-0.719833,-0.222046
618,6.18,-0.397142,1.460115,1.657727,0.257004,-0.7731020000000001,-0.298737
619,6.19,-0.588095,1.476485,1.3378290000000002,0.21759,-0.838089,-0.391418
620,6.2,-0.7342380000000001,1.0877809999999999,0.9083700000000001,0.168594,-0.946732,-0.46917700000000007
621,6.21,-0.8057840000000001,0.4450760000000001,0.40980500000000003,0.11213699999999999,-1.083099,-0.533096
622,6.22,-0.6238239999999999,-0.04865899999999998,0.126388,0.064194,-1.199203,-0.597015
623,6.23,-0.541788,-0.15151199999999998,0.349516,0.094025,-1.303604,-0.69928
624,6.24,-0.555802,0.227321,1.2889899999999999,0.341171,-1.3962860000000001,-0.867584
625,6.25,-0.58199,0.539776,2.290427,0.81308,-1.492157,-1.078506
626,6.26,-0.761302,0.271509,1.8619009999999998,1.357422,-1.524109,-1.243622
627,6.27,-0.40478200000000003,0.222345,-0.12103700000000005,1.652512,-1.625305,-1.2755889999999999
628,6.28,-0.005455999999999989,-0.16867699999999994,-1.878757,1.674881,-1.7819060000000002,-1.194626
629,6.29,0.125745,-0.513029,-2.981158,1.516159,-1.900146,-1.027374
630,6.3,0.483703,-0.652778,-3.648747,1.234924,-1.989639,-0.796219
631,6.31,0.6832189999999999,-0.675138,-3.756447,0.8791200000000001,-2.041824,-0.552277
632,6.32,0.8834360000000001,-0.568377,-3.665977,0.505219,-1.9736479999999998,-0.318985
633,6.33,1.138423,-0.459556,-3.5666870000000004,0.150482,-1.7957610000000002,-0.130432
634,6.34,1.165786,-0.423716,-3.174711,-0.153122,-1.560333,0.005935999999999997
635,6.35,1.098447,-0.209105,-2.601027,-0.352325,-1.3291629999999999,0.085815
636,6.36,0.795009,0.295641,-1.987709,-0.408783,-1.11824,0.123108
637,6.37,0.439125,0.765425,-1.7994849999999998,-0.397064,-0.9190370000000001,0.129501
638,6.38,0.22368400000000002,0.950274,-1.7885669999999998,-0.36084,-0.729431,0.118851
639,6.39,0.07679,0.536076,-1.925427,-0.340607,-0.596268,0.11671400000000001
640,6.4,0.066375,-0.22700199999999995,-2.071422,-0.37255900000000003,-0.46843,0.11245699999999999
641,6.41,0.040175,-0.8574729999999999,-2.116722,-0.457779,-0.344864,0.110321
642,6.42,-0.054898,-1.316241,-1.7862259999999999,-0.566437,-0.243668,0.104996
643,6.43,-0.26212199999999997,-1.497982,-1.1395,-0.660187,-0.16484100000000002,0.1082
644,6.44,-0.36422,-1.378295,-0.44021099999999996,-0.712387,-0.10304300000000001,0.11991900000000001
645,6.45,-0.64375,-1.446421,0.20579099999999995,-0.728363,-0.056183000000000004,0.131622
646,6.46,-0.491885,-1.243225,0.76662,-0.6921390000000001,-0.073227,0.143341
647,6.47,-0.367788,-1.164187,0.9912030000000001,-0.6197050000000001,-0.08920299999999999,0.138016
648,6.48,-0.303127,-1.069439,1.081913,-0.535553,-0.131805,0.123108
649,6.49,0.013056000000000012,-1.03892,1.036283,-0.43328900000000004,-0.149918,0.09967000000000001
650,6.5,0.22233499999999998,-1.007839,0.854801,-0.32995599999999997,-0.166962,0.068771
651,6.51,0.355085,-0.9989879999999999,0.473811,-0.248993,-0.15951500000000002,0.035751
652,6.52,0.322348,-0.93673,-0.047494000000000015,-0.206375,-0.13501,0.018706999999999998
653,6.53,0.402117,-1.100131,-0.47706099999999996,-0.225555,-0.12648,0.009125
654,6.54,0.400673,-0.9424299999999999,-0.891568,-0.254318,-0.105179,0.015518
655,6.55,0.43038000000000004,-0.7634810000000001,-1.121227,-0.31291199999999997,-0.12329100000000001,0.020844
656,6.56,0.360093,-0.650675,-1.2444389999999999,-0.375763,-0.085999,0.025101
657,6.57,0.43330100000000005,-0.45660600000000007,-1.239749,-0.43115200000000004,-0.047652999999999994,0.043213
658,6.58,0.472695,-0.162579,-1.127984,-0.46203599999999995,0.036499,0.06665
659,6.59,0.476128,0.07987800000000005,-0.9651540000000001,-0.46630900000000003,0.125977,0.096481
660,6.6,0.416121,0.310616,-0.751787,-0.42794799999999994,0.22398400000000002,0.127365
661,6.61,0.499596,0.566674,-0.593663,-0.348053,0.306015,0.156128
662,6.62,0.534887,0.786938,-0.34783800000000004,-0.22874499999999998,0.375259,0.179565
663,6.63,0.6137199999999999,0.8665639999999999,-0.07066599999999999,-0.071091,0.421066,0.188095
664,6.64,0.674541,0.648772,0.020218,0.097214,0.47538800000000003,0.178497
665,6.65,0.638208,0.401969,0.006534999999999999,0.243164,0.530777,0.150803
666,6.66,0.563158,0.03240299999999996,-0.046575,0.353943,0.573395,0.114578
667,6.67,0.394482,-0.321157,-0.038475999999999996,0.42211899999999997,0.5936279999999999,0.074112
668,6.68,0.09435799999999996,-0.5356529999999999,-0.03544,0.46260100000000004,0.5936279999999999,0.035751
669,6.69,-0.237171,-0.738267,-0.048468000000000004,0.478592,0.565933,0.009125
670,6.7,-0.478778,-0.8487319999999999,-0.061573,0.464737,0.538239,-0.005783000000000001
671,6.71,-0.6860229999999999,-0.8871190000000001,-0.07804,0.424255,0.48924300000000004,-0.017502
672,6.72,-0.921219,-0.840879,-0.141573,0.372055,0.435974,-0.020706
673,6.73,-1.215057,-0.731139,-0.134714,0.299622,0.383774,-0.029220999999999997
674,6.74,-1.5294370000000002,-0.647472,-0.097727,0.21759,0.310272,-0.019638
675,6.75,-1.8216240000000001,-0.512249,-0.072033,0.128113,0.233582,0.004868000000000001
676,6.76,-1.971493,-0.413542,-0.056637,-0.0018460000000000004,0.136642,0.053863999999999995
677,6.77,-1.996868,-0.29115,-0.005877,-0.08280900000000001,0.071655,0.070908
678,6.78,-1.855486,-0.221556,-0.0026110000000000018,-0.15951500000000002,0.025848,0.082626
679,6.79,-1.8211389999999998,-0.274079,0.157176,-0.21702600000000002,-0.012497,0.07836900000000001
680,6.8,-1.8819599999999999,-0.181543,0.337267,-0.260712,-0.058303999999999995,0.063446
681,6.81,-2.055393,-0.065957,0.494859,-0.296921,-0.067902,0.040024000000000004
682,6.82,-2.129883,0.06277599999999997,0.645016,-0.323563,-0.121155,0.015518
683,6.83,-2.342879,0.25000700000000003,0.6267689999999999,-0.344864,-0.11050399999999999,-0.006851
684,6.84,-2.3269490000000004,0.390733,0.492195,-0.37255900000000003,-0.08494600000000001,-0.021774
685,6.85,-2.166068,0.314733,0.135454,-0.409851,-0.028488,-0.031356999999999996
686,6.86,-1.726502,0.28075700000000003,-0.352806,-0.46737700000000004,0.035431,-0.046265
687,6.87,-1.377969,0.43882200000000005,-0.6325850000000001,-0.534485,0.105743,-0.063309
688,6.88,-0.9278709999999999,0.943255,-0.735264,-0.6069180000000001,0.171783,-0.077164
689,6.89,-0.589815,1.603375,-0.704657,-0.677231,0.234634,-0.08142100000000001
690,6.9,-0.6920149999999999,1.922709,-0.28051399999999993,-0.727295,0.287903,-0.061188
691,6.91,-0.18247400000000005,2.148781,-0.16781500000000002,-0.7390140000000001,0.35289,-0.035614
692,6.92,-0.042487,2.312536,-0.188672,-0.719833,0.39869699999999997,-0.016449000000000002
693,6.93,0.374554,2.3318209999999997,-0.10251400000000001,-0.610123,0.464737,-0.024963
694,6.94,0.8703700000000001,1.784191,-0.028666000000000004,-0.418365,0.6085510000000001,-0.06758099999999999
695,6.95,0.946485,1.030149,-0.3688,-0.18721,0.756622,-0.11444100000000001
696,6.96,1.0964450000000001,0.2951770000000001,-1.141494,-0.018890000000000004,0.9164120000000001,-0.121902
697,6.97,1.094702,-0.24925,-1.602611,0.05993699999999999,1.037842,-0.109116
698,6.98,1.156706,-0.49459200000000003,-1.546864,0.089767,1.153961,-0.075027
699,6.99,1.240866,-0.44590100000000005,-1.26376,0.091888,1.232788,-0.017502
700,7.0,1.3596620000000001,-0.196486,-0.8217190000000001,0.07591200000000001,1.289246,0.058121000000000006
701,7.01,1.567526,0.264268,-0.345217,0.041824,1.314819,0.13908399999999999
702,7.02,1.916093,0.6483979999999999,0.137903,0.0034789999999999995,1.322281,0.222183
703,7.03,2.277109,0.955159,0.526674,-0.025284,1.328659,0.294617
704,7.04,2.585511,1.164035,0.786204,-0.043396,1.332932,0.362793
705,7.05,2.7856490000000003,1.074913,0.9803200000000001,-0.071091,1.319077,0.41925
706,7.06,2.949036,0.9002629999999999,1.12649,-0.090271,1.289246,0.47357200000000005
707,7.07,3.10263,0.83921,1.271696,-0.10199,1.222137,0.5066069999999999
708,7.08,3.190561,0.7588729999999999,1.4044510000000001,-0.108383,1.148636,0.5183260000000001
709,7.09,3.18634,0.484158,1.578647,-0.10943599999999999,1.083649,0.492752
710,7.1,2.948898,0.296506,1.7022650000000001,-0.092392,1.0197450000000001,0.445877
711,7.11,2.558735,0.190364,1.6500270000000001,-0.064697,0.921738,0.395813
712,7.12,2.152736,0.013206999999999995,1.553595,-0.045531999999999996,0.801361,0.346817
713,7.13,1.831562,-0.110579,1.305791,-0.034866,0.665009,0.29035900000000003
714,7.14,1.472903,-0.385837,1.183266,-0.042328,0.538239,0.22963000000000003
715,7.15,1.125793,-0.692909,1.099868,-0.049789,0.441299,0.175308
716,7.16,0.885774,-0.889784,0.950572,-0.057236,0.37738,0.129501
717,7.17,0.6777479999999999,-0.971046,0.67653,-0.066833,0.33371,0.096481
718,7.18,0.585067,-0.996475,0.353298,-0.08706699999999999,0.297485,0.07623300000000001
719,7.19,0.552109,-0.953984,0.072375,-0.115829,0.264465,0.061325
720,7.2,0.5463319999999999,-0.8576860000000001,-0.143582,-0.149918,0.221863,0.053863999999999995
721,7.21,0.559559,-0.650985,-0.246523,-0.181885,0.181381,0.049606
722,7.22,0.58055,-0.554764,-0.16634200000000002,-0.207443,0.150482,0.052795
723,7.23,0.581865,-0.44342299999999996,-0.035427,-0.21702600000000002,0.14515699999999998,0.059189
724,7.24,0.5926279999999999,-0.358205,0.047257,-0.207443,0.14941400000000002,0.065582
725,7.25,0.5672729999999999,-0.292677,0.056273000000000004,-0.189331,0.160065,0.086884
726,7.26,0.5956140000000001,-0.242738,0.049943,-0.163773,0.171783,0.10713199999999999
727,7.27,0.593204,-0.23823699999999998,0.037098,-0.141403,0.18670699999999998,0.127365
728,7.28,0.616263,-0.193449,0.058453,-0.117966,0.19628900000000002,0.142288
729,7.29,0.61331,-0.12150599999999999,0.064512,-0.097717,0.203751,0.14866600000000002
730,7.3,0.512817,-0.08451,0.11710599999999999,-0.08067300000000001,0.20587199999999997,0.156128
731,7.31,0.37254699999999996,0.011366,0.239065,-0.06150800000000001,0.19203199999999998,0.163589
732,7.32,0.191155,0.075934,0.363531,-0.040192,0.177109,0.164658
733,7.33,-0.005874000000000004,0.105762,0.493597,-0.00824,0.160065,0.164658
734,7.34,-0.200787,0.06928,0.48415699999999995,0.034363,0.129181,0.159332
735,7.35,-0.39555100000000004,-0.046281,0.519411,0.076981,0.113205,0.146545
736,7.36,-0.467866,-0.201033,0.49022200000000005,0.12492400000000001,0.08230599999999999,0.124176
737,7.37,-0.508959,-0.366681,0.473764,0.167526,0.059937,0.09967000000000001
738,7.38,-0.57428,-0.423029,0.55045,0.208008,0.043961,0.069839
739,7.39,-0.6302449999999999,-0.500996,0.844774,0.248489,0.032242,0.034683
740,7.4,-0.7974479999999999,-0.297668,1.221839,0.291092,0.032242,0.0016629999999999993
741,7.41,-1.064455,-0.063694,1.706423,0.343292,0.031174,-0.015381
742,7.42,-1.3490870000000001,0.106019,2.144096,0.39975,0.026917,-0.012177
743,7.43,-1.634728,0.251782,2.46348,0.456207,0.023712,0.010193
744,7.44,-1.6748169999999998,0.172145,2.597522,0.5211939999999999,0.008803999999999996,0.049606
745,7.45,-1.573806,0.17836,2.4281349999999997,0.569138,-0.001846,0.075165
746,7.46,-1.346974,0.175045,2.025579,0.579788,-0.0071719999999999996,0.08048999999999999
747,7.47,-0.9910190000000001,0.100451,1.60963,0.546768,-0.0071719999999999996,0.063446
748,7.48,-0.7649279999999999,0.090244,1.337013,0.490295,-0.014633000000000002,0.026169000000000005
749,7.49,-0.624293,0.255498,1.095032,0.413605,-0.048721,-0.017501999999999997
750,7.5,-0.719184,0.612768,1.055808,0.318802,-0.095596,-0.061188
751,7.51,-0.9357059999999999,1.076383,1.338689,0.215469,-0.162704,-0.091003
752,7.52,-1.155141,1.47876,1.7057630000000001,0.136642,-0.251114,-0.083557
753,7.53,-1.0738299999999998,1.391182,1.9061740000000003,0.08017,-0.340607,-0.066513
754,7.54,-0.831023,1.1351790000000002,1.927275,0.054611,-0.43115200000000004,-0.06758099999999999
755,7.55,-0.7581680000000001,1.294261,1.877405,0.039702999999999995,-0.508911,-0.088882
756,7.56,-0.8736219999999999,1.723216,1.991493,0.02478,-0.59201,-0.13894700000000001
757,7.57,-1.087744,2.067526,2.133096,0.015198,-0.6985319999999999,-0.192215
758,7.58,-1.1367120000000002,1.7837830000000001,2.189438,0.025848000000000003,-0.815704,-0.242279
759,7.59,-0.793697,1.007123,1.824416,0.054611,-0.9446110000000001,-0.298737
760,7.6,-0.419721,0.06442800000000004,1.090394,0.091888,-1.062851,-0.38609299999999996
761,7.61,-0.133173,-0.454779,0.5367430000000001,0.13983199999999998,-1.182159,-0.509659
762,7.62,-0.089685,-0.422651,0.9379790000000001,0.353943,-1.263123,-0.722717
763,7.63,0.08987300000000001,-0.163217,1.9705840000000001,0.814148,-1.355804,-0.989029
764,7.64,-0.328769,0.053249999999999985,1.9422110000000001,1.4288020000000001,-1.431427,-1.208481
765,7.65,-0.5618350000000001,0.589184,-0.18751699999999996,1.8229520000000001,-1.482559,-1.237228
766,7.66,-0.515419,0.741715,-2.1336630000000003,1.863434,-1.6285100000000001,-1.101944
767,7.67,-0.672383,0.161107,-3.478395,1.726013,-1.7627259999999998,-0.8633270000000001
768,7.68,-0.042291000000000016,-0.093112,-4.720739,1.408554,-1.7776490000000003,-0.55014
769,7.69,0.775295,-0.4280280000000001,-5.341741000000001,1.012283,-1.752075,-0.274231
770,7.7,1.5864260000000001,-0.671217,-5.77383,0.554214,-1.6050719999999998,-0.036681999999999985
771,7.71,2.213735,-0.935384,-5.778164,0.10360699999999999,-1.387756,0.11671400000000001
772,7.72,2.197387,-0.7431220000000001,-5.284543,-0.318237,-1.1011959999999998,0.21046399999999998
773,7.73,2.0882970000000003,-0.231081,-4.2238050000000005,-0.610123,-0.844467,0.27864099999999997
774,7.74,1.637465,0.657146,-2.970335,-0.72197,-0.74115,0.337219
775,7.75,1.411297,1.501044,-1.6884279999999998,-0.678299,-0.7081149999999999,0.381973
776,7.76,1.562307,1.5488870000000001,-0.906091,-0.56218,-0.659119,0.38942
777,7.77,1.50072,0.8833690000000001,-0.576562,-0.434341,-0.615448,0.371307
778,7.78,1.4922799999999998,0.06262000000000001,-0.92604,-0.36084,-0.554718,0.33403
779,7.79,1.040325,-0.574,-1.299231,-0.384277,-0.511047,0.293549
780,7.8,0.615324,-0.973001,-1.207344,-0.455658,-0.44073500000000004,0.27864099999999997
781,7.81,0.303406,-0.953074,-0.819583,-0.5270229999999999,-0.409851,0.274368
782,7.82,-0.164597,-1.217851,-0.371481,-0.58136,-0.384277,0.263718
783,7.83,-0.290453,-1.146822,0.218498,-0.6175689999999999,-0.397064,0.24774200000000002
784,7.84,-0.390588,-1.18884,0.708006,-0.598404,-0.38001999999999997,0.22750900000000002
785,7.85,-0.514332,-1.292129,0.9941700000000001,-0.555786,-0.375763,0.19981400000000002
786,7.86,-0.511181,-1.4287590000000001,1.123177,-0.49400299999999997,-0.354446,0.177429
787,7.87,-0.482609,-1.563365,1.141015,-0.42157,-0.331009,0.14973399999999998
788,7.88,-0.329251,-1.599982,0.976665,-0.353394,-0.30545,0.133759
789,7.89,-0.181686,-1.6609630000000002,0.635147,-0.303314,-0.28947399999999995,0.120972
790,7.9,-0.053488,-1.723228,0.21688400000000002,-0.27243,-0.282013,0.109253
791,7.91,0.160366,-1.653311,-0.10964100000000003,-0.27243,-0.27562,0.09753400000000001
792,7.92,0.162358,-1.582927,-0.342933,-0.288406,-0.27243,0.09753400000000001
793,7.93,0.158946,-1.2885360000000001,-0.483937,-0.313965,-0.254318,0.09967000000000001
794,7.94,-0.07376599999999997,-0.9095129999999999,-0.5348689999999999,-0.348053,-0.22981300000000002,0.11245699999999999
795,7.95,-0.11426700000000001,-0.583845,-0.578639,-0.377884,-0.185074,0.134827
796,7.96,-0.314246,-0.29580100000000004,-0.5705210000000001,-0.404526,-0.130753,0.157196
797,7.97,-0.36622899999999997,-0.05929899999999999,-0.607869,-0.408783,-0.048721,0.18595899999999999
798,7.98,-0.36436199999999996,0.20652800000000002,-0.747546,-0.387482,0.034363000000000005,0.209396
799,7.99,-0.23958600000000002,0.49721899999999997,-0.739426,-0.33314499999999997,0.148346,0.233902
800,8.0,-0.073576,0.740229,-0.707466,-0.23406999999999997,0.28471399999999997,0.256271
801,8.01,-0.0034180000000000013,0.867483,-0.41098900000000005,-0.088135,0.409348,0.271179
802,8.02,0.05657,0.9024190000000001,-0.143395,0.09828200000000001,0.518005,0.26265
803,8.03,0.040014999999999995,0.696184,-0.010375999999999995,0.30494699999999997,0.585114,0.24028000000000002
804,8.04,-0.091158,0.496267,-0.155338,0.482849,0.61174,0.201935
805,8.05,-0.384042,0.165452,-0.341814,0.5968319999999999,0.6053470000000001,0.15506
806,8.06,-0.634025,-0.14332999999999999,-0.43387700000000007,0.6532899999999999,0.569138,0.115646
807,8.07,-0.9886940000000001,-0.33436,-0.44826800000000006,0.656479,0.513733,0.095413
808,8.08,-1.2678459999999998,-0.512147,-0.25453200000000004,0.6277159999999999,0.45088199999999995,0.087952
809,8.09,-1.602716,-0.595209,-0.060644000000000024,0.579788,0.374191,0.090088
810,8.1,-1.8594540000000002,-0.715629,0.006817,0.507355,0.28471399999999997,0.09967000000000001
811,8.11,-2.138411,-0.809654,0.13508399999999998,0.407211,0.20161400000000002,0.113525
812,8.12,-2.433569,-1.0226959999999998,0.280966,0.291092,0.119598,0.13056900000000002
813,8.13,-2.487225,-1.1564139999999998,0.46885299999999996,0.18243399999999999,0.048218000000000004,0.14973399999999998
814,8.14,-2.340369,-1.094041,0.558284,0.06951900000000001,0.004546999999999999,0.151871
815,8.15,-2.388831,-1.0946879999999999,0.579864,-0.039138999999999986,-0.02742,0.146545
816,8.16,-2.196126,-0.9140950000000001,0.666298,-0.153122,-0.08706699999999999,0.124176
817,8.17,-1.95715,-0.520651,0.655255,-0.24685700000000002,-0.11370799999999999,0.09967000000000001
818,8.18,-1.874582,0.085596,0.5503060000000001,-0.354446,-0.161636,0.079437
819,8.19,-2.078234,0.573574,0.501846,-0.463104,-0.20318599999999998,0.069839
820,8.2,-1.761998,0.643734,0.441708,-0.5706939999999999,-0.244736,0.057067999999999994
821,8.21,-1.602874,0.378436,0.28712,-0.6516569999999999,-0.264969,0.029358
822,8.22,-1.086147,0.08439400000000001,0.013910000000000006,-0.717712,-0.277756,-0.013245000000000002
823,8.23,-0.812833,0.117968,-0.011626999999999998,-0.762451,-0.25006100000000003,-0.064377
824,8.24,-0.325499,0.619482,-0.30856,-0.7731020000000001,-0.196793,-0.117645
825,8.25,-0.6108560000000001,1.3482889999999998,-0.192598,-0.806122,-0.141403,-0.162384
826,8.26,-0.7338359999999999,2.077649,-0.139486,-0.794403,-0.095596,-0.177292
827,8.27,-0.740155,2.638777,-0.30639,-0.768845,-0.096664,-0.162384
828,8.28,-0.611347,3.1424279999999998,-0.476882,-0.68042,-0.077484,-0.135757
829,8.29,-0.32038199999999994,2.986446,-0.44886499999999996,-0.48761000000000004,0.07591199999999998,-0.11976600000000001
830,8.3,-0.272777,2.181561,-0.9077540000000001,-0.188263,0.334778,-0.14534
831,8.31,-0.150475,1.454758,-2.10395,0.07058699999999997,0.607483,-0.171967
832,8.32,0.009128999999999998,0.7942229999999999,-2.836314,0.198425,0.8162689999999999,-0.167709
833,8.33,0.21294,0.546385,-2.733488,0.261276,1.016541,-0.130432
834,8.34,0.510077,0.466146,-2.14221,0.272995,1.1827239999999999,-0.07077
835,8.35,0.896279,0.521529,-1.389171,0.250626,1.323334,0.014449999999999998
836,8.36,1.337793,0.640545,-0.58782,0.204819,1.411758,0.113525
837,8.37,1.720386,0.801265,0.19483,0.171783,1.463959,0.221115
838,8.38,2.038548,0.8518459999999999,0.948163,0.146225,1.484192,0.331894
839,8.39,2.25434,0.879192,1.421556,0.143021,1.495911,0.434158
840,8.4,2.430882,0.892956,1.818352,0.150482,1.52681,0.515121
841,8.41,2.3680000000000003,0.782245,2.1001790000000002,0.16539,1.5513,0.569458
842,8.42,2.523046,0.6104689999999999,2.050415,0.19203199999999998,1.5768739999999999,0.591827
843,8.43,2.698654,0.209694,1.694555,0.215469,1.543854,0.580109
844,8.44,2.749256,-0.123854,1.297928,0.212265,1.479935,0.5502779999999999
845,8.45,2.6597419999999996,-0.330692,0.9180520000000001,0.195221,1.363815,0.5023350000000001
846,8.46,2.557235,-0.6382939999999999,0.795093,0.162201,1.230667,0.44908100000000006
847,8.47,2.343197,-0.8239270000000001,0.8240139999999999,0.136642,1.068741,0.384094
848,8.48,2.216816,-0.946426,0.686539,0.11213699999999999,0.896164,0.315918
849,8.49,2.011158,-1.014864,0.531119,0.07911699999999999,0.735321,0.242416
850,8.5,1.763724,-1.166999,0.713133,0.029037,0.612808,0.167847
851,8.51,1.6429189999999998,-1.403779,0.988966,-0.010375999999999998,0.5457,0.096481
852,8.52,1.407068,-1.584951,1.209702,-0.019958,0.4935,0.041076999999999995
853,8.53,1.102834,-1.589105,1.196984,-0.026351999999999997,0.47219799999999995,0.004868000000000001
854,8.54,0.9056719999999999,-1.515212,0.9967600000000001,-0.038071,0.437042,-0.008987
855,8.55,0.725087,-1.378185,0.779433,-0.067902,0.388031,-0.011124
856,8.56,0.540783,-1.282434,0.5274939999999999,-0.11264,0.318802,0.003799
857,8.57,0.440108,-1.2276799999999999,0.440321,-0.171219,0.251678,0.030425999999999998
858,8.58,0.448833,-1.2049299999999998,0.42221899999999996,-0.221298,0.194153,0.061325
859,8.59,0.375665,-1.1261379999999999,0.501966,-0.256454,0.1409,0.090088
860,8.6,0.340936,-1.0027139999999999,0.52022,-0.27562,0.096161,0.113525
861,8.61,0.323827,-0.899176,0.394531,-0.28947399999999995,0.048218000000000004,0.13908399999999999
862,8.62,0.302324,-0.7174550000000001,0.294029,-0.297989,0.00027500000000000094,0.16145299999999999
863,8.63,0.301807,-0.538898,0.277445,-0.30864,-0.035934,0.178497
864,8.64,0.321367,-0.350826,0.262343,-0.307587,-0.066833,0.19128399999999998
865,8.65,0.28879,-0.152582,0.215441,-0.302261,-0.094528,0.198746
866,8.66,0.27020900000000003,0.038703,0.132456,-0.288406,-0.10731500000000001,0.201935
867,8.67,0.21731599999999998,0.153862,0.09851599999999999,-0.264969,-0.11903399999999999,0.197678
868,8.68,0.118197,0.329244,0.055310000000000005,-0.225555,-0.131805,0.194473
869,8.69,0.015183000000000004,0.5277609999999999,0.031636000000000004,-0.18293800000000002,-0.139267,0.184891
870,8.7,-0.07155299999999999,0.6831020000000001,-0.020186000000000003,-0.13501,-0.15524300000000002,0.16571
871,8.71,-0.213921,0.736442,-0.05605199999999999,-0.083878,-0.169098,0.14122
872,8.72,-0.337889,0.714444,0.031357,-0.031677,-0.181885,0.106064
873,8.73,-0.5687479999999999,0.865375,0.419607,0.026917,-0.175491,0.062393
874,8.74,-0.840485,0.9646809999999999,0.9486969999999999,0.104675,-0.147797,0.021912
875,8.75,-1.187941,1.032864,1.631034,0.20161400000000002,-0.10943599999999999,-0.014313
876,8.76,-1.594684,1.077893,2.179648,0.317734,-0.071091,-0.031356999999999996
877,8.77,-2.0200009999999997,1.10143,2.636762,0.441299,-0.055115,-0.022827
878,8.78,-2.30523,0.991509,2.709603,0.573395,-0.048721,-0.0025939999999999987
879,8.79,-2.528007,0.8358899999999999,2.536449,0.683121,-0.11050399999999999,0.015518
880,8.8,-2.5587419999999996,0.584739,2.190297,0.755554,-0.166962,0.021912
881,8.81,-2.550687,0.32356399999999996,1.894194,0.783249,-0.23940999999999998,0.008057
882,8.82,-2.4444529999999998,0.373724,1.75512,0.775787,-0.29586799999999996,-0.0271
883,8.83,-2.5161119999999997,0.49686899999999995,1.903962,0.743835,-0.33314499999999997,-0.08248899999999999
884,8.84,-2.666613,0.874919,2.223455,0.706558,-0.365097,-0.134689
885,8.85,-2.832218,1.032692,2.275665,0.66394,-0.42050200000000004,-0.174103
886,8.86,-2.871995,1.2019389999999999,2.113118,0.6085510000000001,-0.471634,-0.192215
887,8.87,-2.575042,1.303424,2.0730939999999998,0.523331,-0.571762,-0.205002
888,8.88,-2.2030529999999997,1.372052,1.897069,0.459412,-0.622894,-0.225235
889,8.89,-1.049807,1.065763,1.238967,0.381653,-0.6974640000000001,-0.26358000000000004
890,8.9,1.581102,0.720386,0.07137800000000005,0.319855,-0.770966,-0.362656
891,8.91,2.7576680000000002,-0.04727700000000001,-1.2210370000000002,0.236771,-0.8679049999999999,-0.5341640000000001
892,8.92,2.207856,-0.7029529999999999,-1.9004459999999999,0.11853,-1.0,-0.715256
893,8.93,0.8731120000000001,-0.9901260000000001,-1.215906,0.089767,-1.152328,-0.903809
894,8.94,0.098582,-0.756945,0.25964999999999994,0.356079,-1.339828,-1.090225
895,8.95,-0.279355,0.21278800000000006,1.46294,0.857819,-1.4697879999999999,-1.2233889999999998
896,8.96,-0.964334,1.1362430000000001,0.670704,1.332932,-1.5166629999999999,-1.235107
897,8.97,-1.2529,1.759196,-0.8692409999999999,1.495911,-1.601883,-1.067856
898,8.98,-0.9281200000000001,1.6005610000000001,-2.5419240000000003,1.426666,-1.650879,-0.799408
899,8.99,-0.10753900000000001,0.623214,-3.796468,1.169937,-1.6913599999999998,-0.488358
900,9.0,1.45851,-0.8483720000000001,-4.819115,0.588303,-1.596558,-0.092072
901,9.01,2.402793,-1.391357,-5.022241999999999,0.177109,-1.4229129999999999,0.055999999999999994
902,9.02,2.6896,-1.356507,-4.8194,-0.219162,-1.268448,0.118851
903,9.03,2.2893310000000002,-0.589305,-4.0150239999999995,-0.515305,-1.151276,0.131622
904,9.04,1.7322389999999999,0.518302,-3.1669709999999998,-0.671906,-1.062851,0.128433
905,9.05,1.1461459999999999,1.295105,-2.349764,-0.720901,-1.059662,0.12204000000000001
906,9.06,0.9829680000000001,1.096573,-1.5711979999999999,-0.714508,-1.024506,0.102875
907,9.07,0.82821,0.38197,-0.9035049999999999,-0.6410060000000001,-0.9818879999999999,0.071976
908,9.08,0.620279,-0.5630539999999999,-0.77647,-0.576019,-0.8955989999999999,0.038956
909,9.09,0.47789799999999993,-1.268572,-0.969901,-0.568573,-0.7571260000000001,0.026169
910,9.1,0.203992,-1.890613,-1.004902,-0.60585,-0.626099,0.031494
911,9.11,0.118867,-2.083445,-0.837015,-0.649536,-0.463104,0.065582
912,9.12,-0.026225,-1.9616759999999998,-0.40725300000000003,-0.693207,-0.32142600000000005,0.10392799999999999
913,9.13,0.060838000000000024,-1.7610139999999999,0.009618999999999987,-0.696396,-0.186142,0.143341
914,9.14,0.18321700000000002,-1.537301,0.331493,-0.670837,-0.122223,0.16677899999999998
915,9.15,0.398827,-1.382013,0.5449609999999999,-0.618637,-0.127548,0.16677899999999998
916,9.16,0.690818,-1.376898,0.7906380000000001,-0.552597,-0.179749,0.151871
917,9.17,0.901394,-1.4505940000000002,0.998168,-0.450333,-0.268158,0.11138900000000002
918,9.18,0.923689,-1.520933,1.1850450000000001,-0.32995599999999997,-0.332077,0.064514
919,9.19,0.88255,-1.696523,1.138807,-0.208511,-0.357651,0.011261
920,9.2,0.778266,-1.7464080000000002,0.8773120000000001,-0.097717,-0.375763,-0.028168000000000002
921,9.21,0.5931930000000001,-1.684379,0.366595,-0.016769,-0.376816,-0.050537
922,9.22,0.48052,-1.615634,-0.187799,0.020523,-0.374695,-0.065445
923,9.23,0.11246099999999999,-1.429358,-0.619434,0.022659000000000002,-0.374695,-0.059052
924,9.24,-0.11719400000000002,-1.171369,-0.9695729999999999,0.0034789999999999977,-0.341675,-0.030289000000000007
925,9.25,-0.378372,-0.8756120000000001,-1.1082290000000001,-0.033813,-0.290543,0.011261000000000002
926,9.26,-0.552501,-0.5312399999999999,-1.046268,-0.059372,-0.212769,0.063446
927,9.27,-0.662011,-0.276886,-0.787974,-0.072159,-0.11903399999999999,0.109253
928,9.28,-0.80213,-0.051990000000000015,-0.504868,-0.049789,-0.022095000000000004,0.154007
929,9.29,-0.839766,0.06641,-0.271476,0.006668,0.087631,0.194473
930,9.3,-0.85182,0.185461,-0.075653,0.091888,0.159012,0.204071
931,9.31,-0.805027,0.43548000000000003,0.19858399999999998,0.21759,0.202682,0.19660899999999998
932,9.32,-1.02131,0.559413,0.265092,0.36886599999999997,0.229309,0.160385
933,9.33,-1.425645,0.711507,0.140507,0.500961,0.243164,0.118851
934,9.34,-1.9521330000000001,0.797348,-0.051681,0.592575,0.225052,0.08902
935,9.35,-2.486678,0.7722060000000001,-0.16730799999999998,0.615997,0.1931,0.068771
936,9.36,-3.013433,0.541357,-0.364976,0.556351,0.187775,0.050674000000000004
937,9.37,-3.1641369999999998,0.23884,-0.241723,0.435974,0.129181,0.068771
938,9.38,-3.082705,0.053413999999999996,-0.13283299999999998,0.302811,0.119598,0.106064
939,9.39,-2.8542810000000003,-0.24151,0.106268,0.14941400000000002,0.11213699999999999,0.14973399999999998
940,9.4,-2.683358,-0.289149,0.384387,0.016266000000000003,0.14515699999999998,0.19554100000000002
941,9.41,-2.656253,-0.03674099999999998,0.751149,-0.11476099999999999,0.16539,0.22963000000000003
942,9.42,-2.396624,0.167328,0.9823700000000001,-0.22662399999999996,0.170731,0.237091
943,9.43,-2.578159,0.506351,1.318709,-0.32568400000000003,0.119598,0.220047
944,9.44,-2.3066720000000003,0.9145969999999999,1.456113,-0.397064,0.03970300000000001,0.192352
945,9.45,-2.00521,1.14011,1.394598,-0.45991499999999996,-0.047652999999999994,0.157196
946,9.46,-1.434818,1.2512450000000002,1.098962,-0.512115,-0.130753,0.109253
947,9.47,-1.343049,1.337942,0.8245819999999999,-0.579224,-0.19786099999999998,0.049606
948,9.48,-1.177793,1.6016540000000001,0.606356,-0.648468,-0.252182,-0.016449000000000002
949,9.49,-1.2571370000000002,1.8805319999999999,-0.04497400000000002,-0.71344,-0.31291199999999997,-0.095276
950,9.5,-0.756567,2.094932,-0.9437040000000001,-0.8018649999999999,-0.362976,-0.177292
951,9.51,-0.529058,1.722622,-1.8289900000000001,-0.9030610000000001,-0.353394,-0.265717
952,9.52,-0.465318,1.0671389999999998,-2.4555740000000004,-1.006393,-0.26603699999999997,-0.345612
953,9.53,-0.716771,0.645018,-2.638937,-1.0490110000000001,-0.08706699999999999,-0.3797
954,9.54,-1.113171,0.553391,-1.8271810000000002,-0.90094,0.21972700000000006,-0.365845
955,9.55,-1.191966,1.160319,-1.220644,-0.492935,0.590439,-0.312592
956,9.56,-1.2059360000000001,1.946993,-1.0403639999999998,0.004546999999999996,1.034653,-0.242279
957,9.57,-0.9720409999999999,2.090596,-1.509372,0.35289,1.474609,-0.128296
958,9.58,-0.263298,1.8362610000000001,-1.672205,0.481781,1.811234,0.019775000000000008
959,9.59,0.7981600000000001,1.263284,-0.9905950000000001,0.47538800000000003,2.00618,0.180634
960,9.6,1.8064759999999997,0.726618,0.14106300000000005,0.43811000000000005,2.161697,0.326569
961,9.61,2.133636,0.530273,0.980317,0.409348,2.243729,0.455475
962,9.62,2.147379,0.354242,1.501708,0.391235,2.270355,0.574783
963,9.63,2.1727380000000003,0.34313,1.780939,0.365662,2.281006,0.665329
964,9.64,2.5928970000000002,0.326306,1.761598,0.330521,2.263962,0.7153930000000001
965,9.65,2.787065,0.08751799999999997,1.6063209999999999,0.28471399999999997,2.250122,0.7217859999999999
966,9.66,3.143749,-0.378359,1.554616,0.221863,2.220291,0.701553
967,9.67,3.212799,-0.887958,1.453737,0.183502,2.162766,0.654678
968,9.68,3.317991,-1.3233,1.323375,0.134506,2.1105650000000002,0.600342
969,9.69,3.287116,-1.583585,1.019831,0.096161,1.979538,0.531097
970,9.7,3.009519,-1.8663169999999998,0.703549,0.03331,1.8367919999999998,0.459732
971,9.71,2.592678,-2.084649,0.7028479999999999,-0.044464,1.669556,0.38942
972,9.72,2.2292330000000002,-2.2938959999999997,1.020046,-0.11050399999999999,1.5236049999999999,0.328705
973,9.73,1.884221,-2.353288,1.241072,-0.14565999999999998,1.35849,0.27331500000000003
974,9.74,1.614951,-2.336782,1.368754,-0.176559,1.2509,0.22323600000000002
975,9.75,1.409098,-2.413223,1.546535,-0.20211800000000002,1.164612,0.18595899999999999
976,9.76,1.177783,-2.213994,1.4502190000000001,-0.206375,1.075134,0.156128
977,9.77,1.126482,-2.016263,1.2555370000000001,-0.22981300000000002,0.987778,0.14761400000000002
978,9.78,0.9460569999999999,-1.7761779999999998,1.0890959999999998,-0.254318,0.8737950000000001,0.156128
979,9.79,0.8499620000000001,-1.7061819999999999,0.850542,-0.28626999999999997,0.727859,0.173172
980,9.8,0.8890370000000001,-1.602866,0.7618119999999999,-0.317169,0.5744630000000001,0.197678
981,9.81,0.958685,-1.609014,0.738689,-0.33634899999999995,0.434906,0.220047
982,9.82,1.0856059999999998,-1.5150549999999998,0.686191,-0.340607,0.29643200000000003,0.238159
983,9.83,1.0698020000000001,-1.385512,0.6442680000000001,-0.345932,0.19096400000000002,0.24455300000000002
984,9.84,0.997669,-1.1168690000000001,0.722767,-0.339539,0.08017,0.24028000000000002
985,9.85,0.8944030000000001,-0.930307,0.735957,-0.322495,-0.022095,0.22644
986,9.86,0.795981,-0.454487,0.692434,-0.299057,-0.128616,0.205139
987,9.87,0.506246,-0.015564000000000022,0.544772,-0.277756,-0.26178,0.180634
988,9.88,0.14018099999999994,0.42629700000000004,0.45231000000000005,-0.256454,-0.407715,0.167847
989,9.89,-0.169999,0.8727159999999999,0.43462399999999995,-0.23406999999999997,-0.5611109999999999,0.157196
990,9.9,-0.5988939999999999,1.264084,0.533684,-0.199982,-0.704926,0.14440899999999998
991,9.91,-0.8567610000000001,1.5509469999999999,0.695312,-0.147797,-0.799728,0.127365
992,9.92,-1.203133,1.825274,1.124471,-0.066833,-0.8253020000000001,0.091156
993,9.93,-1.697295,2.0611080000000004,1.618906,0.042892,-0.790146,0.038956
994,9.94,-2.324218,2.3196630000000003,2.017939,0.18243399999999999,-0.703857,-0.01857
995,9.95,-2.980856,2.526087,2.191859,0.319855,-0.636749,-0.059052
996,9.96,-3.855872,2.3980099999999998,2.3925240000000003,0.46366899999999994,-0.603729,-0.08142100000000001
997,9.97,-4.1146139999999995,2.29093,2.458241,0.585114,-0.6452640000000001,-0.084625
998,9.98,-4.25087,2.050344,2.603569,0.693771,-0.6996,-0.097397
999,9.99,-4.181123,1.8079470000000002,2.617365,0.772598,-0.753922,-0.140015
1000,10.0,-4.078994000000001,1.712118,2.600926,0.836517,-0.805054,-0.212448
1001,10.01,-3.853243,2.052694,2.5762259999999997,0.871674,-0.865784,-0.300873
1002,10.02,-3.44159,2.230522,2.3321560000000003,0.880188,-0.9350280000000001,-0.389282
1003,10.03,-2.592734,1.871231,1.6610619999999998,0.863144,-1.067108,-0.458527
1004,10.04,-1.548922,1.29185,1.000242,0.797104,-1.220505,-0.518188
1005,10.05,-0.57263,0.7126859999999999,0.777546,0.716141,-1.321716,-0.599136
1006,10.06,-0.065774,0.13905499999999998,0.467591,0.66713,-1.418655,-0.679031
1007,10.07,0.056960000000000004,-0.571124,-0.036990000000000016,0.6064149999999999,-1.549683,-0.780243
1008,10.08,-0.067656,-1.3673620000000002,-0.32768400000000003,0.5829770000000001,-1.695618,-0.913391
1009,10.09,-0.13167,-1.650218,-0.264823,0.6863100000000001,-1.7723240000000002,-1.056137
1010,10.1,-0.694814,-1.6544169999999998,0.61498,0.9068149999999999,-1.81813,-1.154144
1011,10.11,-0.8910040000000001,-0.583252,0.42595200000000005,1.18486,-1.826645,-1.150955
1012,10.12,-1.169475,0.99938,-0.8260100000000001,1.2647549999999999,-1.901215,-1.031647
1013,10.13,-1.060608,2.06872,-2.113195,1.1358489999999999,-1.920395,-0.795151
1014,10.14,-0.503379,2.472604,-2.983988,0.8056180000000001,-1.9779209999999998,-0.475571
1015,10.15,0.573028,1.760575,-3.747615,0.393356,-1.8948209999999999,-0.132553
1016,10.16,1.8074880000000002,0.647629,-4.0007470000000005,-0.024216000000000043,-1.87352,0.13056900000000002
1017,10.17,2.729724,-0.051099000000000006,-3.79127,-0.366165,-1.7787169999999999,0.277573
1018,10.18,2.865774,0.100077,-3.7115050000000003,-0.596268,-1.666855,0.331894
1019,10.19,2.8755509999999997,0.754478,-4.348815,-0.762451,-1.5475459999999999,0.318054
1020,10.2,2.4392169999999997,0.988265,-4.855899,-0.92543,-1.406937,0.258392
1021,10.21,1.308157,0.633163,-5.221785,-1.080963,-1.264191,0.19128399999999998
1022,10.22,-0.116965,-0.04710700000000001,-4.99706,-1.220505,-1.127838,0.171051
1023,10.23,-1.010428,-1.183483,-4.039105,-1.315323,-0.9818879999999999,0.167847
1024,10.24,-1.025357,-2.013043,-2.671984,-1.335556,-0.824234,0.154007
1025,10.25,-1.0398450000000001,-2.872674,-1.402565,-1.289749,-0.577087,0.127365
1026,10.26,-0.765491,-3.104755,-0.323912,-1.16832,-0.270294,0.09967000000000001
1027,10.27,-0.732676,-3.016338,0.571846,-0.994675,0.030105999999999994,0.071976
1028,10.28,-0.563429,-2.870852,1.405304,-0.7922819999999999,0.270859,0.07623300000000001
1029,10.29,-0.210622,-3.005725,1.9358369999999998,-0.565369,0.43278500000000003,0.12204000000000001
1030,10.3,0.16530799999999998,-3.060798,2.138212,-0.32142600000000005,0.529724,0.18595899999999999
1031,10.31,0.5334270000000001,-3.22201,2.011879,-0.109436,0.5595399999999999,0.24667399999999998
1032,10.32,0.970627,-3.456142,1.953428,0.071655,0.551025,0.29675300000000004
1033,10.33,1.2128940000000001,-3.5905169999999997,1.941486,0.242096,0.531845,0.324448
1034,10.34,1.634443,-3.5013919999999996,1.563272,0.401886,0.49563599999999997,0.326569
1035,10.35,1.818777,-3.261357,1.166887,0.510544,0.44236800000000004,0.313797
1036,10.36,2.059751,-2.808561,0.773525,0.577652,0.324127,0.282898
1037,10.37,2.2158439999999997,-2.332017,0.31228899999999993,0.598953,0.18457,0.233902
1038,10.38,2.112565,-1.9801529999999998,-0.22157399999999997,0.564865,0.04502900000000001,0.179565
1039,10.39,2.044022,-1.713528,-0.772165,0.47219799999999995,-0.121155,0.134827
1040,10.4,1.502318,-1.362257,-1.023316,0.32305900000000004,-0.30438200000000004,0.09753400000000001
1041,10.41,0.761048,-1.156349,-0.9658479999999999,0.172852,-0.46843,0.09753400000000001
1042,10.42,0.136469,-0.783981,-1.082229,0.043961,-0.609055,0.129501
1043,10.43,-0.41961800000000005,-0.098366,-1.1461780000000001,-0.08494600000000001,-0.6857449999999999,0.159332
1044,10.44,-0.993725,0.736103,-0.9741639999999999,-0.19253499999999998,-0.729431,0.167847
1045,10.45,-1.4681600000000001,1.863205,-0.30125,-0.241531,-0.759247,0.164658
1046,10.46,-2.1086669999999996,2.5619959999999997,0.239688,-0.218094,-0.746475,0.14440899999999998
1047,10.47,-2.640471,3.018825,0.745657,-0.181885,-0.693207,0.11991900000000001
1048,10.48,-3.244457,3.1190580000000003,1.005234,-0.170166,-0.488678,0.110321
1049,10.49,-3.238766,2.615516,1.3436860000000002,-0.17868,-0.339539,0.14122
1050,10.5,-2.937778,2.006082,1.607397,-0.161636,-0.179749,0.145477
1051,10.51,-3.1979439999999997,1.8585459999999998,1.535999,-0.12648,-0.11903399999999999,0.127365
1052,10.52,-3.339141,2.1022830000000003,1.267267,-0.11476099999999999,-0.127548,0.087952
1053,10.53,-3.5151410000000003,2.5564259999999996,1.143393,-0.140335,-0.225555,0.037888000000000005
1054,10.54,-3.400907,2.6663490000000003,1.126559,-0.189331,-0.33847,-0.022827
1055,10.55,-2.8299380000000003,2.219798,0.816669,-0.235138,-0.42689499999999997,-0.106995
1056,10.56,-2.406988,1.816225,0.164209,-0.285202,-0.48761000000000004,-0.21138
1057,10.57,-2.472236,1.594919,-0.68366,-0.358719,-0.534485,-0.33921799999999996
1058,10.58,-2.754508,1.4978870000000002,-2.2376,-0.455658,-0.6197050000000001,-0.453201
1059,10.59,-2.674395,1.638844,-3.9944599999999997,-0.625031,-0.6197050000000001,-0.549072
1060,10.6,-2.7257029999999998,1.4461389999999998,-4.4827650000000006,-0.890274,-0.47908,-0.615128
1061,10.61,-2.685015,1.8249389999999999,-4.364264,-1.1118620000000001,-0.096664,-0.595947
1062,10.62,-2.420145,2.31756,-3.065233,-1.191742,0.265533,-0.489426
1063,10.63,-2.097791,3.143749,-1.5113219999999998,-1.004257,0.740646,-0.298737
1064,10.64,-1.823991,4.22585,-0.22726800000000005,-0.596268,1.1656799999999998,-0.055862
1065,10.65,-0.807441,4.710848,0.32848499999999997,-0.07428000000000001,1.622681,0.128433
1066,10.66,0.567646,4.934984,0.45156,0.39975,1.9646299999999999,0.350006
1067,10.67,1.850011,2.855451,0.35720599999999997,0.656479,2.271423,0.507675
1068,10.68,3.028455,1.640416,0.7304189999999999,0.767273,2.3662259999999997,0.615265
1069,10.69,3.420143,1.0171540000000001,1.109473,0.825867,2.417374,0.654678
1070,10.7,3.3033,0.6318699999999999,1.508329,0.8343809999999999,2.385406,0.633362
1071,10.71,3.6917370000000003,0.11299900000000003,1.192183,0.8493040000000001,2.341736,0.575851
1072,10.72,3.547532,-0.350142,0.734406,0.803497,2.291672,0.49807700000000005
1073,10.73,3.543468,-1.087669,0.43997299999999995,0.7214659999999999,2.192596,0.44908100000000006
1074,10.74,3.661778,-2.057361,0.23315500000000003,0.623459,2.0914,0.368118
1075,10.75,3.3685970000000003,-2.710446,0.582171,0.511612,1.940125,0.286087
1076,10.76,3.145298,-3.1171900000000003,0.8094210000000001,0.43278500000000003,1.8517150000000002,0.22856100000000001
1077,10.77,2.899771,-3.392466,0.9964870000000001,0.363541,1.7718200000000002,0.187027
1078,10.78,2.623974,-3.868267,1.066908,0.290039,1.73027,0.134827
1079,10.79,2.259202,-4.004123,1.2906360000000001,0.200546,1.670609,0.085815
1080,10.8,1.924737,-4.272957,1.402341,0.10893199999999999,1.613098,0.058121000000000006
1081,10.81,1.631527,-4.425798,1.431909,0.037567,1.584335,0.055999999999999994
1082,10.82,1.32923,-4.448933,1.422609,-0.045531999999999996,1.5236049999999999,0.08048999999999999
1083,10.83,1.032032,-4.15095,1.420827,-0.13501,1.442642,0.13908399999999999
1084,10.84,0.80609,-3.6609550000000004,1.333725,-0.215973,1.328659,0.224304
1085,10.85,0.596956,-3.332869,1.530049,-0.307587,1.180588,0.311661
1086,10.86,0.625101,-3.1142220000000003,1.568184,-0.359772,1.000565,0.395813
1087,10.87,0.648759,-2.9235729999999998,1.604794,-0.414108,0.820541,0.466125
1088,10.88,0.766171,-2.860605,1.52991,-0.44712799999999997,0.635178,0.514053
1089,10.89,0.994525,-2.769356,1.354333,-0.47375500000000004,0.459412,0.532166
1090,10.9,1.062386,-2.6677869999999997,1.240268,-0.492935,0.290039,0.52684
1091,10.91,0.9978309999999999,-2.349459,1.312662,-0.5014649999999999,0.147293,0.509796
1092,10.92,0.913593,-1.805718,1.450069,-0.49826000000000004,0.001342999999999997,0.485291
1093,10.93,0.782992,-0.9556040000000001,1.627353,-0.47908,-0.128616,0.444824
1094,10.94,0.609128,0.05757000000000001,1.744678,-0.45352200000000004,-0.24259899999999998,0.385162
1095,10.95,0.37655900000000003,1.110551,1.727443,-0.42794799999999994,-0.323563,0.315918
1096,10.96,0.171481,2.1123939999999997,1.46051,-0.39386,-0.375763,0.24560500000000002
1097,10.97,-0.172155,2.837678,1.093504,-0.365097,-0.395996,0.189148
1098,10.98,-0.9685459999999999,3.312762,0.668298,-0.322495,-0.386414,0.142288
1099,10.99,-2.027253,4.296787999999999,0.31987600000000005,-0.276688,-0.395996,0.11138900000000002
1100,11.0,-3.125037,4.626037,0.258863,-0.204254,-0.284149,0.091156
1101,11.01,-3.9220589999999995,4.728368,0.541518,-0.152054,-0.193604,0.069839
1102,11.02,-4.454319,4.674494999999999,1.02019,-0.06150800000000001,-0.133942,0.036819
1103,11.03,-4.652297,4.127339,1.291668,0.061005,-0.095596,-0.006851
1104,11.04,-4.154878,3.602953,1.001119,0.174988,-0.116898,-0.07077
1105,11.05,-3.898539,3.6477760000000004,0.761263,0.271927,-0.292664,-0.13681
1106,11.06,-3.860001,4.151907,1.078942,0.335846,-0.43966700000000003,-0.223099
1107,11.07,-3.674807,3.498326,1.8898560000000002,0.42211899999999997,-0.574966,-0.37117
1108,11.08,-2.956598,2.075683,2.2904,0.619202,-0.683624,-0.566116
1109,11.09,-2.399649,1.060557,2.309872,0.943039,-0.686813,-0.830307
1110,11.1,-2.308279,0.09461300000000006,2.2978549999999998,1.4245450000000002,-0.716644,-1.1349639999999999
1111,11.11,-2.1998029999999997,-0.31100900000000004,1.7460779999999998,1.9720919999999997,-0.854065,-1.3405610000000001
1112,11.12,-1.80085,-0.5825819999999999,0.18043499999999998,2.2511900000000002,-1.027695,-1.401291
1113,11.13,-1.224257,-0.772882,-1.2364629999999999,2.203247,-1.181091,-1.30542
1114,11.14,-0.860308,-0.382271,-2.371077,1.9774169999999998,-1.287628,-1.136032
1115,11.15,-0.17541700000000005,0.15500500000000006,-3.464722,1.632263,-1.321716,-0.9059450000000001
1116,11.16,0.41313,0.7523390000000001,-3.953596,1.223206,-1.402679,-0.691818
1117,11.17,1.163455,1.564072,-3.811348,0.810944,-1.398407,-0.479828
1118,11.18,2.053282,2.023215,-3.7005589999999997,0.36886599999999997,-1.288681,-0.26358000000000004
1119,11.19,2.208065,1.523667,-3.180777,-0.064697,-1.291885,-0.060120000000000014
1120,11.2,2.983909,0.8294469999999999,-1.9616580000000001,-0.362976,-1.340881,0.090088
1121,11.21,3.56114,0.7136140000000001,-0.896911,-0.44926499999999997,-1.389893,0.110321
1122,11.22,3.6862739999999996,1.007503,-0.667465,-0.374695,-1.471909,0.026169
1123,11.23,3.540981,1.071345,-1.235755,-0.276688,-1.5486149999999999,-0.080353
1124,11.24,3.1668380000000003,0.33563200000000004,-2.5954479999999998,-0.284149,-1.494278,-0.157059
1125,11.25,2.17588,-0.8492170000000001,-3.5858489999999996,-0.414108,-1.393082,-0.175171
1126,11.26,0.8583569999999999,-2.057312,-4.500913,-0.577087,-1.149139,-0.160248
1127,11.27,-0.22914100000000004,-2.640967,-5.024553,-0.800797,-0.8199770000000001,-0.10166900000000001
1128,11.28,-0.556959,-3.390593,-4.369719,-1.061783,-0.437546,-0.03775
1129,11.29,-0.21280300000000002,-3.437323,-2.4146240000000003,-1.2364959999999998,-0.153122,0.009125
1130,11.3,0.230048,-3.5164809999999997,-0.5310670000000001,-1.2066649999999999,0.16433699999999998,0.032562
1131,11.31,0.49311800000000006,-3.44357,0.609937,-1.061783,0.42958100000000005,0.053863999999999995
1132,11.32,0.8013359999999999,-3.301372,1.229535,-0.877502,0.5680689999999999,0.093277
1133,11.33,1.018994,-3.0440970000000003,1.431115,-0.7113189999999999,0.6064149999999999,0.157196
1134,11.34,1.477825,-2.9830360000000002,1.581884,-0.574966,0.546768,0.236023
1135,11.35,1.968223,-3.020712,1.9450439999999998,-0.448196,0.444504,0.304199
1136,11.36,2.341929,-3.3966879999999997,2.224456,-0.309708,0.335846,0.351074
1137,11.37,2.647799,-3.5154160000000005,2.238232,-0.163773,0.220795,0.362793
1138,11.38,2.7200509999999998,-3.588735,1.9632580000000002,-0.034866,0.125977,0.352142
1139,11.39,2.623442,-3.6061080000000003,1.444715,0.0578,0.050354,0.324448
1140,11.4,2.570048,-3.59458,1.03701,0.09935,-0.033813,0.27331500000000003
1141,11.41,2.472148,-3.416413,0.8256540000000001,0.11639400000000001,-0.129684,0.208328
1142,11.42,2.36424,-3.096223,0.585122,0.127045,-0.251114,0.136963
1143,11.43,1.9611029999999998,-2.3463830000000003,0.358073,0.122787,-0.38001999999999997,0.063446
1144,11.44,1.329125,-1.427194,0.19502200000000006,0.09828200000000001,-0.5259550000000001,0.015518
1145,11.45,0.518788,-0.08104199999999995,-0.105956,0.07484400000000001,-0.661255,-0.010056
1146,11.46,-0.578446,1.582539,-0.43552700000000005,0.064194,-0.7922819999999999,0.0016629999999999993
1147,11.47,-0.988051,3.127951,-0.48277600000000004,0.141968,-0.9051969999999999,0.042145
1148,11.48,-1.9195380000000002,4.70362,-0.044048,0.347565,-0.96698,-0.047333
1149,11.49,-4.072292,3.996946,-0.025449,0.5020140000000001,-0.849792,-0.137878
1150,11.5,-4.0998730000000005,3.446594,-0.733644,0.343292,-0.549393,-0.022827
1151,11.51,-3.2631200000000002,2.7195720000000003,-0.8003439999999999,0.090836,-0.18721,0.157196
1152,11.52,-2.5967830000000003,1.930234,0.11720999999999998,-0.119034,0.001342999999999997,0.308456
1153,11.53,-2.06419,1.7165549999999998,0.941786,-0.2117,0.029037,0.343613
1154,11.54,-1.9563380000000001,2.163811,1.0553549999999998,-0.28947399999999995,-0.056183000000000004,0.269043
1155,11.55,-2.1298939999999997,2.688927,1.148513,-0.373627,-0.233017,0.131622
1156,11.56,-2.607225,2.780869,1.273083,-0.450333,-0.463104,-0.01857
1157,11.57,-2.733515,2.113282,1.464797,-0.508911,-0.6846770000000001,-0.149597
1158,11.58,-2.549382,1.304977,1.409626,-0.504654,-0.877502,-0.27636700000000003
1159,11.59,-2.835186,0.671579,0.055253,-0.497192,-0.979767,-0.420181
1160,11.6,-3.685765,0.692404,-2.194577,-0.552597,-1.139557,-0.563995
1161,11.61,-3.7911919999999997,1.6499130000000002,-4.042049,-0.718765,-1.289749,-0.704605
1162,11.62,-3.5638739999999998,2.552372,-4.136921,-1.031967,-1.139557,-0.8217770000000001
1163,11.63,-4.3003480000000005,3.525869,-2.912693,-1.248215,-0.736877,-0.851608
1164,11.64,-4.083141,4.580978,-2.252596,-1.1906889999999999,-0.299057,-0.705673
1165,11.65,-3.9645410000000005,5.858732,-2.15246,-0.886017,0.30175799999999997,-0.485153
1166,11.66,-2.867455,7.236346000000001,-1.325965,-0.30545,1.032516,-0.092072
1167,11.67,-0.7407380000000001,7.994407000000001,-0.34970999999999997,0.388031,1.821884,0.286087
1168,11.68,1.202159,4.292739,-0.442367,0.695892,2.3555759999999997,0.49807700000000005
1169,11.69,2.701469,2.197019,0.576667,0.756622,2.587814,0.62059
1170,11.7,3.5644970000000002,0.8688889999999999,1.091209,0.837585,2.686874,0.662125
1171,11.71,4.034515,0.3096,1.126585,0.8343809999999999,2.578217,0.626984
1172,11.72,4.423973,-0.262079,0.8532860000000001,0.845032,2.376892,0.591827
1173,11.73,4.6855150000000005,-0.9703940000000001,0.618684,0.8056180000000001,2.283142,0.532166
1174,11.74,4.195721,-1.9063189999999999,0.671824,0.710815,2.104172,0.42990100000000003
1175,11.75,3.682439,-2.575957,0.666087,0.61174,1.965698,0.328705
1176,11.76,3.313135,-3.178252,0.75946,0.505219,1.847443,0.22644
1177,11.77,3.035053,-3.956418,1.025025,0.39975,1.792053,0.15506
1178,11.78,2.834798,-4.718894000000001,1.212381,0.32199099999999997,1.744125,0.09967000000000001
1179,11.79,2.6067970000000003,-5.198182,1.305888,0.277252,1.7057650000000002,0.060257000000000005
1180,11.8,2.270596,-5.480703,1.311801,0.21653699999999998,1.6759490000000001,0.036819
1181,11.81,2.064906,-5.597194,1.334949,0.1409,1.602432,0.036819
1182,11.82,1.905141,-5.600118,1.36076,0.083374,1.5129549999999998,0.054932
1183,11.83,1.6247209999999999,-5.282063,1.250261,0.022659000000000002,1.393646,0.092209
1184,11.84,1.451208,-4.929468,1.0812620000000002,-0.051910000000000005,1.246643,0.156128
1185,11.85,1.131756,-4.680969,1.14761,-0.139267,1.082596,0.22644
1186,11.86,0.991976,-4.332246,1.310147,-0.215973,0.8993680000000001,0.304199
1187,11.87,0.800991,-4.106723000000001,1.7878720000000001,-0.264969,0.726791,0.371307
1188,11.88,0.704695,-3.7504660000000003,1.928121,-0.284149,0.576584,0.42031899999999994
1189,11.89,0.557106,-3.310447,2.016619,-0.303314,0.406143,0.452271
1190,11.9,0.510353,-2.824589,2.152085,-0.30864,0.25488299999999997,0.466125
1191,11.91,0.5574020000000001,-2.1708540000000003,2.268493,-0.30864,0.090836,0.44375600000000004
1192,11.92,0.46829899999999997,-1.504378,2.324846,-0.303314,-0.081741,0.399017
1193,11.93,0.26805500000000004,-0.662312,2.409958,-0.301193,-0.240463,0.337219
1194,11.94,-0.049441999999999965,0.3035669999999999,2.643646,-0.30864,-0.397064,0.27864099999999997
1195,11.95,-0.159497,1.276148,2.943686,-0.31291199999999997,-0.519562,0.22644
1196,11.96,-0.66871,2.612811,3.153474,-0.303314,-0.634613,0.175308
1197,11.97,-0.79175,3.6566110000000003,3.139668,-0.24578899999999998,-0.7113189999999999,0.15293900000000002
1198,11.98,-1.312469,4.3937,2.4155860000000002,-0.158447,-0.668701,0.156128
1199,11.99,-2.127313,5.028277,1.310817,-0.097717,-0.602661,0.146545
1200,12.0,-2.926446,5.280892,0.45638,-0.094528,-0.52063,0.11671400000000001
1201,12.01,-3.205248,5.591086,0.331005,-0.128616,-0.404526,0.069839
1202,12.02,-2.955452,5.436909,0.773967,-0.141403,-0.30864,-0.039871
1203,12.03,-2.653506,5.276608,1.352852,-0.076416,-0.256454,-0.187943
1204,12.04,-2.0546290000000003,5.246564,1.207047,0.030106000000000008,-0.299057,-0.30938699999999997
1205,12.05,-2.957854,5.167953,0.9712059999999999,0.123856,-0.374695,-0.39035
1206,12.06,-3.4377169999999997,3.3149330000000004,0.281316,0.195221,-0.518509,-0.46917700000000007
1207,12.07,-3.701459,1.336171,-0.65335,0.287903,-0.68895,-0.551208
1208,12.08,-3.3314190000000004,0.539018,-1.399095,0.42746000000000006,-0.8508610000000001,-0.7099300000000001
1209,12.09,-3.596201,1.085101,-0.15667600000000004,0.837585,-0.917984,-0.9730530000000001
1210,12.1,-3.619121,0.8528319999999999,1.483778,1.6546330000000002,-0.9424739999999999,-1.2500149999999999
1211,12.11,-3.593457,0.67293,0.4362900000000001,2.31723,-1.040482,-1.307541
1212,12.12,-2.836663,1.474372,-2.422153,2.363037,-1.2066649999999999,-1.153076
1213,12.13,-1.835123,1.137897,-4.328873000000001,2.086075,-1.21199,-0.877182
1214,12.14,0.015278000000000012,0.831367,-5.2863370000000005,1.596054,-1.184296,-0.5810390000000001
1215,12.15,0.749488,0.8185140000000001,-5.1419120000000005,1.068741,-1.176834,-0.33068800000000004
1216,12.16,1.9030049999999998,1.0582989999999999,-4.226525,0.48496999999999996,-1.004257,-0.08248899999999999
1217,12.17,2.960473,0.742935,-2.933757,-0.04126000000000002,-0.906265,0.11991900000000001
1218,12.18,3.3105599999999997,0.15257500000000002,-1.719122,-0.41303999999999996,-0.8892209999999999,0.263718
1219,12.19,3.5432309999999996,-0.08417100000000001,-0.775399,-0.60585,-0.995743,0.331894
1220,12.2,3.9838050000000003,-0.129773,0.034266999999999985,-0.629288,-1.149139,0.27864099999999997
1221,12.21,3.750421,-0.118371,0.347184,-0.507843,-1.321716,0.15826400000000002
1222,12.22,3.4925059999999997,-0.574095,-0.054513000000000006,-0.41517600000000005,-1.477234,0.025101
1223,12.23,3.0033220000000003,-1.483171,-0.951734,-0.354446,-1.574173,-0.108063
1224,12.24,1.48868,-2.7559709999999997,-3.0377560000000003,-0.41517600000000005,-1.5539399999999999,-0.187943
1225,12.25,0.759432,-3.776775,-4.43077,-0.550461,-1.3281100000000001,-0.18582200000000001
1226,12.26,0.026216000000000017,-4.797822,-5.312698,-0.805054,-0.9712370000000001,-0.154922
1227,12.27,-0.37388699999999997,-5.1139220000000005,-5.051064,-1.076706,-0.678299,-0.125107
1228,12.28,0.007826999999999999,-4.375775,-3.100648,-1.2503360000000001,-0.318237,-0.117645
1229,12.29,0.080487,-4.09166,-0.950342,-1.214127,0.03756700000000002,-0.10166900000000001
1230,12.3,0.38859499999999997,-3.873264,0.92277,-1.090546,0.297485,-0.023895
1231,12.31,0.7302310000000001,-3.652547,2.227182,-0.8838809999999999,0.42958100000000005,0.084763
1232,12.32,1.272952,-3.467631,2.916915,-0.625031,0.481781,0.209396
1233,12.33,2.230063,-3.1690259999999997,3.032785,-0.252182,0.395493,0.324448
1234,12.34,2.393682,-3.2449310000000002,2.953932,-0.040192000000000005,0.290039,0.384094
1235,12.35,2.368358,-3.135564,2.44788,0.160065,0.188828,0.436295
1236,12.36,2.526329,-2.986999,1.8708650000000002,0.28471399999999997,0.071655,0.466125
1237,12.37,2.7709330000000003,-2.767386,1.48834,0.359268,-0.047652999999999994,0.448013
1238,12.38,2.676872,-2.4205520000000003,1.088,0.402954,-0.19253499999999998,0.388351
1239,12.39,2.448184,-2.04704,0.625255,0.408279,-0.367233,0.313797
1240,12.4,1.936997,-1.520045,0.343127,0.36993400000000004,-0.546204,0.233902
1241,12.41,0.9748620000000001,-0.6605989999999999,0.122981,0.306015,-0.753922,0.162521
1242,12.42,0.14895999999999998,0.407204,0.119118,0.209076,-0.9403530000000001,0.12204000000000001
1243,12.43,-0.7888,1.441938,0.28448,0.10787999999999999,-1.121445,0.074112
1244,12.44,-1.6811610000000001,2.40348,0.44402700000000006,0.06951900000000001,-1.213058,0.006989000000000002
1245,12.45,-3.273135,3.614123,0.7922020000000001,0.07804900000000001,-1.343018,-0.13894700000000001
1246,12.46,-4.773053,3.703897,1.0001790000000002,0.08444199999999999,-1.388824,-0.207123
1247,12.47,-4.801397,3.473304,-0.1140040000000001,-0.042328,-0.9541930000000001,-0.133621
1248,12.48,-4.299279,3.0274389999999998,-0.804085,-0.262833,-0.5611109999999999,-0.054794
1249,12.49,-3.976288,2.3675669999999998,0.185893,-0.463104,-0.375763,0.003799
1250,12.5,-4.141322,2.7030939999999997,1.005768,-0.518509,-0.383209,0.029358
1251,12.51,-4.324167,4.025076,1.055682,-0.5728300000000001,-0.488678,0.020844
1252,12.52,-4.221406,4.4961400000000005,1.173516,-0.655914,-0.597336,-0.005783
1253,12.53,-3.5263169999999997,4.500989,0.823569,-0.6505890000000001,-0.747528,-0.048401
1254,12.54,-3.2792199999999996,3.718585,-1.259783,-0.634613,-0.817841,-0.13894700000000001
1255,12.55,-3.402427,3.407833,-3.8284300000000004,-0.717712,-0.962723,-0.23162800000000003
1256,12.56,-2.894838,4.156181,-5.777494,-0.8721770000000001,-1.055389,-0.317917
1257,12.57,-2.201581,5.150889,-5.918035,-1.129959,-0.790146,-0.41272
1258,12.58,-2.272341,4.848804,-4.266992,-1.1896209999999998,-0.240463,-0.46278400000000003
1259,12.59,-2.778406,5.112919000000001,-1.7152259999999997,-0.8423459999999999,0.27511599999999997,-0.30938699999999997
1260,12.6,-2.655996,6.298779,0.03586,-0.16056800000000002,0.980331,0.01444999999999999
1261,12.61,-0.710399,7.369707000000001,0.596708,0.600021,1.7025759999999999,0.347885
1262,12.62,1.556419,6.042262,-0.11005399999999993,0.9994959999999999,2.221359,0.47677600000000003
1263,12.63,2.2903029999999998,2.458588,0.6432169999999999,1.048508,2.386475,0.504471
1264,12.64,2.8220959999999997,0.899423,1.049078,1.193375,2.478088,0.489563
1265,12.65,3.330287,-0.09235800000000001,1.038374,1.209351,2.439743,0.428833
1266,12.66,3.346712,-0.887181,0.923782,1.197632,2.338531,0.354263
1267,12.67,3.709893,-1.7245,0.5003380000000001,1.173141,2.237335,0.329773
1268,12.68,3.624164,-2.632809,0.132198,1.087921,2.140396,0.274368
1269,12.69,3.0066029999999997,-3.4623839999999997,-0.020245,0.9323879999999999,1.9593049999999999,0.205139
1270,12.7,2.538461,-4.162348000000001,0.24475999999999998,0.748093,1.859161,0.16677899999999998
1271,12.71,2.233549,-4.8654459999999995,0.866339,0.57019,1.852783,0.159332
1272,12.72,2.068532,-5.515162,1.4526290000000002,0.45301800000000003,1.844254,0.16571
1273,12.73,1.994515,-6.067247,1.46185,0.396561,1.8037720000000002,0.173172
1274,12.74,1.8268419999999999,-6.346684,1.2795219999999998,0.337967,1.746246,0.201935
1275,12.75,1.8266209999999998,-6.3294239999999995,0.978627,0.233582,1.646118,0.23495500000000002
1276,12.76,1.8739880000000002,-6.22392,0.942371,0.129181,1.505493,0.257324
1277,12.77,1.6593470000000001,-5.8279,0.976543,0.022659000000000002,1.331863,0.285034
1278,12.78,1.295067,-5.343448,1.0391290000000002,-0.08706699999999999,1.149704,0.341492
1279,12.79,0.919386,-4.932544999999999,1.470321,-0.193604,0.9632870000000001,0.411789
1280,12.8,0.567509,-4.257552,2.081032,-0.254318,0.799225,0.490616
1281,12.81,0.366477,-3.650758,2.440344,-0.285202,0.635178,0.5630649999999999
1282,12.82,0.321186,-3.042323,2.7526189999999997,-0.288406,0.500961,0.6099399999999999
1283,12.83,0.43699399999999994,-2.692818,2.872728,-0.27455100000000005,0.37738,0.619522
1284,12.84,0.675972,-2.433831,2.863096,-0.262833,0.24955700000000003,0.581177
1285,12.85,0.904802,-2.204359,2.68499,-0.25006100000000003,0.146225,0.49700900000000003
1286,12.86,1.034249,-1.7170619999999999,2.5902130000000003,-0.254318,0.035431,0.379837
1287,12.87,0.9722270000000001,-1.0894620000000002,2.705662,-0.260712,-0.064697,0.24667399999999998
1288,12.88,0.666312,-0.033367000000000036,2.989944,-0.276688,-0.186142,0.125244
1289,12.89,0.582771,0.774274,3.3013790000000003,-0.28626999999999997,-0.252182,0.0005949999999999982
1290,12.9,0.129693,2.113881,3.6085540000000003,-0.293732,-0.394928,-0.105927
1291,12.91,-0.11577700000000002,3.089468,3.7314010000000004,-0.26178,-0.580292,-0.153854
1292,12.92,-0.5038590000000001,4.098367,3.141872,-0.210648,-0.672958,-0.175171
1293,12.93,-1.221718,5.1874080000000005,2.234956,-0.199982,-0.777359,-0.165573
1294,12.94,-1.942732,5.978285,1.304294,-0.19253499999999998,-0.818909,-0.141083
1295,12.95,-2.2940970000000003,6.773757000000001,0.421468,-0.198929,-0.790146,-0.15173299999999998
1296,12.96,-2.602234,6.989864999999999,-0.05156100000000001,-0.213837,-0.683624,-0.236954
1297,12.97,-2.6834740000000004,6.443208,0.20540300000000003,-0.20105,-0.533417,-0.385025
1298,12.98,-3.0154240000000003,6.126442,1.131101,-0.115829,-0.45352200000000004,-0.5394899999999999
1299,12.99,-3.181319,5.502851000000001,1.928941,0.032241999999999986,-0.42794799999999994,-0.625778
1300,13.0,-3.002353,3.589983,1.8407759999999997,0.24635300000000002,-0.48761000000000004,-0.646011
1301,13.01,-2.261104,1.439804,0.7624889999999999,0.454086,-0.531281,-0.641754
1302,13.02,-2.060839,-0.29128000000000004,-0.675247,0.604294,-0.585617,-0.661987
1303,13.03,-2.453063,-0.9473799999999999,-1.458767,0.765137,-0.767776,-0.752533
1304,13.04,-3.1647540000000003,-0.817793,-1.2751569999999999,1.123077,-0.923309,-0.867584
1305,13.05,-3.5835980000000003,-0.358716,-1.42301,1.549179,-1.2301030000000002,-0.924042
1306,13.06,-3.635761,1.035369,-1.800284,1.7292020000000001,-1.5368959999999998,-0.8793030000000001
1307,13.07,-2.386666,2.3241080000000003,-2.743808,1.708969,-1.6008149999999999,-0.746155
1308,13.08,-1.1315790000000001,2.7119310000000003,-3.35739,1.496979,-1.6402279999999998,-0.6044619999999999
1309,13.09,-0.22509,2.199755,-3.4994129999999997,1.1465,-1.621048,-0.421249
1310,13.1,0.7617470000000001,1.7388119999999998,-3.589267,0.666077,-1.475113,-0.19754000000000002
1311,13.11,1.571508,0.5222359999999999,-3.1337490000000003,0.178177,-1.378174,0.0048679999999999965
1312,13.12,2.383121,-0.305846,-2.04098,-0.219162,-1.362198,0.127365
1313,13.13,3.021538,-0.817986,-1.143523,-0.44393900000000003,-1.4016110000000002,0.164658
1314,13.14,3.337064,-1.185724,-0.664481,-0.590942,-1.431427,0.113525
1315,13.15,3.174482,-1.3174620000000001,-0.321204,-0.6452640000000001,-1.544357,0.019775
1316,13.16,2.869736,-1.837851,-0.8389190000000001,-0.660187,-1.623184,-0.069702
1317,13.17,2.202354,-2.413453,-1.7485950000000001,-0.682556,-1.6530150000000001,-0.143204
1318,13.18,1.510918,-2.432027,-2.900954,-0.762451,-1.585892,-0.163452
1319,13.19,0.8774430000000001,-3.614126,-4.144305,-0.9211729999999999,-1.363251,-0.165573
1320,13.2,0.252212,-4.457623,-4.785722,-1.1406100000000001,-1.115051,-0.15599100000000002
1321,13.21,-0.28589000000000003,-5.096908999999999,-4.584668,-1.3185120000000001,-0.7784270000000001,-0.148529
1322,13.22,-0.292559,-5.313843,-3.308611,-1.398407,-0.367233,-0.134689
1323,13.23,-0.374243,-4.634837,-1.42897,-1.3291629999999999,-0.02954100000000001,-0.130432
1324,13.24,-0.20581,-4.0025010000000005,0.339475,-1.16832,0.29322800000000004,-0.044144
1325,13.25,0.028222,-3.6978660000000003,1.9754029999999998,-0.979767,0.45088199999999995,0.094345
1326,13.26,0.74308,-3.535283,2.941305,-0.68895,0.580856,0.256271
1327,13.27,1.6426470000000002,-3.140126,2.962885,-0.36937,0.625595,0.377701
1328,13.28,2.1254880000000003,-3.029607,2.462112,-0.10943599999999999,0.535049,0.45440699999999995
1329,13.29,2.431121,-3.189323,1.9389560000000001,0.105743,0.465805,0.523651
1330,13.3,2.570974,-3.1472439999999997,1.6077299999999999,0.266602,0.36993400000000004,0.546021
1331,13.31,2.611829,-3.047243,1.23213,0.374191,0.265533,0.5055390000000001
1332,13.32,2.365252,-2.79432,0.93065,0.44236800000000004,0.161133,0.418182
1333,13.33,2.107384,-2.3329009999999997,0.593491,0.46366899999999994,0.027985,0.304199
1334,13.34,1.656838,-1.538322,0.293521,0.439163,-0.128616,0.18382300000000001
1335,13.35,0.7795310000000001,-0.5605020000000001,0.16767,0.379517,-0.33634899999999995,0.083694
1336,13.36,-0.379274,0.610488,0.129841,0.30494699999999997,-0.563248,0.035751
1337,13.37,-1.4786290000000002,1.7762689999999999,0.130131,0.199493,-0.7794949999999999,0.027237
1338,13.38,-2.399791,2.599447,0.5908930000000001,0.119598,-0.8881530000000001,0.0027310000000000012
1339,13.39,-3.395891,3.390996,1.260018,0.10893199999999999,-1.013855,-0.066513
1340,13.4,-4.750126,2.5465720000000003,1.6409610000000001,0.156876,-1.067108,-0.12403900000000001
1341,13.41,-3.761285,2.0012380000000003,0.8568520000000001,0.10360699999999999,-0.730484,-0.094208
1342,13.42,-3.3818639999999998,1.8278860000000001,0.27409300000000003,-0.035933999999999994,-0.328888,-0.068634
1343,13.43,-2.680231,2.206059,0.8914610000000001,-0.18721,-0.128616,-0.055862
1344,13.44,-2.240701,3.2057450000000003,1.968327,-0.244736,-0.12008699999999999,-0.11871300000000001
1345,13.45,-2.436689,4.087105,2.355616,-0.27455100000000005,-0.148849,-0.203934
1346,13.46,-2.946075,4.562378,2.2924189999999998,-0.28733800000000004,-0.238342,-0.290222
1347,13.47,-2.563129,3.4424059999999996,0.5889040000000001,-0.235138,-0.434341,-0.294479
1348,13.48,-2.555903,2.991388,-2.287579,-0.32782,-0.574966,-0.341354
1349,13.49,-3.3580629999999996,3.847089,-4.943909,-0.544067,-0.8327479999999999,-0.381821
1350,13.5,-3.338949,5.345572,-6.404101,-0.922241,-1.035156,-0.396744
1351,13.51,-3.239735,6.211515,-5.834674,-1.447418,-0.901993,-0.41485600000000006
1352,13.52,-2.990396,6.865203999999999,-4.323046,-1.7169189999999999,-0.5302279999999999,-0.287018
1353,13.53,-3.249377,7.312117,-4.052494,-1.6817779999999998,0.051406999999999925,-0.033492999999999995
1354,13.54,-2.459351,7.582876,-3.2194439999999998,-1.4548649999999999,0.7768550000000001,0.340424
1355,13.55,-0.27135200000000004,8.787208,-0.08062900000000006,-0.743271,1.593918,0.704742
1356,13.56,2.0105169999999997,9.81277,2.954895,0.357147,2.344925,0.874115
1357,13.57,3.168196,5.858859,3.022065,1.17421,2.9926150000000002,0.8379059999999999
1358,13.58,3.390204,3.19601,2.7614240000000003,1.499115,2.913773,0.723923
1359,13.59,3.487887,1.366386,1.6235540000000002,1.778214,2.9553220000000002,0.598221
1360,13.6,4.6011120000000005,-0.311273,0.25576599999999994,1.8048400000000002,2.848801,0.528976
1361,13.61,4.793695,-1.849504,-0.19151300000000002,1.7164150000000002,2.6378779999999997,0.42990100000000003
1362,13.62,4.157205,-2.882053,-0.40179000000000004,1.5513,2.5015259999999997,0.27331500000000003
1363,13.63,3.6461360000000003,-3.9297160000000004,-0.43772799999999995,1.364883,2.337479,0.18382300000000001
1364,13.64,3.113482,-4.864308,-0.159127,1.149704,2.27356,0.127365
1365,13.65,2.7030220000000003,-5.639676000000001,0.425834,0.93985,2.241592,0.102875
1366,13.66,2.413776,-6.420488,0.900332,0.7928310000000001,2.1989900000000002,0.100739
1367,13.67,2.2199560000000003,-6.851655,1.1165610000000001,0.707611,2.151047,0.11245699999999999
1368,13.68,2.087623,-7.078423,1.098993,0.624527,2.063705,0.126297
1369,13.69,2.032633,-7.004328,1.095573,0.513733,1.94545,0.14122
1370,13.7,1.836485,-6.570811999999999,1.083018,0.397629,1.841064,0.160385
1371,13.71,1.6766150000000002,-6.136147,1.005749,0.282578,1.677002,0.203003
1372,13.72,1.372123,-5.848058,1.102465,0.147293,1.505493,0.260529
1373,13.73,1.174317,-5.489217,1.263729,0.014130000000000004,1.321213,0.318054
1374,13.74,0.832716,-5.127273000000001,1.545854,-0.12008699999999999,1.1454469999999999,0.370255
1375,13.75,0.768478,-4.809092,1.835321,-0.236206,0.9792629999999999,0.410736
1376,13.76,0.406621,-4.233747,2.1771599999999998,-0.33847,0.851425,0.428833
1377,13.77,0.277522,-3.8176870000000003,2.353053,-0.429016,0.717209,0.43948400000000004
1378,13.78,0.289147,-3.4422919999999997,2.511416,-0.502518,0.547821,0.44375600000000004
1379,13.79,0.14147300000000002,-2.8721259999999997,2.661893,-0.546204,0.378448,0.435226
1380,13.8,0.034952,-2.0785169999999997,2.8382560000000003,-0.583481,0.22612,0.42564399999999997
1381,13.81,-0.039974,-1.04359,3.2052560000000003,-0.610123,0.058868,0.426712
1382,13.82,-0.49732,0.125475,3.982167,-0.634613,-0.127548,0.41606099999999996
1383,13.83,-0.687696,1.724216,4.882605,-0.580292,-0.38001999999999997,0.421387
1384,13.84,-0.487467,3.104577,5.472862,-0.45458999999999994,-0.48014799999999996,0.361725
1385,13.85,-0.24336100000000002,4.20334,5.616719,-0.34272800000000003,-0.549393,0.24455300000000002
1386,13.86,-0.270348,4.912065,5.703012999999999,-0.23727399999999998,-0.652725,0.103928
1387,13.87,-0.47764799999999996,5.412081,5.560347,-0.11903399999999999,-0.696396,-0.071838
1388,13.88,-0.40916399999999997,5.439977,4.899538,-0.009308000000000006,-0.830627,-0.240143
1389,13.89,-0.8364440000000001,5.153131,4.0571589999999995,0.056747000000000006,-1.040482,-0.418045
1390,13.9,-1.645607,5.005546,3.556051,0.09935,-1.290817,-0.568253
1391,13.91,-2.495448,5.2573099999999995,3.430757,0.148346,-1.499619,-0.691818
1392,13.92,-3.661144,5.003563,3.119417,0.220795,-1.689224,-0.804733
1393,13.93,-4.982761,3.542671,2.3116790000000003,0.314529,-1.8426209999999998,-0.8036800000000001
1394,13.94,-4.5587230000000005,1.044979,0.1670149999999999,0.47645600000000005,-1.8564759999999998,-0.774918
1395,13.95,-4.549867,-1.107777,-2.5505310000000003,0.656479,-1.8937529999999998,-0.8398899999999999
1396,13.96,-5.471048000000001,-0.662492,-4.095225,0.857819,-1.745682,-0.9996799999999999
1397,13.97,-5.520586,0.09947299999999998,-3.734525,1.4245450000000002,-1.576309,-1.194626
1398,13.98,-5.223781,1.802254,-3.963675,2.089264,-1.4591370000000001,-1.252151
1399,13.99,-4.721478,3.579648,-5.897901,1.9827419999999998,-1.468719,-1.006073
1400,14.0,-3.231157,5.328254,-7.2795,1.691925,-1.58696,-0.642822
1401,14.01,-1.407262,4.8624540000000005,-7.681336999999999,1.2785950000000001,-1.313187,-0.25506599999999996
1402,14.02,-0.4282270000000001,2.816339,-6.942557000000001,0.765137,-1.113983,0.028305
1403,14.03,1.2337850000000001,1.731296,-5.900771,0.262329,-0.8998719999999999,0.27224699999999996
1404,14.04,2.193259,0.912739,-4.686548999999999,-0.25750700000000004,-0.74115,0.40007
1405,14.05,3.127695,0.11552600000000003,-3.2134549999999997,-0.6516569999999999,-0.6505890000000001,0.456528
1406,14.06,3.743893,-0.44784300000000005,-1.8863779999999999,-0.901993,-0.6505890000000001,0.421387
1407,14.07,3.8370839999999995,-0.27937,-1.056231,-1.0181120000000001,-0.7315520000000001,0.29035900000000003
1408,14.08,3.8218650000000003,-0.185658,-0.72119,-1.047943,-0.8423459999999999,0.120972
1409,14.09,3.4164769999999995,-0.756905,-0.588447,-1.030899,-0.941406,-0.04093900000000001
1410,14.1,2.616054,-1.4829450000000002,-0.756043,-0.985092,-0.943542,-0.159195
1411,14.11,1.9635880000000001,-2.286452,-1.558079,-0.9360809999999999,-0.78801,-0.229492
1412,14.12,1.302567,-2.855505,-2.634468,-0.9520719999999999,-0.5259550000000001,-0.251862
1413,14.13,0.864524,-3.6466260000000004,-3.228252,-1.035156,-0.15631099999999998,-0.257187
1414,14.14,0.863835,-4.037579,-2.819115,-1.153397,0.152618,-0.229492
1415,14.15,0.77571,-4.436234,-1.46055,-1.169373,0.345428,-0.18689
