,ts,ax,ay,az,wx,wy,wz
0,0.0,-0.015542999999999996,-0.0039010000000000017,-0.027756,-0.014877000000000001,-0.016449000000000002,0.0036009999999999996
1,0.01,-0.025806,-0.003836,-0.006506999999999999,-0.018066,-0.013244999999999998,-0.000656
2,0.02,-0.052845,-0.007234000000000002,0.026173000000000002,-0.015944999999999997,-0.014313,0.001465
3,0.03,-0.058743,0.01481,0.031293,-0.013809,-0.011124,0.0025329999999999997
4,0.04,-0.073304,0.030699,0.067531,-0.011687999999999999,-0.00473,0.0025329999999999997
5,0.05,-0.06589600000000001,0.014747999999999999,0.054776,-0.010620000000000001,0.0005949999999999999,0.001465
6,0.06,-0.026829000000000002,0.024923,0.060489,-0.004227000000000001,0.0037990000000000003,-0.0006560000000000001
7,0.07,-0.05622100000000001,0.013850999999999999,0.052051,-0.004227000000000001,0.010193,-0.0017239999999999998
8,0.08,-0.034454000000000005,0.011502999999999996,0.023452,-0.0010220000000000001,0.011245999999999999,-0.002792
9,0.09,-0.041714,0.006572,0.013466999999999998,3.0999999999999995e-05,0.016571000000000002,-0.0017240000000000005
10,0.1,-0.012460000000000002,0.049651999999999995,0.025689,0.001099,0.019775,-0.002792
11,0.11,-0.008055,0.019658,0.052417,0.005371,0.019775,-0.002792
12,0.12,0.028839,0.008105,0.05322999999999999,0.011748999999999999,0.018706999999999998,0.00039700000000000016
13,0.13,0.013922000000000006,0.003166999999999998,-0.008277,0.014953999999999999,0.017639,0.000397
14,0.14,0.055447,0.0053430000000000005,-0.019594999999999998,0.014953999999999999,0.016571000000000002,0.00039700000000000016
15,0.15,0.044407999999999996,-0.014781,-0.014702000000000002,0.012816999999999999,0.012314,0.0025329999999999997
16,0.16,0.029927999999999996,0.002749999999999999,-0.022147,0.012816999999999999,0.011245999999999999,0.0025329999999999997
17,0.17,0.015093,0.008687,-0.02561,0.014953999999999999,0.011245999999999999,0.0025329999999999997
18,0.18,-0.019706999999999995,-0.02043,-0.028654000000000002,0.011748999999999999,0.008057,0.000397
19,0.19,0.023225,-0.036058,-0.041429,0.009628,0.006989,-0.0006560000000000001
20,0.2,0.03578,-0.026059,-0.010551999999999999,0.006423999999999999,0.004868,0.00039700000000000016
21,0.21,0.037776,-0.032276,-0.009211,0.003235,-0.0004729999999999999,-0.0017239999999999998
22,0.22,0.041904000000000004,-0.026399000000000002,-0.023383,-0.0010219999999999997,-0.001526,-0.0006560000000000001
23,0.23,0.031799,-0.027874000000000003,0.009020000000000002,0.001099,-0.002594,-0.0006560000000000001
24,0.24,0.009338000000000004,-0.0014180000000000009,0.016864000000000004,0.002167,-0.001526,0.00039700000000000016
25,0.25,0.048913,-0.004256000000000001,0.057795000000000006,0.004303,-0.005797999999999999,-0.0006560000000000001
26,0.26,0.035963999999999996,0.015372000000000004,0.042501,0.006423999999999999,-0.007918999999999999,0.001465
27,0.27,0.020733,0.012163,0.039147,0.007492,-0.00473,-0.000656
28,0.28,-0.012844999999999999,0.026847000000000003,0.024665,0.00856,-0.006851,0.0025329999999999997
29,0.29,-0.0524,0.046539,0.005510000000000001,0.009628,-0.003662,0.001465
30,0.3,-0.012274,0.044588,0.030895,0.009628,-0.00473,0.0014650000000000002
31,0.31,-0.015094999999999999,0.008612,0.019268,0.009628,-0.002594,-0.0006560000000000001
32,0.32,0.01131,-0.037508,-0.020274,0.009628,-0.001526,-0.0017239999999999998
33,0.33,-0.0007699999999999999,0.002264000000000002,-0.042127,0.009628,-0.002594,0.000397
34,0.34,0.007547999999999998,-0.010241,-0.017487,0.00856,-0.002594,0.000397
35,0.35,-0.012776000000000001,0.021886000000000003,-0.022348,0.006423999999999999,-0.001526,0.001465
36,0.36,-0.010874,-0.005089,-0.061884,0.005371,-0.00473,0.001465
37,0.37,0.006726,-0.010511,0.017751999999999997,0.007492,-0.007918999999999999,0.0036009999999999996
38,0.38,0.026737,-0.005490000000000003,-0.016803,0.006423999999999999,-0.006851,0.0036009999999999996
39,0.39,0.013750000000000002,-0.027805,-0.013269,0.007492,-0.007918999999999999,0.0025329999999999997
40,0.4,-0.015503,-0.013147,-0.023884,0.006423999999999999,-0.005797999999999999,0.001465
41,0.41,-0.00018600000000000043,-0.017807,-0.030712,0.004303,-0.005797999999999999,0.001465
42,0.42,-0.004448000000000002,0.015078,-0.004545,0.002167,-0.007918999999999999,0.0025329999999999997
43,0.43,-0.009984999999999999,0.01524,-0.0058809999999999965,0.001099,-0.008987,0.0046689999999999995
44,0.44,0.021694,-0.0028179999999999998,0.010289,0.002167,-0.007918999999999999,0.0036009999999999996
45,0.45,-0.012098000000000001,0.011347,-0.00164,3.1e-05,-0.007918999999999999,0.0036009999999999996
46,0.46,-0.027223,0.033247000000000006,0.000935,0.003235,-0.007918999999999999,0.0046689999999999995
47,0.47,-0.035851,-0.014014000000000002,-0.019112999999999998,0.005371,-0.007918999999999999,0.0014650000000000002
48,0.48,-0.009515000000000001,-0.029572000000000005,-0.016594,0.004303,-0.007918999999999999,0.0036009999999999996
49,0.49,-0.033166,-0.02087,-0.031647,0.004303,-0.007918999999999999,0.0025329999999999997
50,0.5,-0.031036,-0.014778999999999999,0.013616,0.006423999999999999,-0.007918999999999999,0.0014650000000000002
51,0.51,-0.02792,0.012294000000000005,-0.017861000000000002,0.003235,-0.014313,0.0025329999999999997
52,0.52,-0.016013,-0.013491999999999995,-0.0036209999999999992,0.0010990000000000002,-0.012192,0.0036009999999999996
53,0.53,-0.0036479999999999998,-0.005516,-0.014769,0.001099,-0.014313,0.0046689999999999995
54,0.54,0.012747,0.015244999999999998,-0.012226,3.0999999999999995e-05,-0.015381,0.005737
55,0.55,0.013481000000000002,-0.026437000000000002,-0.008908000000000001,3.0999999999999995e-05,-0.017516999999999998,0.0046689999999999995
56,0.56,-0.0353,-0.009959,-0.032929,0.001099,-0.019638,0.005737
57,0.57,-0.005159999999999998,-0.018713,-0.027324,-0.00209,-0.01857,0.004669
58,0.58,-0.05156,-0.019629,-0.005488,-0.00209,-0.019638,0.005737
59,0.59,-0.082138,-0.012918,-0.051116,-0.003159,-0.019638,0.0046689999999999995
60,0.6,-0.028130000000000002,0.005586,-0.03715,-0.00209,-0.019638,0.005737
61,0.61,-0.026257,-0.028757,-0.02597,-0.0063479999999999995,-0.020706,0.0046689999999999995
62,0.62,-0.020366,-0.00124,0.003871999999999999,-0.008484,-0.020706,0.0046689999999999995
63,0.63,0.011981000000000006,0.004086,-0.015257,-0.0063479999999999995,-0.01857,0.006790000000000001
64,0.64,-0.002863,0.019797,0.026917,-0.0063479999999999995,-0.020706,0.0046689999999999995
65,0.65,-0.0077150000000000005,0.057905,0.015216,-0.007416,-0.019638,0.005737000000000001
66,0.66,0.0035239999999999994,0.020534999999999998,0.014559000000000002,-0.005295,-0.019638,0.0046689999999999995
67,0.67,0.008936,0.005515,-0.008554,-0.005295,-0.020706,0.005737
68,0.68,-0.00022300000000000098,0.003039,-0.013739000000000005,-0.003159,-0.022841999999999998,0.006790000000000001
69,0.69,-0.009776,-0.037252,-0.022251,-0.0063479999999999995,-0.022841999999999998,0.006790000000000001
70,0.7,-0.007892,-0.011642,-2.5999999999999978e-05,-0.0063479999999999995,-0.024963,0.006790000000000001
71,0.71,0.00010600000000000019,-0.023813,-0.049929,-0.008484,-0.024963,0.007858
72,0.72,-0.0024640000000000005,-0.033606,-0.025474000000000004,-0.009552,-0.023895,0.009995
73,0.73,-0.005115,-0.004520999999999997,0.002786000000000002,-0.011687999999999999,-0.023895,0.008926
74,0.74,-0.015962999999999998,-0.0022639999999999987,0.043108,-0.010620000000000001,-0.021774,0.008926
75,0.75,-0.063837,0.057428999999999994,0.084548,-0.005295,-0.017516999999999998,0.008926
76,0.76,-0.023624000000000003,0.038702999999999994,0.06792100000000001,-0.00209,-0.013244999999999998,0.007858
77,0.77,-0.041139999999999996,0.037516,0.062842,0.009628,-0.011124,0.007858
78,0.78,-0.056474,0.020609,0.059366999999999996,0.014953999999999999,-0.010056,0.005737
79,0.79,-0.030626,0.016706,0.08074400000000001,0.019211000000000002,-0.007918999999999999,0.0046689999999999995
80,0.8,-0.005653999999999999,-0.005331,0.004184,0.022415,-0.006851,0.005737
81,0.81,0.009817,-0.013962,-0.034707,0.014953999999999999,-0.005797999999999999,0.005737
82,0.82,-0.021573,-0.004289,-0.070116,0.00856,-0.00473,0.005737
83,0.83,-0.013524000000000001,0.023022,-0.075402,0.004303,-0.003662,0.005737
84,0.84,-0.007873999999999999,-0.032139999999999995,-0.070674,3.0999999999999995e-05,-0.003662,0.0046689999999999995
85,0.85,-0.016947999999999998,-0.028657,-0.039106,-0.00209,-0.003662,0.0046689999999999995
86,0.86,-0.039813999999999995,-0.053020000000000005,-0.027313,-0.004227000000000001,-0.003662,0.000397
87,0.87,0.006723000000000001,-0.06815299999999999,-0.018556,-0.0063479999999999995,-0.00473,0.0036009999999999996
88,0.88,0.013326,0.006237000000000003,0.035765,-0.011687999999999999,-0.007918999999999999,0.0036009999999999996
89,0.89,0.005161,0.038074000000000004,0.045194,-0.010620000000000001,-0.008987,0.0046689999999999995
90,0.9,0.037185,0.075309,0.049960000000000004,-0.009552,-0.011124,0.0036009999999999996
91,0.91,0.032175,0.057574,0.064261,-0.0063479999999999995,-0.015381,0.0036009999999999996
92,0.92,0.009904000000000001,0.054354999999999994,0.076334,-0.00209,-0.016449000000000002,0.0046689999999999995
93,0.93,-0.001308,0.039858,0.07506900000000001,0.001099,-0.020706,0.0046689999999999995
94,0.94,-0.040667,0.029278,0.022844,0.004303,-0.021774,0.0025329999999999997
95,0.95,-0.072141,0.015456000000000003,0.029495999999999998,0.005371,-0.022841999999999998,0.005737
96,0.96,-0.082676,-0.0071909999999999995,-0.0009099999999999976,0.009628,-0.022841999999999998,0.0036009999999999996
97,0.97,-0.080499,-0.002877,0.0034839999999999997,0.013885,-0.028168000000000002,0.0036009999999999996
98,0.98,-0.07425599999999999,0.007188,-0.025146,0.011748999999999999,-0.026031,0.0036009999999999996
99,0.99,-0.049454000000000005,0.040236,-0.028129,0.012816999999999999,-0.028168000000000002,0.0025329999999999997
100,1.0,-0.035407999999999995,-0.0035959999999999985,-0.039145,0.00856,-0.033493,0.0025329999999999997
101,1.01,-0.033421,-0.03758,-0.052282,0.003235,-0.039886000000000005,0.0025329999999999997
102,1.02,-0.026025,-0.071827,-0.026032,-0.0010220000000000001,-0.044144,0.0025329999999999997
103,1.03,-0.044949,-0.029302999999999996,-0.057509000000000005,-0.004227000000000001,-0.052658,0.0025329999999999997
104,1.04,-0.08632100000000001,-0.056137,-0.079237,-0.007416,-0.055862,0.0046689999999999995
105,1.05,-0.105957,-0.065221,-0.072614,-0.012740999999999999,-0.063324,0.005737
106,1.06,-0.076984,-0.043717,-0.056784,-0.017013999999999998,-0.07077,0.0046689999999999995
107,1.07,-0.076835,-0.06372699999999999,-0.04297100000000001,-0.020203,-0.07823200000000001,0.005737
108,1.08,-0.06547599999999999,-0.051287,-0.0133,-0.020203,-0.08569299999999999,0.006790000000000001
109,1.09,-0.077137,-0.084341,-0.047274000000000004,-0.02446,-0.09314,0.012115
110,1.1,-0.106429,-0.04115,-0.077765,-0.030853,-0.097412,0.015319999999999999
111,1.11,-0.125373,-0.04862,-0.11891199999999999,-0.03299,-0.09953300000000001,0.017440999999999998
112,1.12,-0.109805,-0.043077,-0.08842799999999999,-0.040436,-0.10485799999999999,0.022781
113,1.13,-0.154694,-0.038829,-0.05927999999999999,-0.044708,-0.108063,0.023834
114,1.14,-0.185133,-0.020422,-0.036314,-0.046829,-0.116577,0.022781
115,1.15,-0.19889400000000002,0.022077,0.008116000000000002,-0.045776,-0.119781,0.023834
116,1.16,-0.20963400000000001,0.024413,0.016574000000000002,-0.046829,-0.12403900000000001,0.023834
117,1.17,-0.21916999999999998,0.022123,-0.010561,-0.044708,-0.129364,0.02597
118,1.18,-0.20540500000000003,-0.005272,-0.021325999999999998,-0.041504,-0.135757,0.022781
119,1.19,-0.180314,0.003736,0.003315,-0.040436,-0.14534,0.028107
120,1.2,-0.200797,0.015575999999999996,-0.046958,-0.038314999999999995,-0.15066500000000002,0.030227999999999998
121,1.21,-0.186025,-0.012491,-0.059994000000000006,-0.03511,-0.157059,0.032364
122,1.22,-0.173165,0.033257,-0.068337,-0.03299,-0.165588,0.032364
123,1.23,-0.163151,0.0018430000000000009,-0.075474,-0.029785000000000002,-0.173035,0.037689
124,1.24,-0.149896,0.037104000000000005,-0.101258,-0.027663999999999998,-0.181564,0.038757
125,1.25,-0.182783,-0.03034,-0.068845,-0.022338999999999998,-0.195404,0.043015
126,1.26,-0.159278,0.0014219999999999994,-0.067458,-0.019135,-0.207123,0.044083
127,1.27,-0.168927,-0.005691,-0.025122,-0.017013999999999998,-0.218842,0.046204
128,1.28,-0.17743599999999998,0.046401,-0.051952,-0.011687999999999999,-0.23162800000000003,0.049408
129,1.29,-0.202497,0.05795499999999999,-0.12355,-0.008484,-0.24867199999999998,0.050476
130,1.3,-0.198153,0.060615999999999996,-0.12038099999999999,-0.0031589999999999995,-0.260391,0.050476
131,1.31,-0.191498,0.021244,-0.163885,-0.0010220000000000001,-0.269974,0.050476
132,1.32,-0.17765999999999998,0.00023999999999999976,-0.20979299999999998,-0.0010220000000000001,-0.28169299999999997,0.054733000000000004
133,1.33,-0.236496,-0.004499,-0.192781,0.002167,-0.29129,0.057922
134,1.34,-0.210907,0.015575,-0.205713,0.003235,-0.295547,0.065384
135,1.35,-0.252397,-0.0005990000000000001,-0.167094,0.004303,-0.295547,0.06752000000000001
136,1.36,-0.248323,0.01816,-0.14588900000000002,0.005371,-0.29234299999999996,0.071777
137,1.37,-0.264306,0.025549000000000002,-0.15529600000000002,0.005371,-0.29234299999999996,0.078171
138,1.38,-0.297715,0.021397,-0.10954000000000001,0.006423999999999999,-0.29341100000000003,0.086685
139,1.39,-0.190375,-0.017896000000000002,-0.044645,0.006423999999999999,-0.28595,0.10054
140,1.4,-0.141407,0.022597,-0.059985000000000004,0.002167,-0.28276100000000004,0.113327
141,1.41,-0.150056,0.026971,0.011523999999999998,-0.006348000000000001,-0.29129,0.127167
142,1.42,-0.22839299999999998,0.068977,0.10483900000000002,-0.014877000000000001,-0.30194099999999996,0.14421099999999998
143,1.43,-0.088298,0.080231,0.16681400000000002,-0.025528,-0.31045500000000004,0.16125499999999998
144,1.44,0.059744000000000005,-0.010442999999999994,0.254387,-0.03511,-0.32643099999999997,0.176178
145,1.45,0.263795,-0.10041,0.29403,-0.046829,-0.348801,0.194275
146,1.46,0.573572,-0.129725,0.27232399999999995,-0.053223,-0.367981,0.211319
147,1.47,0.758206,-0.167374,0.176654,-0.050033999999999995,-0.392487,0.213455
148,1.48,0.928251,-0.17558800000000002,0.191162,-0.038314999999999995,-0.410599,0.207062
149,1.49,1.105469,-0.22381399999999999,0.09723,-0.022338999999999998,-0.41592399999999996,0.19001800000000002
150,1.5,1.102851,-0.347792,-0.040923,-0.010620000000000001,-0.41699200000000003,0.164459
151,1.51,0.936308,-0.368105,-0.243157,-0.0063479999999999995,-0.409531,0.136765
152,1.52,0.611765,-0.239031,-0.458269,-0.018066,-0.38716100000000003,0.11651600000000001
153,1.53,0.294041,0.013921000000000005,-0.708705,-0.039383,-0.349869,0.10693399999999999
154,1.54,-0.13609699999999994,0.34930000000000005,-0.838775,-0.068146,-0.307266,0.10586500000000001
155,1.55,-0.391073,0.629534,-0.8105180000000001,-0.092636,-0.260391,0.117584
156,1.56,-0.523767,0.786674,-0.761417,-0.09690900000000001,-0.207123,0.134628
157,1.57,-0.583291,0.806617,-0.657862,-0.080917,-0.15066500000000002,0.15274000000000001
158,1.58,-0.598417,0.688024,-0.551974,-0.044708,-0.084625,0.171906
159,1.59,-0.361779,0.5207689999999999,-0.45847899999999997,-0.025528,-0.026031,0.20280499999999999
160,1.6,-0.06673299999999999,0.200594,-0.49599799999999994,-0.004227000000000001,0.020844,0.23263499999999998
161,1.61,0.18013900000000002,-0.02548300000000001,-0.5324300000000001,0.018143,0.048538,0.24861100000000003
162,1.62,0.428883,-0.16249599999999995,-0.556838,0.027739999999999997,0.057053,0.251801
163,1.63,0.587246,-0.30690700000000004,-0.504694,0.031998,0.061325,0.234756
164,1.64,0.794129,-0.459354,-0.5242760000000001,0.035187,0.065582,0.219849
165,1.65,0.917858,-0.484745,-0.6193770000000001,0.036255,0.071976,0.20494099999999998
166,1.66,0.952097,-0.578832,-0.752178,0.026672,0.083694,0.187897
167,1.67,0.8088609999999999,-0.5364979999999999,-0.886517,0.003235,0.085815,0.16658
168,1.68,0.535688,-0.427442,-0.8643200000000001,-0.023392,0.081558,0.14314300000000002
169,1.69,0.298088,-0.367205,-0.8059850000000001,-0.042572000000000006,0.075165,0.117584
170,1.7,0.182502,-0.33287100000000003,-0.7818689999999999,-0.050033999999999995,0.085815,0.10054
171,1.71,-0.009805,-0.261642,-0.770566,-0.051102,0.092209,0.08989
172,1.72,-0.084397,-0.15114,-0.795599,-0.047897,0.094345,0.082428
173,1.73,-0.165866,-0.06841900000000001,-0.791226,-0.039383,0.098602,0.083496
174,1.74,-0.234567,0.049332000000000015,-0.816439,-0.030853,0.11245699999999999,0.083496
175,1.75,-0.25608000000000003,0.050256,-0.8260360000000001,-0.023392,0.13908399999999999,0.085617
176,1.76,-0.248331,-0.011443000000000002,-0.8715,-0.017013999999999998,0.168915,0.093079
177,1.77,-0.188114,-0.077217,-0.853375,-0.020203,0.204071,0.09201000000000001
178,1.78,-0.179698,-0.050741,-0.890819,-0.025528,0.232834,0.095215
179,1.79,-0.133348,-0.008767,-0.9232959999999999,-0.027663999999999998,0.261581,0.099472
180,1.8,-0.117719,0.062401,-0.955556,-0.029785000000000002,0.28929099999999996,0.099472
181,1.81,-0.09521,0.13874,-0.9736360000000001,-0.028732,0.326569,0.095215
182,1.82,-0.086699,0.16225499999999998,-0.953959,-0.018066,0.350006,0.08989
183,1.83,-0.079036,0.13431099999999999,-1.008634,0.002167,0.38302600000000003,0.08136
184,1.84,-0.141121,0.004188999999999997,-1.0439829999999999,0.023468,0.41499300000000006,0.07496599999999999
185,1.85,-0.126079,-0.12618800000000002,-1.141486,0.040512,0.44161999999999996,0.069641
186,1.86,-0.15325899999999998,-0.277855,-1.1811209999999999,0.05223099999999999,0.470383,0.068573
187,1.87,-0.010902999999999996,-0.394997,-1.2667329999999999,0.047974,0.489548,0.071777
188,1.88,0.137822,-0.39647,-1.376283,0.029861000000000002,0.49807700000000005,0.07496599999999999
189,1.89,0.289986,-0.361431,-1.439067,0.012816999999999999,0.49807700000000005,0.087753
190,1.9,0.495075,-0.362268,-1.4676209999999998,-0.004227000000000001,0.48849499999999996,0.09628300000000001
191,1.91,0.598464,-0.25069,-1.444085,-0.014877000000000001,0.478897,0.10693399999999999
192,1.92,0.6927800000000001,-0.16262100000000002,-1.425732,-0.031921,0.4608,0.10693399999999999
193,1.93,0.801806,-0.066413,-1.362954,-0.040436,0.444809,0.109055
194,1.94,0.980001,0.076797,-1.278991,-0.050033999999999995,0.42244,0.104797
195,1.95,1.017945,0.121648,-1.1833420000000001,-0.055359000000000005,0.40966800000000003,0.10054
196,1.96,1.013942,0.22369099999999997,-1.09212,-0.061752,0.393677,0.093079
197,1.97,1.013464,0.310434,-1.0814,-0.056427,0.378769,0.08136
198,1.98,0.8484659999999999,0.26961,-1.160223,-0.03511,0.354263,0.073914
199,1.99,0.926414,0.090291,-1.227929,-0.010619999999999996,0.3255,0.07496599999999999
200,2.0,1.010678,-0.15665399999999996,-1.194826,0.005370999999999999,0.294617,0.083496
201,2.01,0.970137,-0.42010299999999995,-1.146455,0.010695999999999999,0.271179,0.099472
202,2.02,0.805104,-0.561639,-1.059213,-0.0063479999999999995,0.27224699999999996,0.103729
203,2.03,0.715188,-0.5706600000000001,-0.9564159999999999,-0.041504,0.288223,0.102676
204,2.04,0.586258,-0.643617,-0.804465,-0.083054,0.318054,0.08989
205,2.05,0.551242,-0.465091,-0.726955,-0.129929,0.355331,0.061127
206,2.06,0.545125,-0.25616300000000003,-0.6819529999999999,-0.16508499999999998,0.401138,0.023834
207,2.07,0.620266,-0.024149000000000004,-0.651101,-0.18212899999999999,0.458664,-0.0177
208,2.08,0.815262,0.287574,-0.732664,-0.186386,0.500214,-0.06564299999999999
209,2.09,1.016263,0.668048,-0.8173819999999999,-0.181061,0.524704,-0.108261
210,2.1,1.308806,1.0545,-0.779451,-0.166138,0.519379,-0.13382
211,2.11,1.428032,1.449975,-0.6178130000000001,-0.152298,0.478897,-0.148727
212,2.12,1.6254469999999999,1.742309,-0.405071,-0.12886,0.423508,-0.148727
213,2.13,1.807382,1.967627,-0.19628199999999998,-0.100098,0.368118,-0.142349
214,2.14,1.7336509999999998,2.035819,-0.012380000000000002,-0.067078,0.303131,-0.137009
215,2.15,1.581792,1.9968849999999998,0.081791,-0.026595999999999998,0.23388699999999998,-0.132751
216,2.16,1.45954,1.831881,0.045965,0.017075,0.177429,-0.142349
217,2.17,1.2564870000000001,1.582757,-0.078322,0.066086,0.130554,-0.16684000000000002
218,2.18,1.010852,1.186337,-0.172568,0.108688,0.09967000000000001,-0.2052
219,2.19,0.801956,0.708097,-0.350483,0.14491300000000001,0.100739,-0.254196
220,2.2,0.653351,0.16014,-0.48277600000000004,0.16835,0.117783,-0.31704699999999997
221,2.21,0.575873,-0.392154,-0.521057,0.160889,0.143341,-0.38736
222,2.22,0.352705,-0.9015139999999999,-0.39011599999999996,0.12361099999999998,0.15826400000000002,-0.46405
223,2.23,0.008025999999999978,-1.2023549999999998,-0.087262,0.06076,0.175308,-0.523712
224,2.24,-0.38398899999999997,-1.287764,0.217052,-0.014876999999999996,0.19554100000000002,-0.549271
225,2.25,-0.8165979999999999,-1.201111,0.42075,-0.07772799999999999,0.209396,-0.54715
226,2.26,-1.1397620000000002,-1.0210139999999999,0.554743,-0.136322,0.212585,-0.51944
227,2.27,-1.370474,-0.997366,0.686357,-0.176804,0.208328,-0.48535200000000006
228,2.28,-1.574228,-1.056363,0.700023,-0.187454,0.204071,-0.457657
229,2.29,-1.6944689999999998,-1.04496,0.609813,-0.186386,0.20726,-0.423569
230,2.3,-1.4765030000000001,-0.8085939999999999,0.42636499999999994,-0.18318199999999998,0.21579,-0.382019
231,2.31,-1.171591,-0.48475100000000004,0.172716,-0.187454,0.208328,-0.355392
232,2.32,-0.838834,-0.066528,-0.15596400000000002,-0.190643,0.175308,-0.339417
233,2.33,-0.465476,0.262409,-0.418741,-0.193848,0.134827,-0.348999
234,2.34,-0.41319799999999995,0.53327,-0.6592600000000001,-0.20343,0.10392799999999999,-0.369247
235,2.35,0.15856199999999998,0.5241600000000001,-0.628102,-0.21621700000000002,0.049606,-0.391617
236,2.36,0.38359699999999997,0.537957,-0.5311560000000001,-0.226868,0.015518,-0.42782600000000004
237,2.37,0.6710510000000001,0.460029,-0.24381999999999998,-0.24498000000000003,-0.016449000000000002,-0.445938
238,2.38,0.807674,0.22186799999999998,0.04374800000000001,-0.248169,-0.050537,-0.47258
239,2.39,0.6256649999999999,-0.058445000000000004,0.199974,-0.23751799999999998,-0.096344,-0.502396
240,2.4,0.328898,-0.475206,0.235596,-0.21514899999999998,-0.14534,-0.5247649999999999
241,2.41,-0.070608,-0.8518459999999999,0.248717,-0.195969,-0.196472,-0.536484
242,2.42,-0.536419,-1.0438209999999999,0.108787,-0.193848,-0.229492,-0.532227
243,2.43,-0.7892779999999999,-1.1537600000000001,-0.051185000000000015,-0.20982399999999998,-0.249741,-0.5141140000000001
244,2.44,-0.850525,-1.100607,-0.240486,-0.228989,-0.262527,-0.491745
245,2.45,-0.935574,-0.9804299999999999,-0.45992200000000005,-0.23751799999999998,-0.267853,-0.471512
246,2.46,-0.9289129999999999,-0.854922,-0.631251,-0.23751799999999998,-0.265717,-0.45233199999999996
247,2.47,-0.8772139999999999,-0.702764,-0.818593,-0.2258,-0.264648,-0.438492
248,2.48,-0.788328,-0.608849,-0.8933989999999999,-0.214081,-0.258255,-0.42038000000000003
249,2.49,-0.648316,-0.608928,-0.873231,-0.204498,-0.25293000000000004,-0.394806
250,2.5,-0.460769,-0.6509020000000001,-0.8634629999999999,-0.194901,-0.25506599999999996,-0.368179
251,2.51,-0.381832,-0.771107,-0.81628,-0.190643,-0.264648,-0.336227
252,2.52,-0.42050699999999996,-0.8905420000000001,-0.698962,-0.185318,-0.277435,-0.298935
253,2.53,-0.563739,-1.0087,-0.643282,-0.17999300000000001,-0.300873,-0.255264
254,2.54,-0.524447,-1.1030469999999999,-0.614007,-0.172531,-0.317917,-0.196671
255,2.55,-0.49233000000000005,-1.101278,-0.634027,-0.171463,-0.35733000000000004,-0.154053
256,2.56,-0.555431,-1.055556,-0.7706970000000001,-0.17466700000000002,-0.3797,-0.112518
257,2.57,-0.42108,-0.997132,-0.982618,-0.18212899999999999,-0.382889,-0.06350700000000001
258,2.58,-0.540944,-0.793248,-1.214107,-0.186386,-0.388229,-0.02623
259,2.59,-0.532679,-0.585288,-1.331492,-0.190643,-0.388229,0.007858
260,2.6,-0.642174,-0.330283,-1.405742,-0.191711,-0.38716100000000003,0.036621
261,2.61,-0.683426,-0.168113,-1.461274,-0.191711,-0.394608,0.068573
262,2.62,-0.638512,-0.043661,-1.340753,-0.17999300000000001,-0.40420500000000004,0.09628300000000001
263,2.63,-0.585551,0.028307,-1.303926,-0.17040999999999998,-0.42550699999999997,0.115448
264,2.64,-0.549233,0.078921,-1.200246,-0.157623,-0.447876,0.13888499999999998
265,2.65,-0.390812,0.144733,-1.234328,-0.137375,-0.468124,0.151672
266,2.66,-0.193991,0.29135500000000003,-1.113184,-0.129929,-0.493683,0.171906
267,2.67,-0.123392,0.309248,-1.01254,-0.121399,-0.521378,0.168716
268,2.68,0.340715,0.174146,-0.733591,-0.12353499999999999,-0.536301,0.164459
269,2.69,0.352693,0.291077,-0.5184880000000001,-0.13205,-0.5384220000000001,0.153809
270,2.7,0.039163999999999984,0.665665,-0.581983,-0.138443,-0.524582,0.108002
271,2.71,-0.45446000000000003,1.431557,-0.9555629999999999,-0.13205,-0.504333,0.053665
272,2.72,-0.381818,2.133988,-1.553482,-0.09690900000000001,-0.502213,-0.007050000000000002
273,2.73,-0.15691300000000002,2.813661,-2.259178,-0.053223,-0.527771,-0.06777999999999999
274,2.74,0.12489700000000001,3.041603,-2.829926,-0.017013999999999998,-0.560791,-0.112518
275,2.75,0.275506,2.8153099999999998,-3.089619,0.005370999999999999,-0.5725100000000001,-0.12103299999999999
276,2.76,-0.14801699999999995,2.317914,-3.03618,0.019211000000000002,-0.616196,-0.139145
277,2.77,-0.941204,2.052307,-2.669179,0.025604000000000002,-0.622574,-0.143402
278,2.78,-2.075438,2.085522,-2.2676119999999997,0.028793,-0.62471,-0.146606
279,2.79,-2.722196,2.339106,-1.860364,0.019211000000000002,-0.622574,-0.137009
280,2.8,-2.571707,2.845568,-1.20702,-0.022338999999999998,-0.6098020000000001,-0.114639
281,2.81,-2.06219,3.4779139999999997,-0.42871899999999996,-0.07772799999999999,-0.571442,-0.098663
282,2.82,-1.356076,3.95281,0.2929129999999999,-0.09690900000000001,-0.521378,-0.077362
283,2.83,-0.997742,3.7002,1.22118,-0.057479999999999996,-0.441483,-0.047531
284,2.84,-0.645637,2.773935,2.139437,0.024536,-0.345612,-0.008118
285,2.85,-0.6836369999999999,1.5428709999999999,2.794477,0.133194,-0.24015799999999998,0.013183999999999998
286,2.86,-0.9647950000000001,0.281357,3.062927,0.241852,-0.1315,0.022781
287,2.87,-1.2617,-0.924824,2.7860110000000002,0.340927,-0.016449000000000002,0.028107
288,2.88,-1.539477,-1.9638529999999998,2.197078,0.41017200000000004,0.085815,0.051529
289,2.89,-1.35762,-2.56589,1.426675,0.43573,0.15399200000000002,0.093079
290,2.9,-0.999711,-2.658728,0.8445020000000001,0.414429,0.184891,0.160187
291,2.91,-0.44371499999999997,-2.37552,0.368871,0.368622,0.20726,0.24008200000000002
292,2.92,0.235811,-1.806085,0.09238400000000001,0.31961100000000003,0.236023,0.307205
293,2.93,0.866468,-1.187707,0.043347000000000004,0.267426,0.271179,0.363663
294,2.94,1.521991,-0.618271,-0.038524,0.226944,0.309525,0.389221
295,2.95,1.8056150000000002,-0.052838,-0.249306,0.187531,0.3564,0.407333
296,2.96,1.397608,0.471616,-0.49795200000000006,0.150238,0.399002,0.42012
297,2.97,1.045524,0.46098599999999995,-0.320286,0.086319,0.411789,0.459534
298,2.98,0.776989,0.09415400000000003,0.248063,0.056503,0.380905,0.48936499999999994
299,2.99,0.651647,-1.080892,1.127043,0.078873,0.303131,0.523453
300,3.0,0.471887,-1.7393509999999999,1.2683879999999998,0.105499,0.24774200000000002,0.539429
301,3.01,0.46924399999999994,-2.4476169999999997,1.063558,0.171539,0.21684299999999998,0.559662
302,3.02,0.32765700000000003,-2.797564,0.671602,0.23439000000000002,0.18595899999999999,0.589493
303,3.03,0.11649099999999997,-2.773232,0.187565,0.266357,0.184891,0.622513
304,3.04,0.174154,-2.0613669999999997,-0.326834,0.23971599999999998,0.209396,0.664062
305,3.05,0.45782700000000004,-1.361316,-0.556041,0.174744,0.257324,0.670456
306,3.06,0.5483140000000001,-0.9202790000000001,-0.487196,0.104431,0.294617,0.638504
307,3.07,0.15796400000000002,-0.772934,-0.377384,0.05223099999999999,0.337219,0.590561
308,3.08,-0.0074729999999999935,-0.8561469999999999,-0.269897,0.039458999999999994,0.36705,0.543686
309,3.09,-0.114103,-1.0293,-0.313318,0.06715399999999999,0.390488,0.495758
310,3.1,0.087715,-1.177107,-0.549457,0.092712,0.406464,0.454208
311,3.11,0.44690799999999997,-1.370454,-0.768911,0.108688,0.413925,0.422241
312,3.12,0.885534,-1.494613,-0.9153379999999999,0.108688,0.405396,0.38603200000000004
313,3.13,1.181252,-1.497679,-0.9975809999999999,0.10336300000000001,0.39260900000000004,0.350876
314,3.14,1.418272,-1.293515,-1.100076,0.105499,0.385162,0.312531
315,3.15,1.568546,-1.029682,-1.288158,0.12361099999999998,0.374512,0.26245100000000005
316,3.16,1.597357,-0.793147,-1.335909,0.167282,0.361725,0.194275
317,3.17,1.574234,-0.388905,-1.4748430000000001,0.219482,0.363861,0.112259
318,3.18,1.298957,-0.170801,-1.565807,0.26103200000000004,0.368118,0.034485
319,3.19,0.862625,0.20347,-1.6859,0.288727,0.411789,-0.027298000000000003
320,3.2,0.21889299999999998,0.329305,-1.7872240000000001,0.298309,0.47677600000000003,-0.06777999999999999
321,3.21,-0.378243,0.268302,-1.8091689999999998,0.286591,0.52684,-0.108261
322,3.22,-0.8392940000000001,0.13506600000000002,-1.659431,0.248245,0.5630649999999999,-0.158325
323,3.23,-0.709132,0.293905,-1.486456,0.188583,0.5502779999999999,-0.18602
324,3.24,-0.12183800000000002,0.6744399999999999,-1.273775,0.121475,0.49382,-0.16684000000000002
325,3.25,0.834198,1.305218,-0.887249,0.0746,0.418182,-0.108261
326,3.26,1.6193899999999999,2.0900950000000003,-0.690285,0.084198,0.370239,-0.05285599999999999
327,3.27,1.8292529999999998,2.866435,-0.798441,0.142776,0.355331,-0.013443
328,3.28,1.1810129999999999,3.104062,-1.133315,0.23439000000000002,0.38302600000000003,0.0014650000000000002
329,3.29,0.11945700000000005,2.362993,-1.57324,0.337723,0.446945,-0.013443
330,3.3,-0.367028,1.197622,-2.1465400000000003,0.426147,0.555603,-0.05499299999999999
331,3.31,0.406383,0.641605,-2.266824,0.460236,0.65361,-0.117844
332,3.32,0.294768,0.6472439999999999,-1.222337,0.437866,0.739899,-0.174301
333,3.33,0.4073,1.0747200000000001,0.4370020000000001,0.35902399999999995,0.784637,-0.220108
334,3.34,1.083505,1.8968,1.8109990000000002,0.262085,0.784637,-0.17643699999999998
335,3.35,2.0221080000000002,2.343855,3.248494,0.179001,0.730301,-0.061386
336,3.36,1.590116,2.293116,4.817666,0.13533,0.5630649999999999,0.047272
337,3.37,0.978094,1.7926419999999998,5.562958,0.152374,0.412857,0.179367
338,3.38,0.862092,1.535519,5.220472,0.22587600000000002,0.24028000000000002,0.332764
339,3.39,0.5842510000000001,1.229589,3.932061,0.311096,0.05065900000000001,0.479767
340,3.4,0.092657,1.11514,2.456209,0.33665500000000004,-0.076096,0.5362239999999999
341,3.41,0.235314,1.0508170000000001,1.470352,0.315353,-0.120834,0.504272
342,3.42,0.48711800000000005,0.879978,1.16254,0.274872,-0.165588,0.355133
343,3.43,0.37762399999999996,1.063906,0.870475,0.226944,-0.18582200000000001,0.15592999999999999
344,3.44,0.345192,1.464166,0.401742,0.181137,-0.192215,-0.049667
345,3.45,0.813949,1.679255,0.185637,0.163025,-0.18689,-0.26698299999999997
346,3.46,1.388428,1.576994,0.198934,0.167282,-0.222046,-0.504532
347,3.47,1.182258,1.130534,0.378979,0.171539,-0.289154,-0.7122649999999999
348,3.48,0.50661,0.23978400000000002,0.587036,0.139587,-0.371185,-0.843292
349,3.49,-0.291759,-0.859834,0.683619,0.073547,-0.46278400000000003,-0.889099
350,3.5,-0.6225970000000001,-2.2266150000000002,0.581498,-0.006348,-0.543747,-0.859268
351,3.51,-0.6437390000000001,-3.4935709999999998,0.500965,-0.080917,-0.61087,-0.774048
352,3.52,-0.578854,-4.310473,0.41188800000000003,-0.15123,-0.665192,-0.672836
353,3.53,-0.47574099999999997,-4.636789,0.395124,-0.197037,-0.715256,-0.5737760000000001
354,3.54,-0.41431599999999996,-4.56764,0.311363,-0.234314,-0.74295,-0.493881
355,3.55,-0.408075,-4.107691,0.20705300000000001,-0.26414499999999996,-0.7450869999999999,-0.436356
356,3.56,-0.688284,-3.4497459999999998,0.021208000000000005,-0.287582,-0.738693,-0.402267
357,3.57,-1.021793,-2.789098,-0.121101,-0.29823299999999997,-0.706741,-0.383087
358,3.58,-1.20745,-2.179463,-0.311581,-0.296112,-0.67691,-0.374573
359,3.59,-1.473631,-1.755137,-0.358165,-0.296112,-0.636429,-0.37243699999999996
360,3.6,-1.6739549999999999,-1.579025,-0.35980999999999996,-0.308884,-0.584229,-0.353271
361,3.61,-1.854975,-1.625405,-0.343977,-0.317413,-0.504333,-0.314911
362,3.62,-2.011318,-1.6722,-0.41225600000000007,-0.297165,-0.410599,-0.265915
363,3.63,-2.235245,-1.8294849999999998,-0.48354600000000003,-0.253494,-0.312592,-0.201996
364,3.64,-2.378926,-2.0768150000000003,-0.537809,-0.200226,-0.23481799999999997,-0.139145
365,3.65,-2.364321,-2.1988630000000002,-0.704942,-0.164017,-0.18582200000000001,-0.074158
366,3.66,-2.153804,-2.1440080000000004,-0.9726030000000001,-0.136322,-0.174103,-0.007050000000000002
367,3.67,-1.654178,-1.866693,-1.231639,-0.119278,-0.190079,0.049408
368,3.68,-0.939316,-1.43076,-1.3771010000000001,-0.13205,-0.229492,0.108002
369,3.69,-0.149482,-0.8986799999999999,-1.322773,-0.150162,-0.277435,0.164459
370,3.7,0.36596300000000004,-0.11955900000000005,-1.2351889999999999,-0.167206,-0.32431,0.201736
371,3.71,0.631204,0.755039,-1.285568,-0.167206,-0.374374,0.211319
372,3.72,0.9780549999999999,1.5283579999999999,-1.140288,-0.15975999999999999,-0.41272,0.200668
373,3.73,0.907323,2.161197,-0.9190020000000001,-0.13311800000000001,-0.443619,0.170853
374,3.74,0.6818770000000001,2.572069,-0.468236,-0.11181600000000001,-0.452133,0.139954
375,3.75,0.13561599999999996,2.8763099999999997,-0.330312,-0.10968,-0.42336999999999997,0.080292
376,3.76,-0.243209,3.017466,-0.149457,-0.11181600000000001,-0.39355500000000004,0.043015
377,3.77,-1.128808,3.3346139999999997,-0.4854379999999999,-0.064941,-0.36904899999999996,-0.005981
378,3.78,-1.753664,3.729631,-1.34215,0.021347,-0.365845,-0.062453999999999996
379,3.79,-1.887071,3.781163,-2.300336,0.12468,-0.41699200000000003,-0.106125
380,3.8,-1.028356,2.951651,-2.845695,0.241852,-0.549072,-0.11145
381,3.81,-0.775468,2.581492,-2.414324,0.202438,-0.6172489999999999,-0.11570699999999999
382,3.82,-0.349837,2.146348,-1.298604,0.069275,-0.673706,-0.116776
383,3.83,-1.34795,2.498135,0.254077,-0.086243,-0.670517,-0.095474
384,3.84,-1.603169,2.9112169999999997,1.526389,-0.18318199999999998,-0.6321720000000001,-0.058182000000000005
385,3.85,-1.199389,2.586668,2.9803450000000002,-0.18425,-0.6321720000000001,-0.053925
386,3.86,-0.453145,1.9350889999999998,4.519924,-0.153366,-0.555466,-0.085876
387,3.87,-0.151802,1.29599,5.216266,-0.100098,-0.42764300000000005,-0.150864
388,3.88,-0.56599,0.301304,5.216521,-0.003159000000000002,-0.222046,-0.243546
389,3.89,-1.064546,-0.406292,4.040484999999999,0.10336300000000001,0.032562000000000015,-0.333023
390,3.9,-1.379364,-0.561888,2.3646439999999997,0.163025,0.237091,-0.386292
391,3.91,-1.605107,-0.547706,1.022802,0.145981,0.352142,-0.38736
392,3.92,-1.330649,-0.235942,0.46407299999999996,0.061828999999999995,0.428833,-0.31279
393,3.93,-0.861002,0.250408,0.543921,-0.025528,0.48422200000000004,-0.189209
394,3.94,-0.299594,0.680474,0.8872770000000001,-0.056427,0.52684,-0.033691000000000006
395,3.95,0.38397800000000004,0.894658,1.042175,-0.018066,0.548141,0.11972000000000001
396,3.96,0.615135,0.981237,1.2141680000000001,0.06395,0.553467,0.24540700000000001
397,3.97,0.620685,0.7230949999999999,1.29824,0.160889,0.56839,0.391357
398,3.98,0.907375,-0.009421999999999986,1.153875,0.235458,0.5811609999999999,0.5202479999999999
399,3.99,1.094128,-0.986461,0.9598549999999999,0.24078400000000003,0.574783,0.619324
400,4.0,1.29453,-1.987094,0.750307,0.19072,0.56839,0.691757
401,4.01,1.395494,-2.7946560000000003,0.565847,0.107635,0.561996,0.717331
402,4.02,1.099651,-3.485947,0.535809,0.028793,0.555603,0.690689
403,4.03,0.857504,-4.019973,0.40376100000000004,-0.03511,0.555603,0.653412
404,4.04,0.491055,-4.012158,0.386117,-0.078796,0.565186,0.601212
405,4.05,0.368502,-3.730236,0.332785,-0.10968,0.5843659999999999,0.576706
406,4.06,0.15145,-3.1385330000000002,0.317676,-0.134186,0.605667,0.543686
407,4.07,-0.014123999999999998,-2.429177,0.114501,-0.137375,0.636566,0.511734
408,4.08,0.29614,-1.7769549999999998,-0.164967,-0.148041,0.654678,0.495758
409,4.09,0.816067,-1.331603,-0.43812700000000004,-0.167206,0.656799,0.463791
410,4.1,1.468488,-1.159514,-0.647935,-0.18212899999999999,0.638687,0.42437700000000006
411,4.11,1.880368,-1.0594860000000001,-0.7553949999999999,-0.194901,0.602478,0.361526
412,4.12,2.18982,-1.10012,-0.860082,-0.187454,0.540695,0.295486
413,4.13,2.367526,-1.301563,-0.8916860000000001,-0.150162,0.467178,0.22517399999999999
414,4.14,2.4115580000000003,-1.6044,-0.9867959999999999,-0.100098,0.376633,0.165512
415,4.15,2.441506,-1.9043869999999998,-1.173451,-0.053223,0.276505,0.120773
416,4.16,2.367092,-1.97318,-1.407797,-0.030853,0.187027,0.09414700000000001
417,4.17,2.093472,-1.82319,-1.683334,-0.03299,0.10713199999999999,0.080292
418,4.18,1.823274,-1.47222,-1.9170060000000002,-0.04364,0.063446,0.068573
419,4.19,1.2892139999999999,-0.956153,-2.017473,-0.055359000000000005,0.044281,0.043015
420,4.2,0.767349,-0.3280000000000001,-2.046932,-0.050033999999999995,0.061325,0.0036009999999999996
421,4.21,0.388773,0.150849,-2.029241,-0.042572000000000006,0.092209,-0.039017
422,4.22,0.035792999999999985,0.637858,-1.8667529999999999,-0.030853,0.13694800000000001,-0.084824
423,4.23,-0.386271,0.9906709999999999,-1.6413790000000001,-0.025528,0.193405,-0.13063
424,4.24,-0.85505,1.359782,-1.39896,-0.037247,0.243484,-0.184952
425,4.25,-1.123904,1.780702,-1.144066,-0.06601,0.267975,-0.212646
426,4.26,-0.804603,2.304621,-1.0119360000000002,-0.09690900000000001,0.264786,-0.195602
427,4.27,0.3978660000000001,2.921316,-0.837598,-0.10968,0.23069800000000001,-0.11570699999999999
428,4.28,1.332423,3.5336849999999997,-0.559655,-0.063873,0.178497,-0.04007
429,4.29,1.983077,4.304608999999999,-0.6956359999999999,0.040512000000000006,0.157196,0.056870000000000004
430,4.3,1.779982,4.78296,-0.867392,0.16835,0.180634,0.151672
431,4.31,1.0361770000000001,4.608855,-0.959584,0.279129,0.22963000000000003,0.20813
432,4.32,0.377092,4.43404,-0.239795,0.323883,0.260529,0.23263499999999998
433,4.33,-0.462503,4.3089129999999995,0.8357190000000001,0.290848,0.293549,0.24008200000000002
434,4.34,0.8493950000000001,3.985389,1.724619,0.264221,0.27224699999999996,0.28483600000000003
435,4.35,1.7755619999999999,2.92865,3.056589,0.28979499999999997,0.224304,0.30081199999999997
436,4.36,1.5794860000000002,1.323268,3.8702959999999997,0.354767,0.16677899999999998,0.307205
437,4.37,0.9659979999999999,-0.10889700000000002,4.00074,0.448517,0.118851,0.319977
438,4.38,1.2522799999999998,-0.9416450000000001,2.968876,0.532669,0.051726999999999995,0.32104499999999997
439,4.39,1.14741,-1.619837,2.2289779999999997,0.525208,-0.040939,0.29441799999999996
440,4.4,0.554513,-1.429725,1.471437,0.401642,-0.088882,0.27098099999999997
441,4.41,-0.061662,-0.72749,0.9039010000000001,0.215225,-0.09314,0.21666
442,4.42,-0.45714799999999994,0.182676,0.5861810000000001,0.042648000000000005,-0.105927,0.110123
443,4.43,-0.526346,0.814787,0.548013,-0.108627,-0.165588,-0.05285599999999999
444,4.44,-0.722985,1.03021,0.635319,-0.197037,-0.21351599999999998,-0.23501599999999997
445,4.45,-0.131019,1.2495049999999999,0.598039,-0.24498000000000003,-0.233765,-0.41612200000000005
446,4.46,0.697565,1.350965,0.577887,-0.25669899999999995,-0.29234299999999996,-0.584427
447,4.47,0.9226409999999999,0.8363709999999999,0.7519,-0.239655,-0.355194,-0.727173
448,4.48,0.9033540000000001,-0.146519,1.04531,-0.20343,-0.39355500000000004,-0.808136
449,4.49,0.684068,-1.374354,1.177694,-0.178925,-0.41699200000000003,-0.835831
450,4.5,0.367976,-2.661099,1.096883,-0.167206,-0.43508900000000006,-0.823044
451,4.51,-0.351464,-3.6128839999999998,0.994944,-0.17466700000000002,-0.45640600000000003,-0.797485
452,4.52,-0.914833,-4.090086,0.938371,-0.18425,-0.459595,-0.735687
453,4.53,-1.4298790000000001,-4.085176000000001,0.751918,-0.190643,-0.46385200000000004,-0.672836
454,4.54,-1.7049419999999997,-3.853419,0.530483,-0.178925,-0.454269,-0.612122
455,4.55,-1.801033,-3.2753810000000003,0.24779400000000001,-0.15975999999999999,-0.442551,-0.566315
456,4.56,-1.6967169999999998,-2.887309,-0.067375,-0.15123,-0.422318,-0.5141140000000001
457,4.57,-1.521723,-2.391434,-0.281009,-0.156555,-0.408463,-0.45233199999999996
458,4.58,-1.235295,-2.076367,-0.496742,-0.16934200000000002,-0.382889,-0.395874
459,4.59,-0.966117,-1.9764970000000002,-0.763045,-0.185318,-0.365845,-0.33515900000000004
460,4.6,-0.865101,-2.129505,-0.843442,-0.201294,-0.352005,-0.273376
461,4.61,-0.8981100000000001,-2.300767,-1.00219,-0.20982399999999998,-0.333893,-0.200928
462,4.62,-1.009623,-2.462715,-1.151427,-0.22047399999999998,-0.32856799999999997,-0.13382
463,4.63,-1.162351,-2.5352959999999998,-1.2632079999999999,-0.240707,-0.33921799999999996,-0.072037
464,4.64,-1.169476,-2.408188,-1.408353,-0.274796,-0.367981,-0.005981
465,4.65,-1.098822,-1.985723,-1.5070430000000001,-0.29823299999999997,-0.426575,0.061127
466,4.66,-0.9169280000000001,-1.409637,-1.557941,-0.300369,-0.486221,0.131424
467,4.67,-0.774187,-0.669738,-1.217292,-0.270538,-0.521378,0.205994
468,4.68,-0.5373220000000001,0.511223,-1.088797,-0.21727,-0.542679,0.250748
469,4.69,-0.463265,1.751564,-1.336841,-0.144836,-0.571442,0.24754299999999999
470,4.7,-0.35583400000000004,2.426872,-1.3997950000000001,-0.058548,-0.611923,0.218781
471,4.71,0.12018299999999997,2.5140029999999998,-1.2680209999999998,0.025604,-0.622574,0.200668
472,4.72,0.35200000000000004,2.4432150000000004,-0.412322,0.087387,-0.5288390000000001,0.167648
473,4.73,-0.9345180000000001,2.249187,0.185955,0.101242,-0.345612,0.090958
474,4.74,-2.380807,2.91437,-0.5686359999999999,0.151306,-0.229492,-0.014510999999999996
475,4.75,-3.243264,3.6719459999999997,-1.851563,0.249313,-0.20925900000000003,-0.137009
476,4.76,-2.6421069999999998,3.6899839999999995,-2.995063,0.392059,-0.294479,-0.21585100000000002
477,4.77,-1.213234,2.8717509999999997,-3.436754,0.540131,-0.426575,-0.209457
478,4.78,-0.8306319999999999,1.632204,-2.6129860000000003,0.5518489999999999,-0.524582,-0.183884
479,4.79,-0.136318,0.544053,-0.926322,0.368622,-0.615128,-0.148727
480,4.8,-0.8053710000000001,0.767362,1.702045,0.101242,-0.636429,-0.074158
481,4.81,-0.668408,1.6305969999999999,3.240366,-0.050033999999999995,-0.6321720000000001,-0.02623
482,4.82,-0.07097799999999999,1.489306,4.593229,-0.07986499999999999,-0.640686,-0.029419
483,4.83,1.503423,1.2864309999999999,5.576784,-0.061752,-0.555466,-0.06350700000000001
484,4.84,1.887962,1.309436,5.721989,-0.029785000000000002,-0.39888,-0.171097
485,4.85,0.6375310000000001,1.312439,5.271399,0.021347,-0.089951,-0.321304
486,4.86,-0.738594,1.719171,4.112242,0.059691999999999995,0.265854,-0.480026
487,4.87,-0.939068,2.086512,2.729962,0.059691999999999995,0.48849499999999996,-0.555664
488,4.88,-0.571047,2.082896,1.8805779999999999,0.040512,0.551346,-0.5279689999999999
489,4.89,-0.645534,2.066029,1.576008,0.047974,0.564117,-0.41931199999999996
490,4.9,-0.625,2.030527,1.317833,0.099106,0.56839,-0.254196
491,4.91,-0.668257,2.1113880000000003,1.276475,0.186462,0.560928,-0.035812000000000004
492,4.92,-0.417376,2.061196,1.229248,0.304703,0.5630649999999999,0.229431
493,4.93,0.087392,1.5261149999999999,1.157103,0.434662,0.566254,0.485092
494,4.94,0.515413,0.31926599999999994,0.973139,0.534805,0.566254,0.6875
495,4.95,0.898803,-1.008677,0.723831,0.567825,0.598206,0.804672
496,4.96,0.987009,-2.423316,0.38903699999999997,0.5177609999999999,0.656799,0.84729
497,4.97,0.93965,-3.6493010000000004,0.032004000000000005,0.401642,0.7090000000000001,0.833435
498,4.98,0.660798,-4.7851919999999994,-0.169213,0.249313,0.748413,0.774857
499,4.99,0.32875599999999994,-5.350319,-0.24579600000000001,0.100174,0.776108,0.6853640000000001
500,5.0,-0.213561,-5.328682,-0.310436,-0.020203,0.798477,0.585236
501,5.01,-0.567034,-5.001512,-0.34191900000000003,-0.106491,0.828308,0.522385
502,5.02,-0.686665,-4.380893,-0.426929,-0.15123,0.858139,0.493622
503,5.03,-0.287001,-3.746736,-0.388946,-0.16508499999999998,0.874115,0.482971
504,5.04,0.3972629999999999,-3.067307,-0.454938,-0.148041,0.869858,0.46166999999999997
505,5.05,1.180199,-2.488053,-0.639628,-0.164017,0.86026,0.43396
506,5.06,1.899145,-2.013417,-0.6915600000000001,-0.210892,0.82724,0.375381
507,5.07,2.478093,-1.702434,-0.685127,-0.274796,0.779312,0.307205
508,5.08,2.732656,-1.537906,-0.6200060000000001,-0.322739,0.716461,0.231567
509,5.09,2.9645029999999997,-1.4491,-0.695739,-0.322739,0.624847,0.167648
510,5.1,3.2158349999999998,-1.44912,-0.783892,-0.274796,0.5161899999999999,0.104797
511,5.11,3.212789,-1.484118,-0.890442,-0.197037,0.397949,0.041946
512,5.12,2.993245,-1.432238,-1.140498,-0.120331,0.296738,-0.008118
513,5.13,2.497705,-1.2062700000000002,-1.3540299999999998,-0.06282,0.220047,-0.044342
514,5.14,1.597592,-0.7906,-1.56985,-0.025528,0.182755,-0.064575
515,5.15,0.802797,-0.330067,-1.759208,-0.004227000000000001,0.178497,-0.077362
516,5.16,0.16666400000000006,0.285731,-1.9062290000000002,0.006423999999999999,0.190216,-0.1008
517,5.17,-0.309923,0.7785449999999999,-1.783532,0.010695999999999999,0.20619200000000001,-0.128494
518,5.18,-0.6530819999999999,1.146332,-1.4343350000000001,0.004303,0.21365399999999998,-0.170044
519,5.19,-0.752434,1.467173,-1.11027,-0.012740999999999999,0.20726,-0.207321
520,5.2,-0.494356,1.779031,-0.914877,-0.058548,0.189148,-0.20413199999999998
521,5.21,0.12243300000000007,2.30724,-0.837141,-0.115005,0.168915,-0.143402
522,5.22,0.701167,2.923559,-0.791442,-0.137375,0.15506,-0.069901
523,5.23,0.9058200000000001,3.720012,-0.8258989999999999,-0.09477200000000001,0.15931700000000001,-0.007050000000000002
524,5.24,0.84855,4.2317279999999995,-1.066308,0.010695999999999995,0.181686,0.047272
525,5.25,0.5089600000000001,4.268753,-1.275647,0.142776,0.24453699999999998,0.078171
526,5.26,-0.17119299999999998,3.957954,-1.247976,0.247177,0.328705,0.11119100000000001
527,5.27,0.39042,3.637736,-0.495091,0.27594,0.397949,0.134628
528,5.28,0.420707,3.517446,1.029031,0.24610900000000002,0.42990100000000003,0.13888499999999998
529,5.29,1.175373,3.471117,2.09817,0.20137,0.45120200000000005,0.186829
530,5.3,2.00608,2.716657,3.5288150000000003,0.20137,0.373444,0.24540700000000001
531,5.31,1.657042,1.4601870000000001,4.396662,0.258896,0.256256,0.307205
532,5.32,0.933024,0.359684,4.55218,0.348373,0.150803,0.396683
533,5.33,0.87749,-0.321201,3.294418,0.45277399999999995,0.04853799999999999,0.472321
534,5.34,1.14984,-0.9192629999999999,1.9571580000000002,0.490051,-0.084625,0.49468999999999996
535,5.35,0.737701,-1.044434,1.190796,0.395248,-0.195404,0.491486
536,5.36,0.23943699999999998,-0.359534,0.8123020000000001,0.19072,-0.23056,0.45207200000000003
537,5.37,0.10828199999999999,0.8746139999999999,0.794104,-0.012741000000000002,-0.266785,0.34129299999999996
538,5.38,0.248444,1.711469,0.953693,-0.149094,-0.316849,0.165512
539,5.39,0.276096,2.082994,1.0526659999999999,-0.200226,-0.363724,-0.05285599999999999
540,5.4,1.068671,2.272264,1.0313139999999998,-0.176804,-0.419113,-0.277634
541,5.41,1.750332,2.212218,1.078083,-0.12353499999999999,-0.530975,-0.5056
542,5.42,2.024962,1.5167950000000001,1.3029899999999999,-0.057479999999999996,-0.642822,-0.685623
543,5.43,1.8116189999999999,0.3877900000000001,1.371532,0.006423999999999999,-0.731232,-0.809204
544,5.44,1.44696,-1.0911819999999999,1.086983,0.034119,-0.789825,-0.8603360000000001
545,5.45,0.690806,-2.6536310000000003,0.9010469999999999,-0.0010219999999999986,-0.832443,-0.8603360000000001
546,5.46,-0.09654200000000003,-3.863544,0.745112,-0.071335,-0.856934,-0.8155819999999999
547,5.47,-0.7622630000000001,-4.570101,0.672371,-0.13525399999999999,-0.891022,-0.748474
548,5.48,-1.350636,-4.819554,0.5607300000000001,-0.173599,-0.9102020000000001,-0.676041
549,5.49,-1.851775,-4.641221,0.45164499999999996,-0.177856,-0.909134,-0.612122
550,5.5,-2.1926240000000004,-4.100276999999999,0.285869,-0.16508499999999998,-0.893158,-0.5588529999999999
551,5.51,-2.417568,-3.4313269999999996,0.030047000000000008,-0.16081199999999998,-0.8633270000000001,-0.5141140000000001
552,5.52,-2.379369,-2.86957,-0.143112,-0.176804,-0.809006,-0.457657
553,5.53,-1.9067779999999999,-2.491658,-0.46744300000000005,-0.224731,-0.731232,-0.386292
554,5.54,-1.623301,-2.3838880000000002,-0.585659,-0.25882,-0.6790470000000001,-0.336227
555,5.55,-1.315724,-2.283423,-0.7667390000000001,-0.284393,-0.6279140000000001,-0.277634
556,5.56,-1.207062,-2.289491,-0.798089,-0.297165,-0.579971,-0.21371500000000002
557,5.57,-1.254232,-2.351177,-0.792989,-0.289719,-0.522446,-0.142349
558,5.58,-1.37875,-2.4934830000000003,-0.83442,-0.285446,-0.47024499999999997,-0.064575
559,5.59,-1.452391,-2.480775,-1.032022,-0.29078699999999996,-0.455338,0.006790000000000001
560,5.6,-1.3296729999999999,-2.2381580000000003,-1.282593,-0.29184,-0.47345,0.06752000000000001
561,5.61,-1.122519,-1.7854189999999999,-1.5704420000000001,-0.279068,-0.519257,0.12397799999999999
562,5.62,-1.075869,-1.219275,-1.4085729999999999,-0.24710100000000002,-0.542679,0.19108599999999998
563,5.63,-0.692873,-0.301141,-1.2821719999999999,-0.20982399999999998,-0.549072,0.261398
564,5.64,-0.538569,0.971195,-1.3402450000000001,-0.177856,-0.557602,0.296555
565,5.65,-0.554249,2.136877,-1.516382,-0.137375,-0.5757140000000001,0.290161
566,5.66,-0.208682,2.787531,-1.570135,-0.080917,-0.584229,0.24754299999999999
567,5.67,0.224346,2.982257,-1.347988,-0.017013999999999998,-0.5810390000000001,0.21666
568,5.68,0.42626000000000003,3.007993,-0.83394,0.024536000000000002,-0.520309,0.177231
569,5.69,0.02557300000000001,2.739631,-0.48439899999999997,0.039458999999999994,-0.413788,0.108002
570,5.7,-0.776367,2.5998650000000003,-0.426887,0.05223099999999999,-0.318985,0.039825
571,5.71,-1.9312939999999998,2.8373470000000003,-1.210842,0.110825,-0.265717,-0.062453999999999996
572,5.72,-2.476071,3.151514,-1.8865580000000002,0.197113,-0.28595,-0.14447000000000002
573,5.73,-1.8158150000000002,3.332839,-2.01057,0.23866300000000001,-0.358398,-0.196671
574,5.74,-1.21557,3.578929,-0.9230430000000001,0.196045,-0.43615699999999996,-0.225433
575,5.75,-0.40266199999999996,3.903432,0.889375,0.05862400000000001,-0.44573999999999997,-0.220108
576,5.76,-0.688737,4.311275,2.452841,-0.116074,-0.420181,-0.224365
577,5.77,-0.9229780000000001,3.8404870000000004,4.317643,-0.223663,-0.352005,-0.24780300000000002
578,5.78,-0.12580199999999994,3.067168,5.400795,-0.20768699999999998,-0.27317800000000003,-0.289352
579,5.79,0.514439,1.947314,5.648313,-0.083054,-0.205002,-0.382019
580,5.8,-0.379652,0.656075,5.041111,0.101242,-0.047333,-0.480026
581,5.81,-0.9198870000000001,-0.127512,3.380011,0.254639,0.172104,-0.49600200000000005
582,5.82,-1.029354,-0.224529,1.9817799999999999,0.268478,0.283966,-0.457657
583,5.83,-0.8053680000000001,0.23151800000000006,1.244691,0.186462,0.326569,-0.361786
584,5.84,-0.583257,0.8745040000000001,0.961413,0.084198,0.358521,-0.225433
585,5.85,-0.317601,1.493509,0.8982870000000001,0.035187,0.381958,-0.07843
586,5.86,-0.271692,1.908091,1.0197120000000002,0.036255,0.404327,0.086685
587,5.87,0.134758,1.926984,1.187934,0.098038,0.446945,0.256073
588,5.88,0.269495,1.521149,1.224489,0.184326,0.49700900000000003,0.41479499999999997
589,5.89,0.5141899999999999,0.6185960000000001,1.05574,0.26103200000000004,0.542816,0.550079
590,5.9,0.6442180000000001,-0.4897670000000001,0.807829,0.291916,0.573715,0.662994
591,5.91,0.661809,-1.6386669999999999,0.561178,0.269547,0.602478,0.731171
592,5.92,0.45241000000000003,-2.865909,0.329034,0.204575,0.625916,0.754608
593,5.93,0.20565,-3.9284980000000003,0.326869,0.13105799999999998,0.636566,0.75354
594,5.94,-0.008645999999999987,-4.6751629999999995,0.309,0.057555999999999996,0.6557310000000001,0.7322390000000001
595,5.95,-0.074503,-5.023784,0.331778,0.0010989999999999956,0.688766,0.6992189999999999
596,5.96,-0.164081,-4.982562000000001,0.237206,-0.042572000000000006,0.7185819999999999,0.6864319999999999
597,5.97,-0.040861000000000015,-4.070730999999999,0.056472,-0.074524,0.75267,0.6523439999999999
598,5.98,0.228061,-3.2632060000000003,-0.13796,-0.06601,0.7718510000000001,0.620392
599,5.99,0.6756340000000001,-2.524426,-0.405667,-0.051102,0.773987,0.568192
600,6.0,1.102272,-1.967281,-0.569067,-0.047897,0.766525,0.5021359999999999
601,6.01,1.4893049999999999,-1.698826,-0.680193,-0.081985,0.744156,0.43183900000000003
602,6.02,1.984576,-1.601772,-0.755038,-0.143768,0.700485,0.351944
603,6.03,2.259114,-1.472741,-0.821551,-0.193848,0.633362,0.273117
604,6.04,2.478478,-1.550924,-1.005966,-0.201294,0.552399,0.19961500000000001
605,6.05,2.598191,-1.702721,-1.226539,-0.164017,0.46398900000000004,0.129303
606,6.06,2.6248080000000003,-1.87559,-1.4581549999999999,-0.102234,0.360657,0.071777
607,6.07,2.4828200000000002,-1.862084,-1.642077,-0.041504,0.27224699999999996,0.031296
608,6.08,2.0729509999999998,-1.617743,-1.8745189999999998,0.003235,0.21684299999999998,0.008926
609,6.09,1.630064,-1.226057,-1.9796529999999999,0.029861000000000002,0.189148,-0.002792
610,6.1,1.0390469999999998,-0.635412,-1.958207,0.047974,0.180634,-0.029419
611,6.11,0.22587,0.022836000000000026,-1.9279970000000002,0.06395,0.198746,-0.051788
612,6.12,-0.28229299999999996,0.550261,-1.9045490000000003,0.075668,0.242416,-0.069901
613,6.13,-0.869924,0.848685,-1.6586450000000001,0.061828999999999995,0.297806,-0.09227
614,6.14,-1.300011,1.051927,-1.175499,0.029861000000000002,0.3255,-0.128494
615,6.15,-1.364914,1.2469430000000001,-0.8174020000000001,-0.018066,0.342545,-0.159393
616,6.16,-0.831785,1.877859,-0.6508010000000001,-0.07347100000000001,0.329773,-0.139145
617,6.17,0.09777600000000004,2.683827,-0.628432,-0.100098,0.295685,-0.066711
618,6.18,0.921142,3.436724,-0.59931,-0.06282,0.263718,0.013183999999999998
619,6.19,1.349327,4.233092,-0.815987,0.05011,0.265854,0.101608
620,6.2,1.397471,4.496134,-1.110711,0.205627,0.321243,0.168716
621,6.21,0.418246,4.163931,-0.9995350000000001,0.323883,0.395813,0.200668
622,6.22,0.332461,3.8357349999999997,-0.383265,0.360092,0.452271,0.23263499999999998
623,6.23,-0.35218399999999994,3.9670940000000003,1.3698640000000002,0.299377,0.452271,0.24540700000000001
624,6.24,0.7101089999999999,4.131262,2.327459,0.23652600000000001,0.42776499999999995,0.307205
625,6.25,1.978732,3.4280699999999995,3.833735,0.22587600000000002,0.320175,0.353012
626,6.26,1.950434,2.005933,4.542975,0.288727,0.218979,0.390289
627,6.27,1.2611860000000001,0.441236,4.736267,0.42401099999999997,0.14122,0.41905200000000004
628,6.28,0.8357389999999999,-0.6247060000000001,3.674332,0.583801,0.10392799999999999,0.42651400000000006
629,6.29,0.53252,-1.410751,2.0345009999999997,0.673279,0.036819,0.398819
630,6.3,0.08526600000000001,-1.9776200000000002,1.071519,0.617889,-0.024963,0.362595
631,6.31,-0.639025,-1.724955,0.588198,0.43891899999999995,-0.049469,0.308258
632,6.32,-1.041713,-0.715214,0.486629,0.21095300000000003,-0.052658,0.236893
633,6.33,-1.093921,0.573561,0.538896,-0.0010219999999999954,-0.089951,0.117584
634,6.34,-0.967993,1.655802,0.514339,-0.149094,-0.106995,-0.034744
635,6.35,-0.49202299999999993,2.386787,0.568913,-0.224731,-0.11018399999999999,-0.209457
636,6.36,0.333782,2.882075,0.63855,-0.25242600000000004,-0.165588,-0.388412
637,6.37,0.523864,2.7654669999999997,1.076449,-0.23326100000000002,-0.227371,-0.5588529999999999
638,6.38,0.25817399999999996,1.968668,1.549284,-0.15975999999999999,-0.267853,-0.677109
639,6.39,-9.9999999999989e-05,0.8841040000000001,1.545246,-0.06281999999999999,-0.29341100000000003,-0.730362
640,6.4,-0.491604,-0.36951900000000015,1.2227350000000001,0.024536,-0.315781,-0.735687
641,6.41,-0.9851049999999999,-1.76803,0.80252,0.06395,-0.321106,-0.692017
642,6.42,-1.417057,-3.041574,0.545617,0.05223099999999999,-0.327499,-0.634491
643,6.43,-1.5586719999999998,-3.817689,0.34418899999999997,0.013885000000000002,-0.32963600000000004,-0.556732
644,6.44,-1.535153,-4.25555,0.14541400000000002,-0.029785000000000002,-0.32324200000000003,-0.48748800000000003
645,6.45,-1.403386,-4.308935,0.013782999999999995,-0.06282,-0.308334,-0.450211
646,6.46,-1.416081,-4.060817,-0.177248,-0.081985,-0.28595,-0.435287
647,6.47,-1.349939,-3.6529730000000002,-0.38002600000000003,-0.10116599999999999,-0.25613400000000003,-0.429962
648,6.48,-1.241356,-3.3367620000000002,-0.6276649999999999,-0.12460299999999999,-0.235886,-0.42038000000000003
649,6.49,-1.195822,-3.045573,-0.762624,-0.152298,-0.22630300000000003,-0.404404
650,6.5,-1.124841,-2.845642,-0.851784,-0.195969,-0.210327,-0.358597
651,6.51,-1.057598,-2.7290259999999997,-0.809285,-0.240707,-0.200729,-0.291473
652,6.52,-1.091687,-2.611325,-0.822441,-0.266281,-0.184753,-0.214783
653,6.53,-1.364076,-2.509937,-0.92795,-0.262024,-0.16131600000000001,-0.137009
654,6.54,-1.746264,-2.485798,-1.113823,-0.22261,-0.136826,-0.05285599999999999
655,6.55,-1.987037,-2.389551,-1.2778100000000001,-0.167206,-0.12403900000000001,0.033431999999999996
656,6.56,-2.092308,-2.213048,-1.320898,-0.108627,-0.127228,0.11119100000000001
657,6.57,-1.98734,-1.846484,-1.324447,-0.057479999999999996,-0.1315,0.174042
658,6.58,-1.725325,-1.088976,-1.310791,-0.028732,-0.152802,0.228363
659,6.59,-1.351515,0.02090700000000001,-1.573451,-0.025528,-0.208191,0.27523800000000004
660,6.6,-0.925809,1.110673,-1.670294,-0.03299,-0.27636700000000003,0.311462
661,6.61,-0.404537,1.9326029999999998,-1.3530799999999998,-0.03299,-0.317917,0.344482
662,6.62,-0.01128599999999999,2.5243700000000002,-0.7164020000000001,-0.04364,-0.296616,0.349808
663,6.63,-0.218243,2.965512,0.125648,-0.081985,-0.20925900000000003,0.30932600000000005
664,6.64,-0.995849,3.015996,0.666276,-0.09584,-0.09953300000000001,0.23049899999999998
665,6.65,-2.1184819999999998,3.2407310000000003,0.385146,-0.037247,0.030425999999999998,0.11972000000000001
666,6.66,-2.961733,3.433244,-0.8654630000000001,0.09697,0.12204000000000001,0.0025330000000000005
667,6.67,-2.7032439999999998,3.24412,-2.168136,0.25676,0.090088,-0.089081
668,6.68,-2.25712,2.919062,-2.5971319999999998,0.357971,-0.016449000000000002,-0.146606
669,6.69,-1.46739,2.482087,-1.896357,0.340927,-0.106995,-0.182816
670,6.7,-0.970248,1.9901389999999999,-0.424724,0.24078400000000003,-0.167709,-0.20306400000000002
671,6.71,-1.954186,2.007648,1.6961310000000005,0.084198,-0.16452,-0.17749
672,6.72,-1.547844,2.151291,3.08688,-0.044708,-0.152802,-0.138077
673,6.73,-0.3796,2.116057,4.408924,-0.09477200000000001,-0.18582200000000001,-0.142349
674,6.74,1.3367,2.1706369999999997,4.801654,-0.093704,-0.181564,-0.196671
675,6.75,1.517787,1.720705,4.688223000000001,-0.034058,-0.10379000000000001,-0.30532800000000004
676,6.76,0.6941039999999999,1.390258,4.217911,0.056503,0.115646,-0.404404
677,6.77,-0.280629,1.458507,3.257663,0.126801,0.39474499999999996,-0.470444
678,6.78,-0.687588,1.522053,2.493831,0.110825,0.583298,-0.49067700000000003
679,6.79,-0.615664,1.763811,2.146949,0.051163,0.6397550000000001,-0.451263
680,6.8,-0.9805,2.06121,2.0370150000000002,0.019211000000000002,0.664261,-0.353271
681,6.81,-1.284914,2.094769,2.037532,0.05011,0.680237,-0.21585100000000002
682,6.82,-1.307661,1.9962900000000001,1.9305459999999999,0.134262,0.716461,-0.04007
683,6.83,-1.216689,1.639988,1.8970049999999998,0.25676,0.756943,0.159134
684,6.84,-0.9938309999999999,0.842957,1.6771060000000002,0.386734,0.8059390000000001,0.370056
685,6.85,-0.39942300000000003,-0.189407,1.316245,0.47088599999999997,0.828308,0.568192
686,6.86,-0.006325999999999997,-1.453082,0.899186,0.47300699999999996,0.870926,0.7226560000000001
687,6.87,0.421404,-2.585746,0.49321899999999996,0.401642,0.922058,0.818527
688,6.88,0.474192,-3.6891269999999996,0.152041,0.269547,0.9646610000000001,0.8515469999999999
689,6.89,0.23592,-4.737031,0.03991,0.120407,0.998749,0.8195950000000001
690,6.9,-0.208967,-5.442351,0.024777,-0.02446,1.030716,0.765259
691,6.91,-0.572179,-5.449022,0.099502,-0.141647,1.07225,0.70668
692,6.92,-0.687128,-5.077782,0.025679,-0.223663,1.1138,0.648087
693,6.93,-0.451462,-4.290358,0.051635,-0.267349,1.136169,0.592697
694,6.94,-0.563991,-3.4318,0.042968,-0.25882,1.159607,0.543686
695,6.95,0.24563600000000002,-2.4131259999999997,-0.077533,-0.25242600000000004,1.1766510000000001,0.531967
696,6.96,0.968132,-1.7787689999999998,-0.072749,-0.24710100000000002,1.1766510000000001,0.470184
697,6.97,1.4565190000000001,-1.3642299999999998,-0.185675,-0.24177600000000002,1.167068,0.389221
698,6.98,1.9164759999999998,-1.0052860000000001,-0.41017200000000004,-0.26414499999999996,1.1276549999999999,0.30081199999999997
699,6.99,2.2020150000000003,-0.7175699999999999,-0.53446,-0.275864,1.065857,0.22517399999999999
700,7.0,2.310118,-0.7427060000000001,-0.597362,-0.25242600000000004,0.9689180000000001,0.160187
701,7.01,2.4038619999999997,-0.836268,-0.779349,-0.201294,0.864532,0.10693399999999999
702,7.02,2.231007,-0.961096,-0.9597379999999999,-0.13525399999999999,0.757996,0.068573
703,7.03,1.9384029999999999,-1.1259430000000001,-1.1489969999999998,-0.080917,0.670654,0.047272
704,7.04,1.4201409999999999,-1.1991479999999999,-1.414402,-0.05215499999999999,0.600342,0.034485
705,7.05,0.779929,-1.1025719999999999,-1.6608619999999998,-0.044708,0.560928,0.032364
706,7.06,0.14365,-0.872919,-1.7724389999999999,-0.030853,0.543884,0.031296
707,7.07,-0.5921129999999999,-0.483459,-1.8778139999999999,-0.006348,0.561996,0.012115
708,7.08,-1.1701620000000001,-0.19205,-1.7906810000000002,0.019211000000000002,0.5811609999999999,-0.020905
709,7.09,-1.4164700000000001,0.06496,-1.789088,0.034119,0.5971529999999999,-0.044342
710,7.1,-1.436735,0.327801,-1.7169259999999997,0.021347,0.5971529999999999,-0.060318
711,7.11,-1.152356,0.633015,-1.5807959999999999,-0.019135,0.608871,-0.070969
712,7.12,-0.98287,0.9924370000000001,-1.289281,-0.071335,0.6216430000000001,-0.08694500000000001
713,7.13,-0.661614,1.492758,-1.058491,-0.11714200000000001,0.644012,-0.07310499999999999
714,7.14,-0.051370000000000034,2.048432,-0.696768,-0.139511,0.656799,-0.015579000000000003
715,7.15,0.519139,2.497953,-0.28596,-0.108627,0.6557310000000001,0.045151
716,7.16,0.823357,3.174788,-0.070997,-0.02446,0.651474,0.10693399999999999
717,7.17,0.5130600000000001,4.004105,-0.079576,0.08099400000000001,0.67598,0.179367
718,7.18,-0.3500150000000001,4.562678,0.153612,0.19072,0.723907,0.24861100000000003
719,7.19,-1.208381,5.2110080000000005,1.046526,0.252502,0.764389,0.307205
720,7.2,-1.5700290000000001,5.776426,2.27392,0.235458,0.7601319999999999,0.375381
721,7.21,-1.250817,5.635358,3.184207,0.194977,0.705811,0.5128020000000001
722,7.22,0.76231,4.421212000000001,3.4538889999999998,0.233337,0.647217,0.650208
723,7.23,1.713239,2.318048,3.488516,0.380341,0.5811609999999999,0.6555479999999999
724,7.24,0.808962,-0.1985739999999998,2.918947,0.577408,0.616318,0.556473
725,7.25,0.25755300000000003,-2.048213,1.7262540000000002,0.66156,0.644012,0.466995
726,7.26,-1.063331,-3.005819,0.8463229999999999,0.558243,0.661057,0.350876
727,7.27,-1.8354259999999998,-2.801587,0.516983,0.329208,0.6749109999999999,0.23049899999999998
728,7.28,-2.1754580000000003,-1.442721,0.317562,0.029861000000000026,0.647217,0.12397799999999999
729,7.29,-2.188924,0.21608200000000002,0.27269499999999997,-0.25563,0.618454,0.037688999999999986
730,7.3,-2.08137,1.4677959999999999,0.543667,-0.46122700000000005,0.5960850000000001,-0.066711
731,7.31,-1.642498,2.244859,0.899819,-0.552841,0.571579,-0.201996
732,7.32,-0.915936,2.692821,1.258682,-0.566681,0.514053,-0.329834
733,7.33,-0.4194359999999999,2.839516,1.817325,-0.49850500000000003,0.46185299999999996,-0.422501
734,7.34,-0.390016,1.9636619999999998,2.226391,-0.29823299999999997,0.489548,-0.49067700000000003
735,7.35,-0.55018,1.037864,1.93193,-0.144836,0.5396270000000001,-0.5269010000000001
736,7.36,-0.8460219999999999,-0.262571,1.472767,-0.008484000000000005,0.557739,-0.543945
737,7.37,-1.098084,-1.6781230000000005,0.978508,0.07034299999999999,0.56839,-0.532227
738,7.38,-1.391119,-2.96541,0.5949909999999999,0.082062,0.571579,-0.5056
739,7.39,-1.706532,-3.783446,0.21873,0.025604,0.583298,-0.47363299999999997
740,7.4,-1.9930889999999999,-4.274754,-0.08558300000000002,-0.050033999999999995,0.603546,-0.41824300000000003
741,7.41,-2.069401,-4.453771,-0.438968,-0.136322,0.6322939999999999,-0.355392
742,7.42,-2.128745,-4.221634,-0.6998449999999999,-0.214081,0.665329,-0.298935
743,7.43,-2.1155009999999996,-3.7502989999999996,-0.9823049999999999,-0.280121,0.699417,-0.24780300000000002
744,7.44,-1.953993,-3.1522259999999998,-1.172035,-0.339783,0.729233,-0.195602
745,7.45,-1.791952,-2.590143,-1.168831,-0.382385,0.747345,-0.131683
746,7.46,-1.473868,-2.0414470000000002,-1.093868,-0.403702,0.7612,-0.061386
747,7.47,-1.3785,-1.707544,-0.947308,-0.401566,0.7612,0.004669000000000003
748,7.48,-1.312017,-1.5522129999999998,-0.7911729999999999,-0.37600700000000004,0.769714,0.066452
749,7.49,-1.514569,-1.541844,-0.8594620000000001,-0.326996,0.769714,0.115448
750,7.5,-1.902653,-1.6977209999999998,-1.10265,-0.26414499999999996,0.7729189999999999,0.160187
751,7.51,-2.2311229999999997,-1.763938,-1.4197520000000001,-0.194901,0.764389,0.196411
752,7.52,-2.47605,-1.769907,-1.673884,-0.129929,0.750549,0.239029
753,7.53,-2.402344,-1.513841,-1.6330069999999999,-0.074524,0.7217859999999999,0.27737399999999995
754,7.54,-1.964148,-0.898351,-1.589801,-0.027663999999999998,0.6781010000000001,0.319977
755,7.55,-1.387791,0.10740300000000004,-1.7481229999999999,0.012816999999999999,0.6269680000000001,0.355133
756,7.56,-0.6331439999999999,1.0639040000000002,-2.0005580000000003,0.04158,0.540695,0.378571
757,7.57,-0.09144,1.860359,-2.081754,0.06288099999999999,0.44161999999999996,0.399872
758,7.58,0.288611,2.43519,-1.797677,0.069275,0.388351,0.42758199999999996
759,7.59,0.03775499999999998,2.783689,-1.106316,0.051163,0.387283,0.432907
760,7.6,-1.136929,2.945112,-0.4561420000000001,0.025604000000000002,0.43096899999999994,0.389221
761,7.61,-2.5476970000000003,3.349567,-0.411261,0.031998,0.48635900000000004,0.29441799999999996
762,7.62,-3.420325,3.779901,-1.359595,0.092712,0.515121,0.171906
763,7.63,-3.170769,3.9242120000000003,-2.302149,0.221619,0.45440699999999995,0.055800999999999996
764,7.64,-2.6204970000000003,3.7865019999999996,-2.234009,0.318558,0.374512,-0.047531
765,7.65,-2.458375,3.112428,-0.8571219999999999,0.31961100000000003,0.315918,-0.139145
766,7.66,-2.4733169999999998,2.26361,1.021092,0.23759499999999997,0.288223,-0.168976
767,7.67,-3.0777080000000003,1.8509419999999999,2.664656,0.12573199999999998,0.290344,-0.153
768,7.68,-2.556899,1.56555,3.996198,0.040512,0.310593,-0.131683
769,7.69,-1.433389,1.3027309999999999,4.818566000000001,-0.019135,0.384094,-0.168976
770,7.7,-0.832943,1.311132,4.951238,-0.012741000000000002,0.501266,-0.222244
771,7.71,-1.9115220000000002,1.74522,4.3380529999999995,0.09059099999999999,0.740952,-0.275497
772,7.72,-3.040693,1.899468,3.8792449999999996,0.198181,1.0243229999999999,-0.310654
773,7.73,-2.8323810000000003,1.710132,3.250706,0.22906500000000002,1.2821040000000001,-0.30532800000000004
774,7.74,-1.8447669999999998,1.658564,2.420436,0.2099,1.4142,-0.24780300000000002
775,7.75,-1.5208840000000001,1.370816,1.931977,0.22906500000000002,1.447235,-0.153
776,7.76,-1.5567360000000001,0.741075,1.610035,0.300446,1.497299,-0.015578999999999982
777,7.77,-1.8020909999999999,0.547275,1.426782,0.368622,1.561218,0.14314300000000002
778,7.78,-1.914914,0.535778,1.165592,0.427216,1.6080780000000001,0.32104499999999997
779,7.79,-2.261664,0.483637,0.894012,0.47300699999999996,1.635773,0.493622
780,7.8,-1.825466,-0.277965,0.790514,0.49325600000000003,1.682648,0.659805
781,7.81,-1.043081,-1.43798,0.61647,0.47514300000000004,1.741241,0.770584
782,7.82,-0.36878099999999997,-2.5681279999999997,0.451533,0.387787,1.812607,0.8078770000000001
783,7.83,-0.14421199999999998,-3.6076,0.38826700000000003,0.23759499999999997,1.8744049999999999,0.783371
784,7.84,-0.158718,-4.378774,0.411988,0.077805,1.938309,0.731171
785,7.85,-0.22630300000000003,-4.771512,0.690909,-0.050033999999999995,1.984116,0.681107
786,7.86,-0.328452,-4.623428,0.8780209999999999,-0.11288499999999999,2.02034,0.620392
787,7.87,-0.44653100000000007,-4.057539,0.9150520000000001,-0.120331,2.038452,0.568192
788,7.88,-0.588687,-3.444436,0.8365090000000001,-0.07559199999999999,2.042709,0.521317
789,7.89,-0.313119,-2.7312939999999997,0.430725,-0.034058,2.035248,0.543686
790,7.9,0.42640100000000003,-1.855366,0.010691000000000006,-0.044708,1.9862520000000001,0.538361
791,7.91,0.9064530000000001,-1.392741,-0.240247,-0.055359000000000005,1.9202119999999998,0.501083
792,7.92,1.517986,-1.126052,-0.531813,-0.072403,1.861618,0.463791
793,7.93,2.096834,-0.783103,-0.672063,-0.10328699999999999,1.781723,0.406265
794,7.94,2.466134,-0.6386149999999999,-0.7510560000000001,-0.10435499999999999,1.6762540000000001,0.343414
795,7.95,2.634996,-0.540035,-0.897488,-0.072403,1.5495,0.278442
796,7.96,2.519269,-0.484537,-1.127448,-0.010619999999999996,1.419525,0.20813
797,7.97,2.1852270000000003,-0.611938,-1.442127,0.05755600000000001,1.3076780000000001,0.168716
798,7.98,1.7238830000000003,-0.9398709999999999,-1.6027639999999999,0.09378099999999999,1.203278,0.132492
799,7.99,1.230212,-1.204049,-1.7119520000000001,0.107635,1.116989,0.102676
800,8.0,0.506776,-1.2815379999999998,-1.791452,0.114014,1.050949,0.07070900000000001
801,8.01,-0.20567899999999995,-0.957309,-2.015658,0.121475,1.015793,0.033431999999999996
802,8.02,-0.8489270000000001,-0.658037,-2.266916,0.11615,1.018997,0.015319999999999999
803,8.03,-0.683901,-0.385954,-2.347769,0.100174,0.99556,-0.0027919999999999998
804,8.04,-0.542198,-0.09323800000000003,-2.321487,0.07034299999999999,0.940155,-0.044342
805,8.05,-0.41772,0.5276350000000001,-2.1808799999999997,0.009627999999999998,0.8847659999999999,-0.061386
806,8.06,-0.469081,1.2464870000000001,-2.279259,-0.061752,0.8847659999999999,-0.064575
807,8.07,-0.294187,1.913114,-2.15922,-0.125671,0.9028780000000001,-0.072037
808,8.08,0.05574300000000002,2.521003,-1.7791270000000001,-0.150162,0.880508,-0.07310499999999999
809,8.09,0.68071,2.830469,-1.2801790000000002,-0.12353499999999999,0.821915,-0.060318
810,8.1,1.1411200000000001,3.22838,-0.936133,-0.01806600000000001,0.748413,-0.039017
811,8.11,1.277023,3.566489,-1.131457,0.126801,0.698349,-0.010254000000000001
812,8.12,1.0232450000000002,3.4714139999999998,-1.490464,0.281265,0.690887,0.005736999999999999
813,8.13,-0.227507,3.200393,-1.188796,0.373947,0.701538,0.013184
814,8.14,-1.172029,3.378182,-0.371736,0.36116,0.7675930000000001,0.02597
815,8.15,-1.8194849999999998,4.1490029999999996,1.079019,0.280197,0.8261719999999999,0.046204
816,8.16,-1.2394969999999998,5.007244999999999,2.4008119999999997,0.22480799999999998,0.801682,0.129303
817,8.17,-0.279543,4.685677,3.490417,0.23759499999999997,0.738831,0.237961
818,8.18,0.539072,3.267776,4.051247,0.330276,0.662125,0.362595
819,8.19,0.264271,1.057324,4.173577,0.46449300000000004,0.62059,0.421188
820,8.2,-0.241833,-1.001018,3.223029,0.567825,0.618454,0.454208
821,8.21,-0.8283780000000001,-2.185107,1.899903,0.530533,0.6216430000000001,0.46060200000000007
822,8.22,-1.3469280000000001,-2.218051,1.26853,0.352646,0.646149,0.43183900000000003
823,8.23,-1.42565,-1.0617,0.9081319999999999,0.120407,0.658936,0.34129299999999996
824,8.24,-1.220222,0.641275,0.44550200000000006,-0.091568,0.644012,0.17511
825,8.25,-1.320311,1.886377,0.471753,-0.253494,0.608871,-0.062454
826,8.26,-1.445068,2.237884,0.635888,-0.318481,0.569443,-0.331955
827,8.27,-0.735987,2.176664,0.659065,-0.31955,0.49594099999999997,-0.568451
828,8.28,-0.08774599999999999,1.691414,0.7674380000000001,-0.292908,0.38302600000000003,-0.7399600000000001
829,8.29,0.62437,0.9926719999999999,0.8548040000000001,-0.23858600000000002,0.280762,-0.821976
830,8.3,0.9199790000000001,0.287837,0.770961,-0.177856,0.199799,-0.8582
831,8.31,0.939576,-0.7083229999999999,0.45079300000000005,-0.126724,0.14440899999999998,-0.848618
832,8.32,0.7961060000000001,-2.17253,0.323662,-0.092636,0.077301,-0.7921600000000001
833,8.33,0.45346800000000004,-3.4863,0.31552399999999997,-0.080917,0.009125,-0.735687
834,8.34,-0.252338,-4.2874099999999995,0.247569,-0.09584,-0.065445,-0.685623
835,8.35,-1.6434369999999998,-4.715101,0.018143999999999997,-0.162949,-0.128296,-0.601471
836,8.36,-2.1251849999999997,-4.672874,-0.266079,-0.210892,-0.129364,-0.542877
837,8.37,-2.575514,-4.232545,-0.576749,-0.249237,-0.111252,-0.501343
838,8.38,-2.74209,-3.579969,-0.9125139999999999,-0.276932,-0.07823200000000001,-0.471512
839,8.39,-2.660947,-2.803522,-1.199043,-0.300369,-0.042007,-0.44061300000000003
840,8.4,-2.171066,-2.0923119999999997,-1.342684,-0.32806399999999997,0.001663000000000001,-0.39801
841,8.41,-1.704041,-1.684021,-1.37576,-0.34829699999999997,0.035751,-0.35220300000000004
842,8.42,-1.362256,-1.49615,-1.328918,-0.350433,0.054932,-0.302139
843,8.43,-1.19541,-1.3485719999999999,-1.459519,-0.331253,0.07304400000000001,-0.240341
844,8.44,-1.19949,-1.365648,-1.650002,-0.306763,0.087952,-0.17643699999999998
845,8.45,-1.444123,-1.3857190000000001,-1.80703,-0.28225700000000004,0.086884,-0.11145
846,8.46,-1.7128349999999999,-1.4058700000000002,-1.9299080000000002,-0.24498000000000003,0.061325,-0.05285599999999999
847,8.47,-1.8958509999999997,-1.265145,-2.030602,-0.186386,0.033615,0.004669
848,8.48,-1.6784299999999999,-0.879921,-2.083759,-0.10968,-0.0015259999999999994,0.055800999999999996
849,8.49,-1.3369659999999999,-0.280267,-2.168733,-0.018066,-0.051605,0.099472
850,8.5,-0.8920020000000001,0.44943900000000003,-2.324951,0.078873,-0.105927,0.14421099999999998
851,8.51,-0.252753,1.0918,-2.544892,0.14491300000000001,-0.18689,0.182556
852,8.52,0.197677,1.6754529999999999,-2.686055,0.169418,-0.266785,0.213455
853,8.53,0.558515,2.0350349999999997,-2.65712,0.151306,-0.318985,0.243286
854,8.54,0.291166,2.267241,-2.0576220000000003,0.092712,-0.288086,0.259262
855,8.55,-1.031366,2.70923,-1.439775,0.016022,-0.183685,0.21559099999999998
856,8.56,-2.212825,3.150546,-1.168866,-0.02446,-0.072906,0.126099
857,8.57,-3.49209,3.863182,-1.517688,0.027740000000000004,-0.007919000000000002,-0.010254000000000001
858,8.58,-3.9586629999999996,4.323925,-2.269012,0.154495,0.0037990000000000003,-0.15618900000000002
859,8.59,-3.6494459999999997,4.386871,-2.237159,0.23120100000000002,-0.023895,-0.268036
860,8.6,-2.6248009999999997,4.039909,-1.136819,0.186462,-0.049469,-0.35220300000000004
861,8.61,-2.1380619999999997,3.341995,0.882977,0.061829,-0.053725999999999996,-0.37350500000000003
862,8.62,-2.916486,3.168111,2.739286,-0.045776,-0.030289,-0.341553
863,8.63,-2.122594,2.762489,3.891751,-0.042572000000000006,-0.06012000000000001,-0.280823
864,8.64,-1.002082,1.73679,5.009257,0.023468,-0.03775,-0.274429
865,8.65,0.07764300000000003,0.85172,5.395884,0.098038,0.092209,-0.289352
866,8.66,-0.227093,0.670981,4.909495,0.161957,0.316986,-0.374573
867,8.67,-0.9299200000000001,0.733463,4.073915,0.20883200000000002,0.590759,-0.46086099999999997
868,8.68,-1.4321110000000001,0.781122,3.053771,0.196045,0.833633,-0.503464
869,8.69,-0.911911,1.159382,1.7880669999999999,0.11615,0.97319,-0.468307
870,8.7,-0.6944520000000001,1.45555,1.286294,0.047974,1.00621,-0.383087
871,8.71,-0.672239,1.381122,1.3483969999999998,0.06715399999999999,1.0317690000000002,-0.263779
872,8.72,-0.457529,1.0592549999999998,1.403263,0.139587,1.037094,-0.1008
873,8.73,-0.47283800000000004,0.93334,1.256586,0.23652600000000001,1.017929,0.09628300000000001
874,8.74,-0.45846000000000003,0.6264109999999999,0.8528709999999999,0.326004,1.0072780000000001,0.323181
875,8.75,-0.637242,0.213942,0.501003,0.384598,1.017929,0.530899
876,8.76,-0.34020700000000004,-0.792737,0.250853,0.399506,1.04776,0.710938
877,8.77,-0.02160999999999999,-1.8936419999999998,0.046073,0.33665500000000004,1.089294,0.825989
878,8.78,0.028718,-3.2365209999999998,0.027500999999999998,0.219482,1.1297760000000001,0.868591
879,8.79,-0.049878000000000006,-4.346643,0.049071,0.082062,1.167068,0.859009
880,8.8,-0.16614,-5.0545919999999995,0.089581,-0.051102,1.1958309999999999,0.818527
881,8.81,-0.136548,-5.222912,0.153998,-0.152298,1.224594,0.757812
882,8.82,-0.19251300000000002,-5.088995,0.09353,-0.191711,1.245895,0.6864319999999999
883,8.83,-0.127477,-4.501464,-0.12023800000000001,-0.213013,1.266129,0.6353
884,8.84,0.097925,-3.7059309999999996,-0.273597,-0.22261,1.276779,0.603348
885,8.85,0.697704,-2.982195,-0.399361,-0.20343,1.267197,0.573517
886,8.86,1.3255370000000002,-2.394689,-0.5344140000000001,-0.178925,1.243759,0.5149229999999999
887,8.87,1.9422259999999998,-1.860866,-0.683883,-0.167206,1.20755,0.44781499999999996
888,8.88,2.436583,-1.5489110000000001,-0.827501,-0.17466700000000002,1.157471,0.36473099999999997
889,8.89,2.71611,-1.243839,-1.0246899999999999,-0.195969,1.089294,0.264587
890,8.9,2.7929,-1.117941,-1.261606,-0.191711,1.0083469999999999,0.176178
891,8.91,2.866307,-1.209091,-1.5404209999999998,-0.176804,0.907135,0.11651600000000001
892,8.92,2.829992,-1.496847,-1.7308130000000002,-0.157623,0.798477,0.071777
893,8.93,2.58584,-1.700562,-1.8987619999999998,-0.142715,0.680237,0.039825
894,8.94,1.8918169999999999,-1.794589,-2.05145,-0.137375,0.585434,0.017440999999999998
895,8.95,1.219169,-1.602366,-2.2560279999999997,-0.13311800000000001,0.525772,-0.0017239999999999998
896,8.96,0.606462,-1.190321,-2.198719,-0.126724,0.47463999999999995,-0.030487
897,8.97,0.101898,-0.494591,-2.234003,-0.113953,0.459732,-0.05285599999999999
898,8.98,-0.047579,0.4186190000000001,-2.288295,-0.10116599999999999,0.46398900000000004,-0.058182000000000005
899,8.99,-0.085086,1.3639139999999998,-2.194791,-0.087311,0.48849499999999996,-0.061386
900,9.0,-0.242466,2.030467,-1.799877,-0.059615999999999995,0.512985,-0.09440599999999999
901,9.01,-0.780574,2.443213,-1.37515,-0.031921,0.541748,-0.16684000000000002
902,9.02,-0.6122529999999999,2.9107990000000004,-1.3249799999999998,-0.017013999999999998,0.557739,-0.19880699999999998
903,9.03,0.117307,3.201987,-1.3231600000000001,0.003235,0.534302,-0.174301
904,9.04,1.167296,3.330541,-1.168981,0.040512,0.47357200000000005,-0.116776
905,9.05,1.9939069999999999,3.5893059999999997,-1.241255,0.110825,0.418182,-0.051788
906,9.06,2.297001,3.9446480000000004,-1.522705,0.221619,0.38302600000000003,0.012115
907,9.07,1.9309560000000001,3.780412,-1.7577060000000002,0.384598,0.39260900000000004,0.041946
908,9.08,0.9291510000000001,3.1645220000000003,-1.404427,0.495392,0.42244,0.040878
909,9.09,0.11777300000000003,2.708697,-0.15258300000000002,0.49111899999999997,0.469315,0.052597000000000005
910,9.1,-0.5823699999999999,2.990565,1.440354,0.379272,0.47463999999999995,0.086685
911,9.11,1.408406,3.078847,2.6784830000000004,0.252502,0.36491399999999996,0.21559099999999998
912,9.12,2.128,2.281766,3.991796,0.180069,0.16145299999999999,0.351944
913,9.13,1.6471770000000001,1.130498,4.431376,0.17686500000000002,-0.022841999999999998,0.5074770000000001
914,9.14,0.6071740000000001,0.10754600000000004,4.208883,0.274872,-0.119781,0.615067
915,9.15,0.29855,-0.376854,2.8251880000000003,0.43573,-0.162384,0.664062
916,9.16,0.26523,-0.690413,1.638714,0.507111,-0.23802199999999998,0.643829
917,9.17,-0.4658439999999999,-0.45964099999999997,1.3638219999999999,0.409103,-0.31366,0.539429
918,9.18,-1.4465379999999999,0.6337109999999999,1.30435,0.22480799999999998,-0.27529899999999996,0.41586300000000004
919,9.19,-1.431252,1.8413099999999998,1.300776,0.059692,-0.210327,0.244354
920,9.2,-1.568889,2.770659,1.1920629999999999,-0.045776,-0.176239,0.023833999999999998
921,9.21,-1.2550459999999999,3.2126740000000003,1.080873,-0.071335,-0.165588,-0.209457
922,9.22,-0.380135,3.186912,1.017241,-0.040436,-0.179428,-0.432098
923,9.23,0.479429,2.7431330000000003,1.03011,0.008559999999999998,-0.216721,-0.637695
924,9.24,0.9563299999999999,1.78903,0.930615,0.059692,-0.259323,-0.803879
925,9.25,1.040568,0.4588749999999999,0.875484,0.10975599999999999,-0.32324200000000003,-0.880569
926,9.26,1.015984,-1.1592049999999998,0.530091,0.147049,-0.37756300000000004,-0.8858950000000001
927,9.27,0.8619399999999999,-2.808687,0.218344,0.147049,-0.43615699999999996,-0.8294370000000001
928,9.28,0.538944,-4.185854,-0.038235000000000005,0.101242,-0.494751,-0.761261
929,9.29,0.016020000000000006,-5.0870370000000005,-0.147117,0.027740000000000008,-0.554398,-0.694153
930,9.3,-0.243783,-5.3953,-0.218292,-0.041504,-0.60553,-0.622772
931,9.31,-0.601689,-5.280233,-0.312299,-0.09690900000000001,-0.649216,-0.589752
932,9.32,-1.017093,-4.955776,-0.401622,-0.137375,-0.6662600000000001,-0.575897
933,9.33,-1.333574,-4.443434,-0.553534,-0.15975999999999999,-0.656662,-0.554596
934,9.34,-1.6361290000000002,-3.896091,-0.724306,-0.18318199999999998,-0.618317,-0.529037
935,9.35,-1.6732759999999998,-3.393913,-0.9180450000000001,-0.206619,-0.566116,-0.489624
936,9.36,-1.603063,-2.954055,-0.966403,-0.24498000000000003,-0.513931,-0.42782600000000004
937,9.37,-1.41219,-2.710867,-0.932027,-0.283325,-0.468124,-0.350067
938,9.38,-1.364611,-2.589986,-0.8602989999999999,-0.296112,-0.42550699999999997,-0.268036
939,9.39,-1.529591,-2.6061349999999996,-0.916927,-0.297165,-0.37544299999999997,-0.183884
940,9.4,-1.789036,-2.712495,-1.066912,-0.293976,-0.32324200000000003,-0.102921
941,9.41,-2.018443,-2.687814,-1.335608,-0.29078699999999996,-0.30194099999999996,-0.026230000000000003
942,9.42,-2.015191,-2.456032,-1.4957639999999999,-0.28118899999999997,-0.325378,0.039825
943,9.43,-1.802112,-1.8414419999999998,-1.427209,-0.25563,-0.362656,0.08989
944,9.44,-1.324756,-0.8469479999999999,-1.3404790000000002,-0.224731,-0.388229,0.14314300000000002
945,9.45,-0.501216,0.3938080000000001,-1.415598,-0.18318199999999998,-0.419113,0.187897
946,9.46,0.07214600000000003,1.8155830000000002,-1.6892,-0.12886,-0.47345,0.224106
947,9.47,0.43932,2.9352139999999998,-1.9179849999999998,-0.06601,-0.512863,0.246475
948,9.48,0.582915,3.612864,-1.64211,0.010696000000000004,-0.5000760000000001,0.256073
949,9.49,0.06725599999999997,3.851597,-1.252168,0.0746,-0.419113,0.221985
950,9.5,-1.133574,3.876384,-1.088354,0.08845499999999999,-0.279572,0.10693399999999999
951,9.51,-2.276669,3.572518,-1.0682049999999998,0.098038,-0.148544,-0.03901700000000001
952,9.52,-3.2967739999999996,3.3067660000000005,-1.4743030000000001,0.155563,-0.048401,-0.158325
953,9.53,-3.4301489999999997,3.2491,-2.275758,0.249313,-0.032425,-0.250992
954,9.54,-2.858188,3.139868,-2.420626,0.292984,-0.092072,-0.307465
955,9.55,-2.018749,3.0206459999999997,-1.5216129999999999,0.24610900000000002,-0.15173299999999998,-0.346878
956,9.56,-1.5277100000000001,2.935192,0.6043189999999999,0.092712,-0.171967,-0.357529
957,9.57,-1.4874100000000001,3.7660980000000004,2.4876560000000003,-0.09690900000000001,-0.142151,-0.344742
958,9.58,-1.184942,4.033617,4.3072989999999995,-0.20982399999999998,-0.073975,-0.344742
959,9.59,0.031486000000000014,3.6754910000000005,5.53199,-0.195969,-0.003661999999999999,-0.386292
960,9.6,1.129602,2.767096,5.446496,-0.06919899999999997,0.065582,-0.470444
961,9.61,0.670198,1.457408,4.711847,0.132126,0.190216,-0.5620569999999999
962,9.62,-0.035777999999999976,0.49591499999999994,3.4466360000000003,0.311096,0.416046,-0.5716399999999999
963,9.63,0.042925999999999985,0.111687,2.1139930000000002,0.363297,0.564117,-0.502396
964,9.64,0.099364,0.236857,1.2787899999999999,0.290848,0.586487,-0.391617
965,9.65,0.082621,0.5567,1.2614809999999999,0.185394,0.614197,-0.26059
966,9.66,0.235355,0.892383,1.152694,0.107635,0.6408229999999999,-0.12423699999999999
967,9.67,0.374862,1.288733,1.053181,0.086319,0.60141,0.014252
968,9.68,0.170244,1.5801530000000001,0.898226,0.128937,0.566254,0.184692
969,9.69,0.321936,1.422242,0.78992,0.2099,0.56839,0.377502
970,9.7,0.47051000000000004,0.893022,0.682198,0.273804,0.572647,0.5479430000000001
971,9.71,0.862042,-0.257882,0.47917299999999996,0.304703,0.579041,0.669388
972,9.72,0.831787,-1.458226,0.185437,0.286591,0.585434,0.736496
973,9.73,0.819601,-2.6070349999999998,0.037502999999999995,0.22267199999999998,0.5939479999999999,0.76207
974,9.74,0.586845,-3.780593,0.021882,0.137451,0.600342,0.7397
975,9.75,0.24741799999999997,-4.63342,0.07283300000000001,0.05011,0.617386,0.692825
976,9.76,0.18835,-5.258489,0.124118,-0.027663999999999998,0.6397550000000001,0.644882
977,9.77,0.028778999999999968,-5.276669,0.04166,-0.083054,0.65361,0.589493
978,9.78,-0.166299,-4.870068,-0.198749,-0.116074,0.6844939999999999,0.563934
979,9.79,0.055552999999999984,-4.188578,-0.47568,-0.148041,0.705811,0.562866
980,9.8,0.450405,-3.419457,-0.6402720000000001,-0.157623,0.706863,0.557541
981,9.81,0.949557,-2.6818459999999997,-0.61254,-0.148041,0.707932,0.530899
982,9.82,1.337683,-2.242266,-0.640975,-0.148041,0.696213,0.472321
983,9.83,1.455953,-1.864539,-0.768466,-0.164017,0.685562,0.406265
984,9.84,1.666784,-1.62428,-0.8403889999999999,-0.210892,0.661057,0.33915700000000004
985,9.85,1.7439040000000001,-1.595305,-0.973341,-0.243912,0.6216430000000001,0.261398
986,9.86,1.823103,-1.661345,-1.1407049999999999,-0.25669899999999995,0.556671,0.19108599999999998
987,9.87,2.068757,-1.821741,-1.2839200000000002,-0.25135799999999997,0.479965,0.129303
988,9.88,2.332906,-2.009882,-1.455523,-0.240707,0.40007,0.087753
989,9.89,2.3713740000000003,-2.0638549999999998,-1.661462,-0.234314,0.343613,0.063248
990,9.9,2.31983,-1.767553,-1.8859970000000001,-0.231125,0.305267,0.052597000000000005
991,9.91,1.880944,-1.123151,-2.063704,-0.227936,0.283966,0.034485
992,9.92,1.266174,-0.267199,-2.0553150000000002,-0.211945,0.28929099999999996,0.011063
993,9.93,0.7176400000000001,0.6579510000000001,-2.0269310000000003,-0.181061,0.318054,-0.029419
994,9.94,0.092808,1.4744959999999998,-1.8966990000000001,-0.13525399999999999,0.374512,-0.064575
995,9.95,-0.41325600000000007,1.9987720000000002,-1.629348,-0.08519,0.426712,-0.112518
996,9.96,-0.757301,2.330641,-1.325868,-0.042572000000000006,0.45013400000000003,-0.164719
997,9.97,-0.662946,2.67346,-1.275554,-0.029785000000000002,0.43096899999999994,-0.196671
998,9.98,0.180219,3.1324560000000004,-1.374401,-0.022338999999999998,0.377701,-0.16151400000000002
999,9.99,1.348291,3.573774,-1.349823,-0.006348,0.30101,-0.077362
1000,10.0,2.2074439999999997,4.072944000000001,-1.439173,0.053299,0.264786,0.024902
1001,10.01,2.4928,4.45259,-1.706105,0.166214,0.270111,0.12290999999999999
1002,10.02,1.797728,4.061465,-1.9007740000000002,0.31749,0.315918,0.167648
1003,10.03,0.490475,3.229021,-1.591223,0.43040500000000004,0.385162,0.162323
1004,10.04,0.158147,2.414802,-0.490469,0.43573,0.44375600000000004,0.151672
1005,10.05,0.078925,2.173926,1.6063290000000001,0.338791,0.446945,0.139954
1006,10.06,1.342839,2.352502,2.736031,0.24504099999999998,0.428833,0.20280499999999999
1007,10.07,2.169896,1.834182,3.94325,0.203506,0.291412,0.2827
1008,10.08,1.8793220000000002,1.056142,4.47716,0.203506,0.126297,0.395615
1009,10.09,1.2491219999999998,0.502833,4.418616,0.265289,-0.028168000000000002,0.503204
1010,10.1,1.39724,0.40066799999999997,3.170598,0.389923,-0.144272,0.575653
1011,10.11,1.515811,0.37302399999999997,2.081722,0.448517,-0.28169299999999997,0.600143
1012,10.12,0.4539179999999999,0.226202,1.805448,0.346252,-0.380768,0.551147
1013,10.13,-0.686186,0.827744,1.7533560000000001,0.170486,-0.381836,0.463791
1014,10.14,-0.609851,1.7210729999999999,1.521226,0.025604,-0.365845,0.314651
1015,10.15,-0.566144,2.576046,1.216422,-0.064941,-0.38716100000000003,0.103729
1016,10.16,-0.009890000000000064,3.220109,1.061346,-0.09690900000000001,-0.401001,-0.122101
1017,10.17,0.8372219999999999,3.4394949999999995,0.958809,-0.068146,-0.408463,-0.377762
1018,10.18,1.247524,2.864779,1.094863,-0.008483999999999998,-0.430832,-0.637695
1019,10.19,1.323909,1.6693580000000001,1.124602,0.06288099999999999,-0.46385200000000004,-0.845413
1020,10.2,0.9704659999999999,0.211419,0.865734,0.10975599999999999,-0.519257,-0.955139
1021,10.21,0.413563,-1.481219,0.465408,0.111893,-0.568253,-0.957275
1022,10.22,-0.236033,-3.110378,0.09410200000000002,0.059691999999999995,-0.61087,-0.8880309999999999
1023,10.23,-0.433521,-4.488532,0.022603,-0.024460000000000003,-0.641754,-0.8028109999999999
1024,10.24,-0.752424,-5.254416,0.058832,-0.10755899999999999,-0.6673279999999999,-0.7218479999999999
1025,10.25,-0.8410280000000001,-5.479228,0.086998,-0.154419,-0.684372,-0.635559
1026,10.26,-0.9066850000000001,-5.193313,0.091251,-0.171463,-0.687561,-0.5748439999999999
1027,10.27,-1.0874489999999999,-4.732154,-0.10844900000000003,-0.158691,-0.684372,-0.548203
1028,10.28,-1.347931,-4.128556,-0.298481,-0.141647,-0.669449,-0.522644
1029,10.29,-1.379077,-3.4783510000000004,-0.555442,-0.15123,-0.650284,-0.48855600000000005
1030,10.3,-1.287616,-2.943088,-0.721271,-0.17999300000000001,-0.630035,-0.432098
1031,10.31,-0.974783,-2.601778,-0.824641,-0.214081,-0.6172489999999999,-0.369247
1032,10.32,-0.717951,-2.4510970000000003,-0.8831469999999999,-0.235382,-0.598083,-0.307465
1033,10.33,-0.680836,-2.3318119999999998,-0.9054479999999999,-0.23858600000000002,-0.570389,-0.242477
1034,10.34,-0.917761,-2.2506630000000003,-1.032116,-0.213013,-0.520309,-0.170044
1035,10.35,-1.261216,-2.271665,-1.208468,-0.172531,-0.47131300000000004,-0.093338
1036,10.36,-1.4147370000000001,-2.188875,-1.6504470000000002,-0.11181600000000001,-0.446808,0.0025330000000000005
1037,10.37,-1.478142,-2.088567,-1.677745,-0.07347100000000001,-0.468124,0.052597000000000005
1038,10.38,-1.400879,-1.5903530000000001,-1.562758,-0.036179,-0.47345,0.108002
1039,10.39,-1.089016,-0.5865640000000001,-1.50385,0.004303,-0.46917700000000007,0.151672
1040,10.4,-0.769315,0.685044,-1.819655,0.039458999999999994,-0.479828,0.16658
1041,10.41,-0.18127000000000001,1.8015189999999999,-2.174404,0.07034299999999999,-0.5160520000000001,0.16125499999999998
1042,10.42,0.368814,2.575669,-2.133818,0.100174,-0.5480189999999999,0.156998
1043,10.43,0.8162659999999999,2.799213,-1.670791,0.139587,-0.533096,0.178299
1044,10.44,0.625975,3.038971,-1.007123,0.152374,-0.439362,0.168716
1045,10.45,-0.32676000000000016,3.193969,-0.5024609999999999,0.145981,-0.31366,0.104797
1046,10.46,-1.516848,3.530936,-0.5433319999999999,0.17686500000000002,-0.215652,0.019577
1047,10.47,-2.707842,4.050084,-1.39195,0.272751,-0.154922,-0.1008
1048,10.48,-2.746458,3.9824629999999996,-2.557922,0.425079,-0.191147,-0.19453399999999998
1049,10.49,-2.089092,3.320782,-2.9290380000000003,0.575287,-0.279572,-0.221176
1050,10.5,-1.85726,2.287016,-1.8183800000000003,0.588058,-0.31045500000000004,-0.237152
1051,10.51,-1.4699360000000001,1.5321930000000001,0.138058,0.44212299999999993,-0.308334,-0.221176
1052,10.52,-2.177285,2.090334,2.145093,0.206696,-0.24334699999999998,-0.197739
1053,10.53,-1.351141,2.632464,3.394595,0.039459,-0.20606999999999998,-0.178558
1054,10.54,0.006541999999999937,2.376719,4.765916000000001,-0.019135,-0.165588,-0.189209
1055,10.55,1.5969280000000001,2.268773,5.56093,0.002166999999999999,-0.08248899999999999,-0.253128
1056,10.56,0.855499,2.020163,5.4172970000000005,0.099106,0.119904,-0.351135
1057,10.57,-0.5337300000000001,2.059085,4.386496,0.22055100000000002,0.466125,-0.43103
1058,10.58,-1.256867,2.232497,2.9464650000000003,0.270615,0.769714,-0.482162
1059,10.59,-1.243139,2.518046,1.97763,0.26103200000000004,0.883698,-0.45553599999999994
1060,10.6,-1.29539,2.447233,1.954015,0.270615,0.916733,-0.357529
1061,10.61,-1.1895639999999998,2.149565,2.131884,0.31961100000000003,0.938034,-0.21904
1062,10.62,-0.7199939999999999,1.8768220000000002,1.991695,0.419754,0.944427,-0.04007
1063,10.63,-0.450676,1.571754,1.532629,0.557175,0.916733,0.176178
1064,10.64,0.0056769999999999885,1.099687,1.0120850000000001,0.677551,0.8719790000000001,0.41586300000000004
1065,10.65,0.36871,0.29645600000000005,0.681643,0.7425229999999999,0.838959,0.637436
1066,10.66,1.028182,-0.801977,0.445704,0.754242,0.824051,0.799347
1067,10.67,1.500191,-1.898653,0.254815,0.693527,0.8400270000000001,0.889893
1068,10.68,1.719036,-2.986859,0.14171199999999998,0.580612,0.8634639999999999,0.8930969999999999
1069,10.69,1.525933,-4.1669220000000005,0.111659,0.42933699999999997,0.8943629999999999,0.833435
1070,10.7,1.0049190000000001,-5.026772,0.169527,0.270615,0.926315,0.7333069999999999
1071,10.71,0.603336,-5.47018,0.259189,0.14917,0.948685,0.616119
1072,10.72,0.40053,-5.5653,0.393463,0.072479,0.942291,0.505341
1073,10.73,-0.534237,-5.434268,0.22373400000000002,0.05223099999999999,0.946548,0.41905200000000004
1074,10.74,-0.542507,-5.0315900000000005,0.15651400000000001,0.05223099999999999,0.932709,0.41586300000000004
1075,10.75,-0.24123899999999998,-4.070389,-0.23848699999999998,0.077805,0.9103389999999999,0.43502799999999997
1076,10.76,0.483667,-3.306897,-0.28864,0.056503,0.8666530000000001,0.43502799999999997
1077,10.77,1.329502,-2.553537,-0.366669,0.045837,0.800613,0.41372700000000007
1078,10.78,2.0568310000000003,-1.9771150000000002,-0.33170900000000003,0.024536000000000002,0.7260439999999999,0.363663
1079,10.79,2.4811400000000003,-1.711777,-0.17832,0.012816999999999999,0.654678,0.2827
1080,10.8,2.8296040000000002,-1.648063,-0.237985,0.016022,0.572647,0.203873
1081,10.81,3.047111,-1.797389,-0.402643,0.028793,0.5023350000000001,0.128235
1082,10.82,3.114471,-2.0613770000000002,-0.728264,0.033066000000000005,0.411789,0.053665
1083,10.83,2.929935,-2.170744,-0.974571,0.021347,0.350006,-0.0017239999999999966
1084,10.84,2.457262,-1.982594,-1.324748,-0.007416000000000002,0.288223,-0.03688
1085,10.85,1.8716139999999999,-1.5878370000000002,-1.723325,-0.034058,0.24560500000000002,-0.053925
1086,10.86,1.166252,-0.921105,-1.765145,-0.050033999999999995,0.19660899999999998,-0.06564299999999999
1087,10.87,0.5253979999999999,-0.208359,-1.8853380000000002,-0.04364,0.18808,-0.080551
1088,10.88,0.151783,0.6847300000000001,-1.82116,-0.040436,0.20726,-0.088013
1089,10.89,-0.049089999999999995,1.533332,-1.912422,-0.018066,0.24453699999999998,-0.098663
1090,10.9,-0.41992700000000005,2.078481,-1.908956,-0.020203,0.29248,-0.134888
1091,10.91,-0.7638659999999999,2.656658,-1.803584,-0.055359000000000005,0.31910700000000003,-0.154053
1092,10.92,-0.6267739999999999,3.2081939999999998,-1.972186,-0.10328699999999999,0.358521,-0.139145
1093,10.93,-0.01283200000000001,3.578698,-1.907413,-0.144836,0.375565,-0.080551
1094,10.94,0.8596090000000001,3.637868,-1.605823,-0.13311800000000001,0.375565,-0.025162
1095,10.95,1.447928,3.752821,-1.533097,-0.059615999999999995,0.387283,0.013184
1096,10.96,1.40777,3.7280260000000003,-1.916104,0.068207,0.45333900000000005,0.031296
1097,10.97,1.211919,3.384146,-2.462875,0.206696,0.5470729999999999,0.004669
1098,10.98,1.008249,2.889534,-1.997959,0.241852,0.605667,-0.027298000000000003
1099,10.99,1.028018,2.816718,-0.4606479999999998,0.199249,0.636566,-0.049667
1100,11.0,0.7397199999999999,3.208542,1.335127,0.11615,0.636566,-0.0177
1101,11.01,1.825078,2.850835,2.641314,0.091644,0.5396270000000001,0.071777
1102,11.02,1.8645009999999997,1.9110080000000003,3.8806910000000006,0.13105799999999998,0.391556,0.151672
1103,11.03,1.029791,0.8594,4.409209,0.203506,0.250931,0.242218
1104,11.04,0.49171000000000004,0.27459,3.745721,0.330276,0.147598,0.327438
1105,11.05,0.8081659999999999,-0.274399,2.225561,0.44105500000000003,0.032562,0.393478
1106,11.06,0.864036,-0.46576000000000006,0.962686,0.42082200000000003,-0.108063,0.42758199999999996
1107,11.07,0.7355659999999999,-0.043545,0.07377099999999998,0.248245,-0.21351599999999998,0.3871
1108,11.08,0.5178659999999999,0.673585,-0.01973,0.01707500000000001,-0.289154,0.286957
1109,11.09,0.247583,1.466901,0.270027,-0.189575,-0.318985,0.14209000000000002
1110,11.1,0.227584,1.9727540000000001,0.380202,-0.300369,-0.295547,-0.033691000000000006
1111,11.11,0.534463,2.535009,0.296602,-0.301437,-0.26358000000000004,-0.240341
1112,11.12,0.9905219999999999,2.794953,0.348142,-0.223663,-0.262527,-0.469376
1113,11.13,0.940089,2.66466,0.5444479999999999,-0.115005,-0.307266,-0.68988
1114,11.14,0.49950200000000006,1.759325,0.779945,-0.007415999999999998,-0.382889,-0.8347629999999999
1115,11.15,-0.04064299999999999,0.586329,0.8735139999999999,0.084198,-0.490494,-0.8912200000000001
1116,11.16,-0.624311,-1.050437,0.803177,0.11615,-0.55867,-0.84967
1117,11.17,-0.709227,-2.6695740000000003,0.646753,0.075668,-0.6098020000000001,-0.7452850000000001
1118,11.18,-0.805454,-3.954447,0.551185,-0.020203,-0.6513369999999999,-0.634491
1119,11.19,-0.653994,-4.815983999999999,0.468768,-0.110748,-0.6790470000000001,-0.522644
1120,11.2,-0.2934610000000001,-5.163244000000001,0.37175,-0.166138,-0.7099300000000001,-0.432098
1121,11.21,-0.070105,-5.082978,0.289595,-0.18212899999999999,-0.731232,-0.402267
1122,11.22,-0.15408,-4.610767,-0.013883000000000006,-0.17466700000000002,-0.7546689999999999,-0.407593
1123,11.23,-0.494558,-3.9323330000000003,-0.251492,-0.17999300000000001,-0.7578739999999999,-0.407593
1124,11.24,-0.655354,-3.349854,-0.459413,-0.20343,-0.749344,-0.386292
1125,11.25,-0.8493280000000001,-3.097393,-0.548647,-0.23858600000000002,-0.735504,-0.36392199999999997
1126,11.26,-0.903445,-2.9721740000000003,-0.573975,-0.284393,-0.7099300000000001,-0.327698
1127,11.27,-1.0769229999999999,-2.910557,-0.521045,-0.322739,-0.673706,-0.27975500000000003
1128,11.28,-1.465681,-2.7284330000000003,-0.517355,-0.340851,-0.626846,-0.21904
1129,11.29,-1.98701,-2.56471,-0.583589,-0.326996,-0.578903,-0.15193199999999998
1130,11.3,-2.263512,-2.363838,-0.936649,-0.286514,-0.543747,-0.06138600000000001
1131,11.31,-2.223441,-2.20897,-1.282875,-0.23219299999999998,-0.533096,0.036621
1132,11.32,-1.962193,-2.074392,-1.47118,-0.177856,-0.5469510000000001,0.12397799999999999
1133,11.33,-1.640681,-1.648079,-1.362456,-0.129929,-0.551208,0.19961500000000001
1134,11.34,-1.019592,-0.8232149999999999,-1.390707,-0.097961,-0.563995,0.24861100000000003
1135,11.35,-0.21313200000000002,0.139247,-1.5556590000000001,-0.100098,-0.612991,0.28376799999999996
1136,11.36,0.6515569999999999,0.9857530000000001,-1.785134,-0.110748,-0.687561,0.31359899999999996
1137,11.37,1.593158,1.3803159999999999,-1.710621,-0.126724,-0.748276,0.33064299999999996
1138,11.38,2.033348,1.596668,-1.129286,-0.154419,-0.7546689999999999,0.323181
1139,11.39,1.768216,1.9906439999999999,-0.389966,-0.20982399999999998,-0.681168,0.264587
1140,11.4,0.553846,2.207039,0.228571,-0.228989,-0.588486,0.182556
1141,11.41,-0.633178,3.063572,-0.21859200000000004,-0.176804,-0.50647,0.06752000000000001
1142,11.42,-1.8244650000000002,3.8552190000000004,-1.471478,-0.068146,-0.47663900000000003,-0.085876
1143,11.43,-1.812316,4.023161,-2.697143,0.0746,-0.542679,-0.21052600000000002
1144,11.44,-1.384074,3.833074,-2.944153,0.192856,-0.648148,-0.28828400000000004
1145,11.45,-0.9044770000000001,3.396935,-2.217791,0.203506,-0.701416,-0.347931
1146,11.46,-0.88815,2.743521,-0.615571,0.095917,-0.69075,-0.375641
1147,11.47,-2.0531580000000003,2.998201,2.156898,-0.204498,-0.579971,-0.336227
1148,11.48,-2.053003,3.091829,3.530299,-0.332321,-0.530975,-0.311722
1149,11.49,-0.6326120000000001,2.923823,4.687219,-0.34936500000000004,-0.49581899999999995,-0.30426
1150,11.5,0.49626000000000003,2.5349009999999996,5.056017,-0.249237,-0.413788,-0.364975
1151,11.51,-0.29996300000000004,1.7065689999999998,4.747858,-0.070267,-0.215652,-0.459793
1152,11.52,-1.168025,1.031301,3.386397,0.08313,0.08581500000000003,-0.504532
1153,11.53,-1.1492,0.8387889999999999,1.8414419999999998,0.107635,0.310593,-0.480026
1154,11.54,-1.1784780000000001,1.026665,1.244907,0.012816999999999995,0.388351,-0.405457
1155,11.55,-1.266319,1.275747,1.227496,-0.09477200000000001,0.44375600000000004,-0.27124000000000004
1156,11.56,-1.281144,1.568862,1.3827399999999999,-0.176804,0.46398900000000004,-0.114639
1157,11.57,-0.848259,1.7347759999999999,1.239747,-0.175735,0.45546000000000003,0.06005899999999999
1158,11.58,-0.767699,1.9282869999999999,1.095665,-0.09477200000000001,0.470383,0.243286
1159,11.59,-0.44680699999999995,1.8237900000000002,0.933622,0.027739999999999997,0.521515,0.423309
1160,11.6,0.215527,1.301643,0.58125,0.138519,0.569443,0.576706
1161,11.61,0.80403,0.3603529999999999,0.29733000000000004,0.194977,0.5971529999999999,0.697083
1162,11.62,1.5782370000000001,-0.808345,0.142175,0.175812,0.6216430000000001,0.768463
1163,11.63,1.75961,-2.081032,0.085136,0.110825,0.63443,0.75354
1164,11.64,1.42675,-3.377207,-0.05157899999999999,0.040512,0.622711,0.693893
1165,11.65,1.111675,-4.365912000000001,-0.16877799999999998,-0.014877000000000001,0.609924,0.631042
1166,11.66,0.7462270000000001,-4.940099,-0.261712,-0.045776,0.586487,0.574585
1167,11.67,0.280704,-5.193352,-0.386966,-0.060684,0.572647,0.542618
1168,11.68,0.018897,-5.008348000000001,-0.716275,-0.069199,0.572647,0.54689
1169,11.69,0.102052,-4.347914,-0.9347190000000001,-0.083054,0.556671,0.572449
1170,11.7,0.5977060000000001,-3.549063,-1.192696,-0.100098,0.527908,0.573517
1171,11.71,1.0756,-2.735757,-1.3395059999999999,-0.11714200000000001,0.492752,0.545822
1172,11.72,1.5306819999999999,-2.234407,-1.4267100000000001,-0.16508499999999998,0.47357200000000005,0.479767
1173,11.73,1.9681,-1.965888,-1.275807,-0.230057,0.456528,0.40094
1174,11.74,2.1546990000000004,-1.9973,-1.050842,-0.270538,0.42990100000000003,0.306137
1175,11.75,2.220653,-2.048436,-0.922773,-0.274796,0.38302600000000003,0.22517399999999999
1176,11.76,2.434947,-2.090577,-1.038399,-0.24710100000000002,0.313782,0.149536
1177,11.77,2.52916,-2.144858,-1.2269430000000001,-0.210892,0.237091,0.087753
1178,11.78,2.3188299999999997,-2.0253490000000003,-1.45571,-0.178925,0.189148,0.041946
1179,11.79,2.08842,-1.7886009999999999,-1.6536389999999999,-0.15975999999999999,0.167847,0.014252000000000003
1180,11.8,1.4724549999999998,-1.316532,-1.741091,-0.140579,0.17424,-0.014511
1181,11.81,0.651909,-0.765795,-1.86455,-0.102234,0.203003,-0.041138
1182,11.82,-0.04623800000000003,-0.222613,-1.8677689999999998,-0.069199,0.24667399999999998,-0.06564299999999999
1183,11.83,-0.623876,0.277825,-1.860732,-0.054291,0.30101,-0.102921
1184,11.84,-1.240874,0.638885,-1.6977529999999998,-0.072403,0.360657,-0.13382
1185,11.85,-1.463684,0.9919049999999999,-1.551968,-0.121399,0.418182,-0.15618900000000002
1186,11.86,-1.25544,1.6161290000000001,-1.267093,-0.177856,0.435226,-0.163651
1187,11.87,-0.546451,2.398531,-1.090173,-0.20982399999999998,0.42564399999999997,-0.134888
1188,11.88,0.196784,3.222223,-0.922442,-0.197037,0.39260900000000004,-0.062453999999999996
1189,11.89,0.9654719999999999,4.006915,-1.0672,-0.122467,0.379837,0.037689
1190,11.9,1.398469,4.562983,-1.5445389999999999,0.023468,0.38623,0.13355999999999998
1191,11.91,1.267582,4.585557,-2.162528,0.196045,0.42031899999999994,0.211319
1192,11.92,1.044865,4.194453,-2.482239,0.346252,0.48742700000000005,0.236893
1193,11.93,0.720967,3.470416,-2.060195,0.389923,0.521515,0.239029
1194,11.94,1.39368,2.885427,-0.329704,0.331329,0.520447,0.236893
1195,11.95,1.488161,3.167312,1.408199,0.21202100000000002,0.520447,0.246475
1196,11.96,2.484182,3.2156919999999998,2.853622,0.151306,0.471451,0.28483600000000003
1197,11.97,2.092163,2.549044,4.238783,0.194977,0.36598200000000003,0.295486
1198,11.98,1.281452,1.427765,4.643228,0.303635,0.267975,0.32637
1199,11.99,0.669482,0.34888600000000003,4.227519,0.445312,0.15293900000000002,0.34874
1200,12.0,0.423967,-0.46073400000000003,2.83312,0.552902,0.043213,0.365784
1201,12.01,0.340318,-0.893183,1.4852379999999998,0.530533,-0.05798300000000001,0.379639
1202,12.02,-0.092908,-0.9358200000000001,0.805867,0.354767,-0.122971,0.354065
1203,12.03,-0.523567,-0.28310599999999997,0.594716,0.139587,-0.16452,0.286957
1204,12.04,-0.352786,0.5213770000000001,0.5637850000000001,-0.038315,-0.19754000000000002,0.167648
1205,12.05,-0.39453299999999997,1.145218,0.485708,-0.138443,-0.212448,-0.009186
1206,12.06,-0.02037800000000001,1.81401,0.362122,-0.156555,-0.19754000000000002,-0.201996
1207,12.07,0.5569189999999999,2.2222150000000003,0.476182,-0.126724,-0.19860799999999998,-0.417175
1208,12.08,0.630664,2.251029,0.615839,-0.054291,-0.216721,-0.638748
1209,12.09,0.306764,1.490579,0.696575,0.020279,-0.241211,-0.790024
1210,12.1,-0.234715,0.31408899999999995,0.674771,0.06288099999999999,-0.289154,-0.848618
1211,12.11,-0.5998720000000001,-1.0505639999999998,0.506734,0.06395,-0.332825,-0.811325
1212,12.12,-1.0095459999999998,-2.494439,0.404677,0.035187,-0.365845,-0.735687
1213,12.13,-1.253148,-3.5682970000000003,0.317494,-0.021271,-0.37756300000000004,-0.6526029999999999
1214,12.14,-1.3058530000000002,-4.200303,0.316806,-0.080917,-0.380768,-0.568451
1215,12.15,-1.132493,-4.4509,0.114481,-0.11714200000000001,-0.383957,-0.48855600000000005
1216,12.16,-0.719019,-4.4436089999999995,-0.12079300000000001,-0.134186,-0.394608,-0.42677299999999996
1217,12.17,-0.26309499999999997,-4.174466000000001,-0.34841,-0.136322,-0.401001,-0.401199
1218,12.18,-0.02592699999999999,-3.622107,-0.53351,-0.136322,-0.419113,-0.406525
1219,12.19,-0.112079,-3.158704,-0.695354,-0.155487,-0.434036,-0.39373800000000003
1220,12.2,-0.101375,-2.936503,-0.836304,-0.189575,-0.439362,-0.37350500000000003
1221,12.21,-0.1794,-2.789334,-0.9248569999999999,-0.235382,-0.446808,-0.355392
1222,12.22,-0.270959,-2.7038439999999997,-0.817657,-0.283325,-0.440414,-0.322372
1223,12.23,-0.611101,-2.5986689999999997,-0.779035,-0.307831,-0.434036,-0.276566
1224,12.24,-1.0279459999999998,-2.492538,-0.853125,-0.31101999999999996,-0.42336999999999997,-0.220108
1225,12.25,-1.4418389999999999,-2.316136,-1.111612,-0.304626,-0.42336999999999997,-0.146606
1226,12.26,-1.6505349999999999,-2.013019,-1.508438,-0.300369,-0.459595,-0.06777999999999999
1227,12.27,-1.4831,-1.732859,-1.654137,-0.286514,-0.514984,0.011063000000000005
1228,12.28,-1.184305,-1.1393309999999999,-1.620396,-0.25135799999999997,-0.58316,0.085617
1229,12.29,-0.5173260000000001,-0.296672,-1.5795379999999999,-0.204498,-0.644958,0.14846800000000002
1230,12.3,0.007458999999999993,0.646385,-1.580141,-0.149094,-0.707809,0.18043499999999998
1231,12.31,0.27863000000000004,1.505579,-1.7252830000000001,-0.080917,-0.747223,0.183624
1232,12.32,0.43525600000000003,1.9371040000000002,-1.7104400000000002,-0.015944999999999997,-0.75148,0.18895
1233,12.33,0.290462,2.03107,-1.587437,0.021347,-0.706741,0.170853
1234,12.34,-0.3012210000000001,2.225927,-1.347063,0.014953999999999999,-0.6321720000000001,0.134628
1235,12.35,-1.203545,2.489776,-1.284575,-0.012741000000000002,-0.521378,0.051529
1236,12.36,-2.189119,2.965796,-1.558737,-0.008484,-0.428696,-0.035812000000000004
1237,12.37,-3.0209770000000002,3.440573,-2.2544310000000003,0.056503,-0.399933,-0.164719
1238,12.38,-3.2270630000000002,3.790946,-2.437654,0.14491300000000001,-0.468124,-0.249939
1239,12.39,-2.131837,3.787436,-1.7866,0.188583,-0.570389,-0.289352
1240,12.4,-1.2610059999999998,3.8092639999999998,-0.043458,0.119354,-0.65773,-0.301071
1241,12.41,-0.47395699999999996,4.398665,1.9228509999999999,-0.070267,-0.684372,-0.295746
1242,12.42,-0.8280370000000001,4.826307,4.0672120000000005,-0.226868,-0.642822,-0.300003
1243,12.43,-0.095748,4.571104,5.523775,-0.263077,-0.576767,-0.336227
1244,12.44,1.615225,3.752799,5.906139,-0.185318,-0.529907,-0.41612200000000005
1245,12.45,1.562473,2.437072,5.470322,0.014953999999999997,-0.401001,-0.545013
1246,12.46,0.352625,1.068913,4.063786,0.241852,-0.176239,-0.625977
1247,12.47,-0.214916,0.203535,2.443699,0.354767,0.009124999999999994,-0.596146
1248,12.48,-0.314755,0.16642300000000002,1.488049,0.324936,0.079422,-0.49600200000000005
1249,12.49,-0.651061,0.441665,1.11155,0.22055100000000002,0.14973399999999998,-0.341553
1250,12.5,-0.9185450000000001,0.7980510000000001,0.907056,0.111893,0.23388699999999998,-0.158325
1251,12.51,-0.96359,1.055288,0.7797,0.045837,0.265854,0.024902000000000018
1252,12.52,-1.130659,1.120744,0.812476,0.045837,0.295685,0.217712
1253,12.53,-0.676818,0.936153,0.732548,0.09059099999999999,0.362793,0.410538
1254,12.54,-0.12396800000000001,0.45374200000000003,0.580368,0.140656,0.41925,0.551147
1255,12.55,0.291943,-0.5189560000000001,0.43258100000000005,0.175812,0.475708,0.653412
1256,12.56,0.547883,-1.499862,0.08025499999999999,0.175812,0.527908,0.7237239999999999
1257,12.57,0.79675,-2.454548,-0.138138,0.121475,0.567322,0.741821
1258,12.58,0.6114689999999999,-3.508204,-0.125197,0.047974,0.595016,0.709869
1259,12.59,0.502548,-4.331361,-0.06132399999999999,-0.040436,0.61525,0.664062
1260,12.6,0.423521,-4.940286,0.127105,-0.116074,0.649338,0.619324
1261,12.61,0.250854,-5.228688,0.152926,-0.16081199999999998,0.685562,0.578842
1262,12.62,0.10847000000000001,-5.0098519999999995,0.119859,-0.187454,0.717529,0.551147
1263,12.63,0.216719,-4.454244999999999,-0.088369,-0.201294,0.744156,0.543686
1264,12.64,0.6469729999999999,-3.6847300000000005,-0.365439,-0.201294,0.753738,0.535172
1265,12.65,1.063059,-2.901247,-0.596182,-0.202362,0.75267,0.509598
1266,12.66,1.5880020000000001,-2.202588,-0.850058,-0.219406,0.737762,0.459534
1267,12.67,1.9233330000000002,-1.7127080000000001,-1.024083,-0.25242600000000004,0.707932,0.395615
1268,12.68,2.0180029999999998,-1.500446,-1.05469,-0.284393,0.661057,0.331696
1269,12.69,2.081295,-1.40273,-1.146764,-0.292908,0.608871,0.26672399999999996
1270,12.7,2.177335,-1.4761879999999998,-1.223668,-0.267349,0.548141,0.20813
1271,12.71,2.345727,-1.5994059999999999,-1.435755,-0.22047399999999998,0.478897,0.14741500000000002
1272,12.72,2.339582,-1.8497709999999998,-1.712666,-0.186386,0.41925,0.088821
1273,12.73,2.0960080000000003,-2.071675,-1.936009,-0.178925,0.379837,0.044083
1274,12.74,1.6178,-1.93163,-2.181501,-0.191711,0.357468,0.006790000000000001
1275,12.75,1.068514,-1.500389,-2.3189610000000003,-0.210892,0.362793,-0.027298000000000003
1276,12.76,0.628303,-0.9949540000000001,-2.0575930000000002,-0.22047399999999998,0.359589,-0.066711
1277,12.77,0.146513,-0.12884300000000004,-2.0809849999999996,-0.22047399999999998,0.373444,-0.10719300000000001
1278,12.78,0.16968,0.902248,-2.04221,-0.214081,0.39260900000000004,-0.123169
1279,12.79,0.087923,1.9414509999999998,-1.868871,-0.194901,0.42244,-0.135956
1280,12.8,-0.251804,2.9450220000000003,-1.8242919999999998,-0.15975999999999999,0.465057,-0.158325
1281,12.81,-0.562325,3.681064,-1.7006240000000001,-0.10116599999999999,0.499146,-0.188141
1282,12.82,-0.452,4.167447,-1.625283,-0.019135,0.478897,-0.21690399999999999
1283,12.83,-0.014085999999999987,4.321594999999999,-1.553153,0.077805,0.41499300000000006,-0.209457
1284,12.84,0.9390870000000001,4.264646,-1.6462450000000002,0.184326,0.353195,-0.15725699999999998
1285,12.85,1.934331,4.18351,-1.9539080000000002,0.30256700000000003,0.315918,-0.08161900000000001
1286,12.86,2.154285,3.791314,-2.3527,0.43998699999999996,0.331894,-0.027298000000000003
1287,12.87,1.6520110000000001,2.87036,-2.051628,0.568893,0.371307,-0.013443
1288,12.88,1.36342,1.702741,-0.8857870000000001,0.6083069999999999,0.4086,0.011063
1289,12.89,1.484134,0.943262,1.55106,0.532669,0.38302600000000003,0.036621
1290,12.9,0.6254970000000001,1.124384,3.18479,0.387787,0.402206,0.13355999999999998
1291,12.91,1.207208,1.4976129999999999,4.134768,0.262085,0.322311,0.264587
1292,12.92,0.8184520000000001,1.79571,4.594829,0.22055100000000002,0.147598,0.344482
1293,12.93,0.702454,1.9445740000000002,4.239565,0.28447,-0.031356999999999996,0.408401
1294,12.94,1.664163,1.6462299999999999,3.667499,0.40271,-0.207123,0.451004
1295,12.95,2.063834,1.453389,2.748046,0.453842,-0.372238,0.425446
1296,12.96,1.768445,1.378274,1.8967610000000001,0.38353000000000004,-0.479828,0.335968
1297,12.97,1.139421,1.6665740000000002,1.404167,0.252502,-0.551208,0.22303800000000001
1298,12.98,1.034253,2.0261099999999996,1.201147,0.156631,-0.5735779999999999,0.11651600000000001
1299,12.99,1.18955,2.816157,0.8411370000000001,0.13105799999999998,-0.55867,-0.029419000000000008
1300,13.0,1.635443,3.603868,0.600241,0.16514600000000002,-0.552277,-0.221176
1301,13.01,1.799813,3.7557089999999995,0.754656,0.262085,-0.559723,-0.457657
1302,13.02,1.223508,2.887832,1.014124,0.377136,-0.589554,-0.684555
1303,13.03,0.619424,1.454623,0.8759120000000001,0.481537,-0.636429,-0.820923
1304,13.04,-0.377511,-0.06033699999999996,0.562753,0.506042,-0.7131350000000001,-0.867783
1305,13.05,-1.029978,-1.702009,0.38048899999999997,0.43998699999999996,-0.7546689999999999,-0.813461
1306,13.06,-1.2447840000000001,-3.403172,0.33978400000000003,0.320679,-0.774918,-0.726105
1307,13.07,-1.325232,-4.720766,0.454189,0.20776399999999998,-0.771713,-0.645142
1308,13.08,-1.198416,-5.469031,0.548539,0.119354,-0.771713,-0.5705720000000001
1309,13.09,-0.636376,-5.633294,0.511304,0.077805,-0.7823640000000001,-0.511993
1310,13.1,-0.08998400000000001,-5.600405,0.443909,0.0746,-0.795151,-0.480026
1311,13.11,0.248324,-5.241758,0.24666100000000002,0.08099400000000001,-0.8004760000000001,-0.482162
1312,13.12,0.24206399999999997,-4.717697,-0.07152299999999999,0.071411,-0.8004760000000001,-0.48535200000000006
1313,13.13,0.20825100000000002,-4.267199,-0.285918,0.034119,-0.7823640000000001,-0.451263
1314,13.14,0.082509,-4.03948,-0.484436,-0.022339000000000005,-0.762131,-0.407593
1315,13.15,-0.11146,-3.8161410000000004,-0.644492,-0.10755899999999999,-0.747223,-0.339417
1316,13.16,-0.4173049999999999,-3.6205849999999997,-0.6823359999999999,-0.20343,-0.740829,-0.26698299999999997
1317,13.17,-0.9924200000000001,-3.337383,-0.728549,-0.274796,-0.733368,-0.19134500000000002
1318,13.18,-1.616191,-3.086261,-0.756632,-0.31208800000000003,-0.717392,-0.11358599999999999
1319,13.19,-2.043237,-2.820496,-0.704413,-0.31208800000000003,-0.703537,-0.028366
1320,13.2,-2.032619,-2.423702,-0.704025,-0.270538,-0.687561,0.064316
1321,13.21,-1.640322,-1.9098830000000002,-0.923429,-0.206619,-0.67691,0.141022
1322,13.22,-1.4636959999999999,-1.21951,-0.8794959999999999,-0.152298,-0.6673279999999999,0.20280499999999999
1323,13.23,-0.962939,-0.285536,-0.796193,-0.108627,-0.6279140000000001,0.252869
1324,13.24,-0.730993,0.821744,-0.8405290000000001,-0.100098,-0.604477,0.258194
1325,13.25,-0.48234799999999994,1.661007,-0.813908,-0.11821,-0.614059,0.250748
1326,13.26,0.250096,2.23425,-0.742182,-0.115005,-0.606598,0.24754299999999999
1327,13.27,0.9367850000000001,2.6364650000000003,-0.7325699999999999,-0.087311,-0.574646,0.25500500000000004
1328,13.28,0.9976719999999999,2.856128,-0.902909,-0.06282,-0.507538,0.228363
1329,13.29,0.325275,3.045617,-1.359056,-0.03511,-0.440414,0.168716
1330,13.3,-0.668201,3.316164,-2.133752,0.011749,-0.409531,0.06219500000000001
1331,13.31,-1.3617569999999999,3.304893,-2.9326790000000003,0.08313,-0.41485600000000006,-0.04541
1332,13.32,-1.184079,3.0387060000000004,-3.6827900000000002,0.175812,-0.48303199999999996,-0.099731
1333,13.33,-0.560292,2.384327,-4.126551,0.243988,-0.599152,-0.102921
1334,13.34,-0.626487,1.578989,-3.198102,0.181137,-0.682236,-0.140213
1335,13.35,-0.763251,1.2195610000000001,-0.809512,-0.013809000000000016,-0.783432,-0.158325
1336,13.36,-0.90186,1.7136040000000001,2.157493,-0.234314,-0.7887569999999999,-0.126358
1337,13.37,-0.35433000000000003,3.121986,3.690289,-0.35257,-0.762131,-0.11570699999999999
1338,13.38,0.43266499999999997,3.1745,5.049164,-0.347244,-0.739761,-0.178558
1339,13.39,1.826948,2.893498,5.892508,-0.25242600000000004,-0.6385649999999999,-0.255264
1340,13.4,1.630667,2.588604,5.990104,-0.11821,-0.430832,-0.37883
1341,13.41,-0.2580349999999999,2.519228,5.134399,0.037323000000000016,-0.09953299999999997,-0.503464
1342,13.42,-1.645591,2.59269,3.498905,0.171539,0.209396,-0.576965
1343,13.43,-1.7703099999999998,2.398297,1.8586470000000002,0.221619,0.33615100000000003,-0.537552
1344,13.44,-1.9987700000000002,1.746086,1.4673969999999998,0.18219000000000002,0.374512,-0.423569
1345,13.45,-1.850569,1.3952870000000002,1.561079,0.12573199999999998,0.46185299999999996,-0.255264
1346,13.46,-1.56882,1.5820379999999998,1.341048,0.126801,0.518311,-0.09014900000000002
1347,13.47,-1.507199,1.8428060000000002,1.12585,0.202438,0.522583,0.10693399999999999
1348,13.48,-1.104946,1.8306209999999998,0.931875,0.300446,0.508728,0.34874
1349,13.49,-0.31592,1.3893389999999999,0.5358510000000001,0.389923,0.485291,0.588425
1350,13.5,0.736662,0.288281,0.164073,0.44105500000000003,0.48422200000000004,0.770584
1351,13.51,1.501225,-0.855806,-0.218712,0.43040500000000004,0.50766,0.8717959999999999
1352,13.52,2.1131740000000003,-2.019588,-0.506134,0.312164,0.558792,0.8930969999999999
1353,13.53,2.24178,-3.1419770000000002,-0.529648,0.134262,0.570511,0.843033
1354,13.54,1.8481759999999998,-3.9633629999999997,-0.415171,-0.041503999999999985,0.5811609999999999,0.759933
1355,13.55,1.27148,-4.522218,-0.098936,-0.16188,0.585434,0.6757810000000001
1356,13.56,0.59777,-4.799668,0.258889,-0.205566,0.591827,0.6076050000000001
1357,13.57,-0.21094999999999992,-4.77252,0.358124,-0.199173,0.60141,0.566055
1358,13.58,-0.709387,-4.500693,0.370241,-0.181061,0.606735,0.564987
1359,13.59,-0.848709,-4.155046,0.306129,-0.154419,0.619522,0.5948180000000001
1360,13.6,-0.21977800000000006,-3.523746,0.048270000000000014,-0.141647,0.633362,0.610794
1361,13.61,0.372175,-3.183439,-0.2551,-0.15123,0.635498,0.5830989999999999
1362,13.62,0.918033,-2.775646,-0.60538,-0.200226,0.638687,0.531967
1363,13.63,1.560574,-2.556909,-0.832332,-0.28865100000000005,0.6280359999999999,0.469116
1364,13.64,1.9932759999999998,-2.4030560000000003,-0.9983120000000001,-0.372803,0.5939479999999999,0.402008
1365,13.65,2.3766,-2.1945330000000003,-1.092271,-0.433533,0.5470729999999999,0.338089
1366,13.66,2.689638,-1.973377,-1.162291,-0.44737200000000005,0.48317,0.26672399999999996
1367,13.67,2.730645,-1.684707,-1.393809,-0.41648900000000005,0.426712,0.20280499999999999
1368,13.68,2.4638709999999997,-1.323485,-1.5366309999999999,-0.355759,0.387283,0.146347
1369,13.69,2.054223,-0.8828389999999999,-1.6618220000000001,-0.27374299999999996,0.370239,0.09414700000000001
1370,13.7,1.277367,-0.325412,-1.742066,-0.19278,0.368118,0.035552999999999994
1371,13.71,0.6582319999999999,0.292942,-1.82013,-0.13525399999999999,0.384094,-0.012375
1372,13.72,0.018930999999999976,0.9064610000000001,-1.9431,-0.097961,0.424576,-0.057114
1373,13.73,-0.705334,1.307134,-1.916052,-0.072403,0.462921,-0.097595
1374,13.74,-1.232452,1.537575,-1.886669,-0.063873,0.482101,-0.139145
1375,13.75,-1.07693,1.558781,-1.709523,-0.07666,0.432037,-0.170044
1376,13.76,-0.411459,2.049208,-1.6821259999999998,-0.10755899999999999,0.351074,-0.139145
1377,13.77,0.40487399999999996,2.76647,-1.52806,-0.137375,0.287155,-0.05285599999999999
1378,13.78,0.9488270000000001,3.6836050000000005,-1.453777,-0.100098,0.266922,0.036621
1379,13.79,1.17255,4.593714,-1.528394,0.016022,0.286087,0.11651600000000001
1380,13.8,0.7426560000000001,4.854295,-1.7975700000000001,0.179001,0.340424,0.174042
1381,13.81,-0.470525,4.028282,-2.040152,0.354767,0.44055200000000005,0.182556
1382,13.82,-0.621206,2.434581,-2.237907,0.47728000000000004,0.552399,0.139954
1383,13.83,0.233498,0.977036,-1.2505979999999999,0.481537,0.616318,0.099472
1384,13.84,0.253431,0.711788,0.675656,0.399506,0.688766,0.112259
1385,13.85,0.44641099999999995,1.064808,2.2567009999999996,0.274872,0.754807,0.179367
1386,13.86,0.957838,1.3021909999999999,3.2816370000000004,0.192856,0.717529,0.259262
1387,13.87,0.445935,1.304114,4.307942,0.16409300000000002,0.61525,0.32104499999999997
1388,13.88,0.417892,1.034091,4.571155999999999,0.200302,0.49807700000000005,0.391357
1389,13.89,0.940117,0.7290939999999999,4.074737,0.265289,0.307388,0.476578
1390,13.9,0.988893,0.5886779999999999,3.117671,0.277008,0.077301,0.553268
1391,13.91,0.768419,0.8220959999999999,1.6751009999999997,0.094849,-0.142151,0.603348
1392,13.92,0.629467,1.4599870000000001,1.616773,-0.089447,-0.19860799999999998,0.52771
1393,13.93,0.532686,2.0761849999999997,1.5708,-0.213013,-0.21139499999999997,0.381775
1394,13.94,0.796545,2.757515,1.278629,-0.24177600000000002,-0.205002,0.177231
1395,13.95,1.409764,3.337914,0.999202,-0.18850699999999998,-0.205002,-0.08801300000000001
1396,13.96,1.500794,3.266705,0.883956,-0.09690900000000001,-0.216721,-0.41185
1397,13.97,1.288227,2.503006,0.93819,-0.020203,-0.253998,-0.715454
1398,13.98,0.440354,1.266433,0.6418659999999999,0.028793,-0.29129,-0.9349059999999999
1399,13.99,-0.358833,-0.15949599999999994,0.188143,0.009627999999999998,-0.345612,-1.013733
1400,14.0,-1.025188,-1.848846,-0.08809299999999999,-0.064941,-0.374374,-0.971115
1401,14.01,-1.2656,-3.427822,-0.155436,-0.158691,-0.392487,-0.8709870000000001
1402,14.02,-1.233117,-4.578530000000001,-0.07560599999999999,-0.230057,-0.401001,-0.776169
1403,14.03,-1.138422,-5.048967,-0.054391999999999996,-0.25669899999999995,-0.40313699999999997,-0.6866909999999999
1404,14.04,-1.035599,-5.1566279999999995,-0.150323,-0.254562,-0.395676,-0.61319
1405,14.05,-0.909691,-4.937302,-0.336081,-0.24177600000000002,-0.37756300000000004,-0.5705720000000001
1406,14.06,-0.8592190000000001,-4.568732,-0.47713900000000004,-0.219406,-0.360519,-0.548203
1407,14.07,-1.093258,-4.139256,-0.5971569999999999,-0.198105,-0.34668000000000004,-0.5396880000000001
1408,14.08,-1.2447059999999999,-3.4811370000000004,-0.859764,-0.186386,-0.334961,-0.508789
