,ts,ax,ay,az,wx,wy,wz
0,0.0,-0.01171,0.001906,-0.10671300000000002,0.038589,0.017792,-0.003632
1,0.01,0.032008999999999996,0.023298,-0.12645,0.030060000000000003,0.016724,-0.0004269999999999999
2,0.02,0.017942,0.008256999999999999,-0.145822,0.021544999999999998,0.011398,-0.00042700000000000013
3,0.03,0.058185,-0.025575,-0.150609,0.007689999999999998,0.0028840000000000003,0.0006259999999999999
4,0.04,0.069148,0.048226,-0.16348,-0.009354000000000001,-0.009903,-0.008957
5,0.05,0.028264,0.009231999999999999,-0.070101,-0.020003999999999997,-0.017365000000000002,-0.020676
6,0.06,-0.02138,0.036277,-0.02104200000000001,-0.024261,-0.024811,-0.020676
7,0.07,-0.039401,0.023882,0.038361,-0.020003999999999997,-0.019485,-0.019608
8,0.08,-0.048875999999999996,0.017932,0.08432100000000001,-0.006149,-0.017365000000000002,-0.01535
9,0.09,-0.021269999999999997,0.016731,0.068049,0.008759000000000001,0.0028839999999999994,-0.010025
10,0.1,0.009580000000000002,-0.000562,0.06501,0.023666,0.009276999999999999,-0.003632
11,0.11,0.050549000000000004,-0.016182,0.012079000000000001,0.028992,0.020996,0.0006259999999999999
12,0.12,0.017877,-0.042348000000000004,-0.026666,0.027939,0.023117,-0.001495
13,0.13,-0.0021080000000000005,-0.020875,-0.029081,0.018341,0.016724,-0.00042700000000000013
14,0.14,-0.0035039999999999997,-0.023518,-0.089888,0.007690000000000001,0.007141,0.0016940000000000002
15,0.15,-0.052777,0.0017919999999999985,-0.034131,-0.0029599999999999987,0.0007480000000000001,0.005966
16,0.16,-0.082124,-0.020327,0.024850000000000004,-0.01149,-0.009903,0.013412
17,0.17,-0.058863,-0.017459,-0.0013829999999999995,-0.012543,-0.019485,0.019806
18,0.18,-0.077538,-0.044764,0.003201,-0.016815,-0.025879000000000003,0.026199
19,0.19,-0.05134299999999999,-0.071894,0.035104,-0.023193000000000002,-0.023743,0.028336
20,0.2,-0.022193,-0.097572,-0.005304999999999997,-0.031723,-0.020554,0.030456999999999998
21,0.21,-0.01258,-0.063845,0.062618,-0.037048000000000005,-0.018417,0.025131
22,0.22,-0.004678,-0.130475,0.074586,-0.040237,-0.016296,0.015549
23,0.23,-0.006883,-0.130467,0.051296,-0.038116000000000004,-0.008834999999999999,0.0038299999999999996
24,0.24,0.02555,-0.049083,0.061876,-0.032791,0.001816,-0.00042699999999999997
25,0.25,0.004478000000000001,-0.045351,0.108386,-0.021072,0.013535,-0.006821
26,0.26,-0.023377000000000002,-0.02599,0.071908,-0.0008240000000000001,0.016724,-0.010025
27,0.27,-0.03386,0.031813,0.032523,0.014084000000000001,0.012466,-0.008957
28,0.28,-0.01832,0.046712000000000004,-0.041226,0.023666,0.011398,-0.003632
29,0.29,0.021550000000000003,0.04679,-0.081674,0.025802999999999996,0.010345,0.0016940000000000002
30,0.3,0.047307,0.045602,-0.109333,0.015152,0.013535,0.009155
31,0.31,0.078818,0.058083,-0.13915,0.002365,0.009276999999999999,0.009155
32,0.32,0.025112,0.013263999999999998,-0.111141,-0.015747,-0.002441,0.015549
33,0.33,0.04621,0.031014,-0.056861,-0.027466,-0.008834999999999999,0.012343999999999999
34,0.34,0.047407,0.00704,-0.022499,-0.03598,-0.017365000000000002,0.011292
35,0.35,0.024683,0.01649,0.030159,-0.03598,-0.029082999999999998,0.005966
36,0.36,-0.017075,-0.0012630000000000002,0.055799,-0.026398,-0.038666000000000006,0.007019
37,0.37,-0.0008069999999999987,-0.0008679999999999997,0.055612,-0.015747,-0.026947000000000002,0.011292
38,0.38,0.013872999999999998,-0.005423,0.055613,0.0012969999999999993,-0.015228,0.019806
39,0.39,0.059653,-0.021066,0.044304,0.008759000000000001,-0.001373,0.016617
40,0.4,0.085163,-0.016380000000000002,-0.030820000000000007,0.007690000000000001,0.016724,0.013412
41,0.41,0.06171,-0.00648,-0.035908999999999996,0.00022900000000000004,0.025253,0.005966000000000001
42,0.42,0.028234,-0.018715,-0.015423,-0.013611000000000002,0.020996,-0.0025629999999999997
43,0.43,0.0037329999999999998,-0.020279,-0.009663,-0.021072,0.006072999999999999,-0.013213999999999998
44,0.44,-0.036892,0.020198,0.06900099999999999,-0.024261,-0.010971,-0.022797
45,0.45,-0.055161,0.052295,0.093074,-0.020003999999999997,-0.025879000000000003,-0.023865
46,0.46,-0.08986799999999999,0.064394,0.107651,-0.005096,-0.029082999999999998,-0.021744
47,0.47,-0.087056,0.123377,0.100186,0.011948,-0.017365000000000002,-0.013213999999999998
48,0.48,-0.072076,0.120275,0.040868,0.023666,0.006072999999999999,-0.002563000000000001
49,0.49,-0.055014,0.10450599999999999,-0.017148999999999998,0.031127999999999996,0.026320999999999997,0.009155
50,0.5,-0.031868,0.037395,-0.067388,0.031127999999999996,0.040161,0.014481
51,0.51,-0.009759999999999998,0.048598,-0.034613,0.015152,0.03804,0.016617
52,0.52,-0.079799,0.0013279999999999993,0.012884999999999994,0.0012969999999999993,0.016724,0.018738
53,0.53,-0.052167,-0.0018519999999999997,0.039552,-0.008286,-0.009903000000000002,0.014481
54,0.54,-0.051587,-0.019773,0.053542,-0.008286,-0.033339999999999995,0.015549
55,0.55,-0.064694,0.0013680000000000005,0.045179000000000004,-0.0018920000000000002,-0.039734,0.015549
56,0.56,-0.018697,0.009048,0.025735,0.013016,-0.032272,0.013412
57,0.57,-0.027344999999999998,-0.0005280000000000007,-0.045009,0.023666,-0.013092,0.019806
58,0.58,0.013617000000000004,-0.021798999999999995,-0.107056,0.028992,0.014603,0.025131
59,0.59,0.041503,-0.007947999999999998,-0.102781,0.020477000000000002,0.035904000000000005,0.026199
60,0.6,0.045519,-0.05223200000000001,-0.13237000000000002,0.008759000000000001,0.042297,0.027267000000000003
61,0.61,-0.014543,-0.017452000000000002,-0.062278999999999994,-0.01149,0.041229,0.030456999999999998
62,0.62,0.014769999999999998,-0.037173000000000005,-0.02762,-0.027466,0.020996,0.031525
63,0.63,0.031924,-0.013561000000000002,0.039498,-0.038116000000000004,-0.010970999999999998,0.031525
64,0.64,0.028294,-0.059677999999999995,0.071063,-0.038116000000000004,-0.038666000000000006,0.030456999999999998
65,0.65,0.052749000000000004,-0.063849,0.07838300000000001,-0.029587000000000002,-0.049316000000000006,0.026199
66,0.66,0.10698599999999998,-0.079511,0.091445,-0.016815,-0.03653,0.019806
67,0.67,0.13606400000000002,-0.05224500000000001,0.051615,0.004501,-0.004578,0.011292
68,0.68,0.134547,-0.046169999999999996,0.048143,0.017273,0.030578999999999995,0.010223000000000001
69,0.69,0.109653,-0.057928999999999994,0.062310000000000004,0.024734,0.055084,0.005966
70,0.7,0.094863,-0.008758,0.026708,0.024734,0.059341,0.008087
71,0.71,0.04032,0.017478999999999998,0.046895,0.017273,0.045486,0.007019
72,0.72,0.04192,0.005561,0.052222000000000005,0.006622,0.020996,0.014481
73,0.73,0.032429,-0.013913,0.058526999999999996,-0.0029600000000000004,-0.013092,0.020874
74,0.74,0.042283,-0.031048000000000003,0.053849,-0.01149,-0.03653,0.026199
75,0.75,0.07572100000000001,-0.048483,0.046908,-0.017868000000000002,-0.042923,0.027267000000000003
76,0.76,0.098585,-0.06771,0.0053360000000000005,-0.022141,-0.039734,0.025131
77,0.77,0.144504,-0.078485,0.029332,-0.018936,-0.037598,0.014481
78,0.78,0.181398,-0.064961,0.057052,-0.014679,-0.024811,0.005966
79,0.79,0.156004,-0.010878,0.031688,-0.008286,-0.015228,-0.005753
80,0.8,0.077096,0.019014,0.031207,-0.0018920000000000002,-0.001373,-0.013213999999999998
81,0.81,0.04911,0.010667,0.085806,0.009826999999999999,0.006072999999999999,-0.017471
82,0.82,0.016212999999999998,-0.015946,0.093315,0.019409,0.013535,-0.014282
83,0.83,0.002279,-0.013752,0.067647,0.032195999999999995,0.017792,-0.008957
84,0.84,0.00022699999999999974,-0.071827,0.051986000000000004,0.041779000000000004,0.014603,-0.008957
85,0.85,0.002582,-0.10537300000000001,0.010383,0.043914999999999996,0.010345,-0.007889
86,0.86,0.007884999999999996,-0.063701,-0.059365,0.035385,0.00502,-0.014282
87,0.87,0.025923,-0.041281,-0.085168,0.015152,-0.0024409999999999987,-0.021744
88,0.88,0.0024740000000000005,-0.028773000000000003,-0.079096,-0.006149,-0.010971,-0.027069
89,0.89,-0.03211,0.046030000000000015,-0.008537999999999999,-0.021072,-0.028014999999999998,-0.021744
90,0.9,0.049708999999999996,0.05878,-0.015511000000000002,-0.031723,-0.050385,-0.017471
91,0.91,0.05544299999999999,0.032331,-0.014952000000000002,-0.033859,-0.065292,-0.017471
92,0.92,0.094638,-0.0032179999999999947,-0.031063999999999998,-0.031723,-0.068497,-0.021744
93,0.93,0.09185399999999999,-0.017551,-0.026155,-0.024261,-0.05571,-0.031326
94,0.94,0.058841,-0.025394999999999997,-0.037461,-0.007217000000000001,-0.035461,-0.038787999999999996
95,0.95,0.023693000000000002,-0.061361,0.019144,0.008759000000000001,-0.004578,-0.046234
96,0.96,0.007568000000000002,-0.024465999999999998,0.029566000000000002,0.028992,0.024184999999999998,-0.050506999999999996
97,0.97,-0.04156,-0.027683,-0.031570999999999995,0.050308,0.031647,-0.054764
98,0.98,-0.032132,-0.006457000000000001,-0.064885,0.056701999999999995,0.041229,-0.053696
99,0.99,-0.103308,0.052547,-0.144627,0.044982999999999995,0.034836,-0.053696
100,1.0,-0.147264,0.061187,-0.180523,0.023666,0.016724,-0.048369999999999996
101,1.01,-0.20290999999999998,0.078688,-0.14436300000000002,-0.010422,0.0028839999999999994,-0.033463
102,1.02,-0.248018,0.048822000000000004,-0.09221499999999999,-0.043442,-0.017365000000000002,-0.01535
103,1.03,-0.221131,0.035167000000000004,-0.026424,-0.065811,-0.034408999999999995,0.007019
104,1.04,-0.185415,0.0029920000000000003,0.014475,-0.074326,-0.042923,0.019806
105,1.05,-0.141566,-0.030989999999999997,0.116667,-0.074326,-0.049316000000000006,0.026199
106,1.06,-0.065937,-0.042769999999999996,0.14468699999999998,-0.056228999999999994,-0.04718,0.025131
107,1.07,0.006554000000000001,-0.036492000000000004,0.200702,-0.028533999999999997,-0.037598,0.014481
108,1.08,0.042312999999999996,-0.050841000000000004,0.15279,0.008759000000000001,-0.019485,0.004898
109,1.09,0.04227,-0.081338,0.080853,0.039658,0.006072999999999999,-0.007889
110,1.1,0.026636,-0.011415000000000002,-0.007708999999999994,0.058823,0.031647,-0.018539
111,1.11,-0.039001999999999995,0.013560000000000004,-0.058816999999999994,0.06308,0.047623,-0.023865
112,1.12,-0.09842999999999999,0.036417000000000005,-0.10826400000000001,0.04924,0.047623,-0.022797
113,1.13,-0.10556600000000001,0.064334,-0.136652,0.028992,0.02951,-0.011093000000000002
114,1.14,-0.11424200000000001,0.06450299999999999,-0.163237,0.002364999999999997,-0.00032000000000000084,-0.0025629999999999997
115,1.15,-0.070171,0.06597599999999999,-0.142806,-0.020003999999999997,-0.024811,0.004898
116,1.16,-0.07491,0.061535,-0.140198,-0.043442,-0.04718,0.009155
117,1.17,-0.010224999999999993,0.030351,-0.068065,-0.05835,-0.051453,0.009155
118,1.18,-0.010207000000000004,0.028707999999999997,0.054324999999999984,-0.05728099999999999,-0.046127,0.009155
119,1.19,-0.017634999999999998,0.065137,0.11536199999999999,-0.039185000000000005,-0.030136000000000003,0.008087
120,1.2,-0.026773,0.034556,0.128902,-0.01149,-0.012039,0.011292
121,1.21,-0.0034360000000000016,0.027697000000000003,0.10893,0.01622,0.010345,0.014481
122,1.22,-0.030510000000000002,0.004174999999999997,0.09597699999999999,0.035385,0.022064,0.018738
123,1.23,-0.002902000000000002,-0.029499000000000008,-0.01067,0.046036,0.020996,0.016617
124,1.24,0.042797,-0.051126,-0.086839,0.04071,0.006072999999999999,0.014481
125,1.25,0.057997,-0.014194,-0.162631,0.026871,-0.018417,0.0006259999999999997
126,1.26,0.064049,0.005650999999999998,-0.16806300000000002,0.004501,-0.035461,-0.005753
127,1.27,0.028156999999999998,0.033917,-0.182085,-0.018936,-0.048248,-0.012145999999999999
128,1.28,-0.06324400000000001,0.056735,-0.123446,-0.033859,-0.052504999999999996,-0.011093
129,1.29,-0.077053,0.09392,-0.038507,-0.04451,-0.032272,0.002762
130,1.3,-0.06274600000000001,0.07814299999999999,0.006794,-0.042374,-0.016296,0.012343999999999999
131,1.31,-0.031022000000000004,0.027066000000000003,0.11477000000000001,-0.023193000000000002,-0.0045780000000000005,0.019806
132,1.32,-0.007186,-0.033696,0.10844000000000001,0.013016,0.012466,0.013412
133,1.33,-0.012006999999999999,-0.038120999999999995,0.06347,0.034317,0.019928,0.0038299999999999996
134,1.34,0.017547999999999998,0.0004150000000000005,0.020459,0.044982999999999995,0.028442000000000002,-0.0047
135,1.35,0.005878,0.03565,-0.026863,0.052428999999999996,0.022064,-0.011093
136,1.36,-0.05123,0.064336,-0.092026,0.048172,0.023117,-0.008957
137,1.37,-0.15124400000000002,0.06134,-0.07844,0.036453,0.023117,0.0006259999999999997
138,1.38,-0.10299000000000001,0.04827,-0.11802,0.021544999999999998,0.022064,0.016617
139,1.39,-0.051421,0.030635000000000003,-0.085439,0.0012969999999999993,0.019928,0.030456999999999998
140,1.4,-0.057411000000000004,0.003736,-0.058178,-0.022141,0.012466,0.037918
141,1.41,-0.029091000000000002,-0.037131,-0.012045,-0.038116000000000004,-0.009903,0.035782
142,1.42,0.0036260000000000008,-0.088018,0.017666,-0.043442,-0.033339999999999995,0.028336
143,1.43,0.03094,-0.032983,0.079506,-0.039185000000000005,-0.05571,0.02301
144,1.44,0.044844,-0.0013730000000000027,0.015007,-0.024261,-0.06955,0.019806
145,1.45,0.069095,0.017034,-0.009315,-0.008286,-0.053574000000000004,0.020874
146,1.46,0.118346,0.028976,-0.046947,0.0076900000000000015,-0.018417000000000003,0.02301
147,1.47,0.169377,-0.010778,-0.074187,0.021544999999999998,0.026321,0.025131
148,1.48,0.189922,-0.051815,-0.106146,0.028992,0.065735,0.024063
149,1.49,0.23223200000000002,-0.048641000000000004,-0.090099,0.021544999999999998,0.09343,0.016617
150,1.5,0.21242199999999997,-0.049469,-0.071788,0.005568999999999999,0.09661900000000001,-0.0025629999999999997
151,1.51,0.170406,-0.007665000000000002,-0.048579000000000004,-0.009354000000000001,0.068924,-0.021744
152,1.52,0.109957,0.00032100000000000184,0.009370999999999999,-0.026398,0.025253,-0.041977
153,1.53,-0.0069079999999999975,0.023955,0.081243,-0.038116000000000004,-0.022690000000000002,-0.048369999999999996
154,1.54,-0.007761,0.037683999999999995,0.168981,-0.038116000000000004,-0.054641999999999996,-0.046234
155,1.55,0.046686,0.029654000000000003,0.154878,-0.020003999999999997,-0.07914700000000001,-0.041977
156,1.56,0.123267,0.05613200000000001,0.078426,0.009826999999999999,-0.086594,-0.03772
157,1.57,0.203118,0.06246,-0.029113,0.037521,-0.06636,-0.038787999999999996
158,1.58,0.237854,0.047994,-0.138516,0.058823,-0.024811,-0.041977
159,1.59,0.290114,-0.009481999999999996,-0.221519,0.06947300000000001,0.012466,-0.041977
160,1.6,0.24219699999999997,0.025286000000000003,-0.340119,0.062027,0.040161,-0.045181
161,1.61,0.233033,0.017187,-0.325278,0.04071,0.052948,-0.052627999999999994
162,1.62,0.170726,0.061597000000000006,-0.30535,0.010895,0.033768,-0.054764
163,1.63,0.135352,0.11368900000000001,-0.278032,-0.013611000000000002,-0.003509999999999999,-0.052627999999999994
164,1.64,0.14683800000000002,0.09676900000000001,-0.21883699999999998,-0.031723,-0.051453,-0.045181
165,1.65,0.21738000000000002,0.128614,-0.222437,-0.04451,-0.074875,-0.036652
166,1.66,0.232812,0.138474,-0.160502,-0.048767000000000005,-0.072754,-0.032394
167,1.67,0.297064,0.11377899999999999,-0.151308,-0.049835000000000004,-0.053574000000000004,-0.031326
168,1.68,0.325894,0.12690099999999999,-0.139007,-0.03598,-0.023743,-0.038787999999999996
169,1.69,0.319712,0.096177,-0.164953,-0.024261,0.012466,-0.046234
170,1.7,0.32028,0.123322,-0.087299,-0.018936,0.042297,-0.057953
171,1.71,0.256743,0.073152,-0.102047,-0.004028,0.042297,-0.07180800000000001
172,1.72,0.1528,0.050845,-0.11801800000000001,0.009826999999999999,0.023117,-0.07713300000000001
173,1.73,0.110029,0.08483099999999999,-0.18903699999999998,0.011948,0.0007480000000000004,-0.076065
174,1.74,0.097899,0.092601,-0.22722199999999998,0.014084000000000001,-0.028014999999999998,-0.076065
175,1.75,0.088397,0.13999,-0.289216,0.018341,-0.057830999999999994,-0.07074
176,1.76,0.05972,0.20557899999999998,-0.352989,0.020477000000000002,-0.07914700000000001,-0.057953
177,1.77,0.054344,0.20639699999999997,-0.381896,0.021544999999999998,-0.077011,-0.038787999999999996
178,1.78,0.049389999999999996,0.20371199999999998,-0.41838500000000006,0.023666,-0.064224,-0.012145999999999999
179,1.79,0.086327,0.16336099999999998,-0.428271,0.024734,-0.03653,0.009155
180,1.8,0.117808,0.106174,-0.44345500000000004,0.022614,-0.009903000000000002,0.026199
181,1.81,0.095976,0.048043999999999996,-0.434763,0.01622,0.020996,0.037918
182,1.82,0.134072,0.04477,-0.400753,0.018341,0.036972000000000005,0.042175
183,1.83,0.073529,0.03493,-0.381843,0.018341,0.036972000000000005,0.040054
184,1.84,0.011611000000000005,-0.044191,-0.34058499999999997,0.019409,0.034836,0.038986
185,1.85,-0.099484,-0.062819,-0.342004,0.024734,0.025253,0.034714
186,1.86,-0.16983499999999999,-0.112447,-0.376198,0.023666,0.006072999999999999,0.034714
187,1.87,-0.25445999999999996,-0.15124500000000002,-0.411775,0.014084000000000001,-0.001373,0.038986
188,1.88,-0.320128,-0.188737,-0.43894399999999995,0.00022899999999999922,-0.00351,0.047501
189,1.89,-0.23915,-0.170451,-0.478616,-0.012543,-0.0077670000000000005,0.053894000000000004
190,1.9,-0.040043,-0.020667000000000005,-0.522361,-0.026398,-0.008834999999999999,0.048569
191,1.91,-0.002332000000000001,0.0023940000000000003,-0.542062,-0.029587000000000002,0.027389999999999998,0.034714
192,1.92,-0.006972,0.0027189999999999988,-0.624452,-0.031723,0.098755,0.024063
193,1.93,-0.11958900000000001,0.1545,-0.600877,-0.037048000000000005,0.17865,0.029388
194,1.94,-0.22045900000000002,0.17106500000000002,-0.5662699999999999,-0.039185000000000005,0.248962,0.051758000000000005
195,1.95,-0.351555,0.095929,-0.514022,-0.034912,0.2724,0.092239
196,1.96,-0.33216100000000004,0.065688,-0.546568,-0.032791,0.264938,0.141251
197,1.97,-0.22924899999999998,0.123224,-0.582803,-0.04451,0.23191799999999999,0.18917799999999999
198,1.98,-0.046436000000000005,0.111079,-0.670967,-0.064743,0.182907,0.23072800000000002
199,1.99,0.10969200000000001,0.070018,-0.6933159999999999,-0.09137,0.129654,0.257355
200,2.0,0.232539,0.06971799999999999,-0.665524,-0.130798,0.111542,0.283997
201,2.01,0.265808,0.0018410000000000024,-0.5754779999999999,-0.158493,0.098755,0.29039
202,2.02,0.28922800000000004,-0.10518699999999999,-0.51705,-0.172333,0.08064299999999999,0.288254
203,2.03,0.27064499999999997,-0.102533,-0.43042600000000003,-0.180862,0.074249,0.29039
204,2.04,0.301558,-0.25862399999999997,-0.375,-0.167007,0.07106,0.280792
205,2.05,0.34165999999999996,-0.322299,-0.380296,-0.13931300000000002,0.065735,0.265884
206,2.06,0.41684799999999994,-0.30220199999999997,-0.430229,-0.11801099999999999,0.073196,0.236053
207,2.07,0.394662,-0.22578,-0.498895,-0.099899,0.088104,0.198776
208,2.08,0.325642,-0.193927,-0.579448,-0.089249,0.094498,0.157227
209,2.09,0.199046,-0.17813299999999999,-0.6361220000000001,-0.09671,0.09024,0.125275
210,2.1,0.13125799999999999,-0.065337,-0.676737,-0.11801099999999999,0.06253099999999999,0.091187
211,2.11,0.040260000000000004,0.04922,-0.7733720000000001,-0.147842,0.010345,0.057098
212,2.12,-0.065002,0.089784,-0.7879550000000001,-0.179794,-0.04718,0.030456999999999998
213,2.13,-0.06304900000000001,0.260338,-0.9053040000000001,-0.210693,-0.101517,0.007019
214,2.14,-0.075779,0.33576,-0.999616,-0.244781,-0.139862,-0.016418000000000002
215,2.15,-0.16131199999999998,0.377653,-1.108895,-0.293777,-0.115356,-0.036652
216,2.16,-0.226046,0.49860699999999997,-1.1253950000000001,-0.349167,-0.072754,-0.060089
217,2.17,-0.40717600000000004,0.591857,-1.041983,-0.402435,-0.026947,-0.080322
218,2.18,-0.420213,0.7974100000000001,-0.787509,-0.44824200000000003,-0.017365000000000002,-0.08992
219,2.19,-0.54871,0.796207,-0.569541,-0.47168000000000004,0.025253000000000005,-0.076065
220,2.2,-0.6608890000000001,0.8480489999999999,-0.387635,-0.46954300000000004,0.00502,-0.090973
221,2.21,-0.795579,0.847468,-0.23132600000000003,-0.445038,-0.041855,-0.11335799999999999
222,2.22,-0.869489,0.9324889999999999,-0.07508,-0.409897,-0.05996699999999999,-0.130402
223,2.23,-1.031004,0.927394,-0.023119999999999998,-0.352371,-0.073822,-0.138916
224,2.24,-1.133575,0.9360940000000001,0.008426000000000003,-0.285248,-0.077011,-0.132523
225,2.25,-1.142791,0.991555,-0.062241,-0.20748899999999998,-0.06955,-0.120804
226,2.26,-1.151031,0.976037,-0.179882,-0.12333699999999999,-0.05571,-0.09843400000000001
227,2.27,-1.135681,0.9692799999999999,-0.28433400000000003,-0.046631,-0.032272,-0.079269
228,2.28,-1.0676299999999999,0.962471,-0.50569,0.01622,-0.028014999999999998,-0.061157
229,2.29,-1.011738,0.989296,-0.69009,0.064148,-0.037598,-0.041977
230,2.3,-0.967088,0.962419,-0.9002889999999999,0.088654,-0.051453,-0.027069
231,2.31,-0.9657959999999999,0.938434,-1.136515,0.083328,-0.046127,-0.005753000000000001
232,2.32,-0.920077,0.951894,-1.209409,0.051361000000000004,-0.042923,0.027267000000000003
233,2.33,-0.8319780000000001,0.864167,-1.267871,0.010895000000000005,-0.062103,0.060287
234,2.34,-0.711554,0.824959,-1.2177719999999999,-0.028533999999999997,-0.095123,0.07733200000000001
235,2.35,-0.628205,0.8746219999999999,-1.1197540000000001,-0.051955999999999995,-0.13028,0.075195
236,2.36,-0.684606,0.89589,-1.035663,-0.054091999999999994,-0.15477,0.067749
237,2.37,-0.7431409999999999,0.897357,-0.9608260000000001,-0.037048000000000005,-0.176086,0.068802
238,2.38,-0.704504,0.980016,-0.905334,-0.014679,-0.178207,0.075195
239,2.39,-0.63722,1.054281,-0.854209,0.019409,-0.150513,0.08052100000000001
240,2.4,-0.64132,1.041242,-0.816712,0.060959000000000006,-0.102585,0.079468
241,2.41,-0.553404,1.068329,-0.762502,0.087585,-0.031204,0.06987
242,2.42,-0.510116,1.1179,-0.730183,0.09611499999999999,0.052948,0.052826
243,2.43,-0.6248090000000001,1.1610559999999999,-0.641339,0.085449,0.125381,0.033661
244,2.44,-0.711123,1.140195,-0.43868999999999997,0.062027,0.150955,0.026199
245,2.45,-0.726312,1.159968,-0.20989499999999997,0.056701999999999995,0.1371,0.015549
246,2.46,-0.578289,1.2095049999999998,0.08624200000000001,0.074799,0.10195900000000001,-0.0004269999999999994
247,2.47,-0.49305200000000005,1.271758,0.29099899999999995,0.11955299999999999,0.064667,-0.027069
248,2.48,-0.425817,1.2472809999999999,0.454437,0.186661,0.024184999999999998,-0.063278
249,2.49,-0.301324,1.311094,0.6177090000000001,0.254837,0.014603,-0.10803199999999999
250,2.5,-0.204094,1.444197,0.601464,0.33152800000000004,-0.008834999999999999,-0.154892
251,2.51,-0.183476,1.44255,0.461897,0.393311,-0.019485,-0.185791
252,2.52,-0.058308000000000006,1.527003,0.275331,0.41995200000000005,0.007141,-0.21029699999999998
253,2.53,0.040874,1.557453,0.07871200000000002,0.411423,0.058273,-0.229462
254,2.54,0.10913199999999999,1.501729,-0.074713,0.362427,0.130707,-0.23905900000000002
255,2.55,0.20772800000000002,1.4692100000000001,-0.160106,0.282532,0.202087,-0.240112
256,2.56,0.187717,1.416911,-0.148105,0.180267,0.25854499999999997,-0.235855
257,2.57,0.257897,1.175714,-0.192554,0.054564999999999995,0.271332,-0.213486
258,2.58,0.311708,0.847621,-0.214457,-0.09350599999999999,0.23298600000000003,-0.176208
259,2.59,0.33553299999999997,0.41276899999999994,-0.094967,-0.268204,0.150955,-0.14212
260,2.6,0.515524,-0.158777,0.189279,-0.43866000000000005,0.017792000000000002,-0.132523
261,2.61,0.6558350000000001,-0.385112,0.576546,-0.572876,-0.12281799999999997,-0.202835
262,2.62,0.566298,-0.617672,1.059133,-0.628265,-0.263428,-0.326401
263,2.63,0.297725,-0.688635,1.487217,-0.583527,-0.371033,-0.449982
264,2.64,-0.04746700000000001,-0.523139,1.6897369999999998,-0.445038,-0.44133,-0.534134
265,2.65,-0.391255,-0.49263199999999996,1.6929310000000002,-0.236252,-0.47009300000000004,-0.552246
266,2.66,-0.503343,-0.46120500000000003,1.3935680000000001,0.002364999999999992,-0.44453400000000004,-0.49472
267,2.67,-0.387818,-0.34842399999999996,0.911392,0.227142,-0.371033,-0.39671300000000004
268,2.68,-0.096559,-0.317757,0.307172,0.38160700000000003,-0.24000500000000002,-0.28273000000000004
269,2.69,0.27360300000000004,-0.44513800000000003,-0.23516,0.451904,-0.065292,-0.176208
270,2.7,0.808443,-0.575168,-0.522345,0.42953500000000006,0.10195900000000001,-0.09843400000000001
271,2.71,1.117546,-0.683945,-0.575962,0.357101,0.215942,-0.085648
272,2.72,1.209549,-0.735813,-0.350698,0.267624,0.25535599999999997,-0.11228900000000001
273,2.73,1.181868,-0.838835,-0.153781,0.19838,0.19783,-0.141052
274,2.74,1.029879,-0.915539,0.103829,0.136597,0.100891,-0.178329
275,2.75,0.993949,-0.8115859999999999,0.171689,0.10250899999999999,-0.033339999999999995,-0.21029699999999998
276,2.76,0.8405790000000001,-0.7435510000000001,0.181764,0.09716799999999999,-0.165436,-0.234787
277,2.77,0.5764050000000001,-0.647258,0.047776,0.088654,-0.21656799999999998,-0.240112
278,2.78,0.406459,-0.554017,-0.066118,0.07267799999999999,-0.201645,-0.22201500000000002
279,2.79,0.12809600000000002,-0.502003,-0.249848,0.053497,-0.165436,-0.187912
280,2.8,-0.096788,-0.5380199999999999,-0.325824,0.015152,-0.102585,-0.127197
281,2.81,-0.186169,-0.43221800000000005,-0.42605600000000005,-0.012543,-0.034408999999999995,-0.047302
282,2.82,-0.275408,-0.564349,-0.468286,-0.028533999999999997,0.00502,0.035782
283,2.83,-0.312718,-0.773179,-0.56066,-0.04451,0.009276999999999999,0.11781300000000001
284,2.84,-0.126607,-0.818142,-0.751325,-0.065811,-0.035461,0.190247
285,2.85,0.09876999999999997,-0.905559,-0.9381360000000001,-0.087112,-0.10790999999999999,0.23819
286,2.86,0.35122800000000004,-1.0178260000000001,-1.113032,-0.127594,-0.185669,0.26055900000000004
287,2.87,0.6162310000000001,-0.948367,-1.1592129999999998,-0.180862,-0.252777,0.25949099999999997
288,2.88,0.792665,-0.821524,-1.1841629999999999,-0.20855700000000002,-0.31243899999999997,0.219009
289,2.89,0.788331,-0.696192,-1.202118,-0.22560100000000002,-0.318832,0.17213399999999998
290,2.9,0.674565,-0.56239,-1.037477,-0.227737,-0.251709,0.127396
291,2.91,0.42776499999999995,-0.49926499999999996,-0.872653,-0.19577,-0.156906,0.095444
292,2.92,0.283738,-0.45332799999999995,-0.815617,-0.13931300000000002,-0.074875,0.079468
293,2.93,0.207033,-0.306085,-0.783768,-0.081787,-0.010971000000000002,0.079468
294,2.94,0.231015,-0.114758,-0.8102729999999999,-0.047699,0.044433999999999994,0.092239
295,2.95,0.336706,0.020823999999999995,-0.9551040000000001,-0.023193000000000002,0.050812,0.105026
296,2.96,0.497058,0.21151000000000006,-1.039632,-0.030655,0.027389999999999998,0.115677
297,2.97,0.6325430000000001,0.37239,-1.093102,-0.069,0.008209000000000001,0.121002
298,2.98,0.683229,0.377971,-1.076014,-0.126526,-0.0077670000000000005,0.11781300000000001
299,2.99,0.731622,0.47096000000000005,-0.89731,-0.197906,-0.00032,0.11460899999999999
300,3.0,0.696947,0.543797,-0.6254649999999999,-0.255432,0.007141,0.103958
301,3.01,0.594001,0.5517479999999999,-0.310861,-0.28952,0.011398,0.086914
302,3.02,0.582906,0.665201,0.106488,-0.285248,0.040161,0.07733200000000001
303,3.03,0.545339,0.8092020000000001,0.511241,-0.247971,0.089172,0.068802
304,3.04,0.49862799999999996,0.793164,0.759243,-0.168076,0.10407999999999999,0.050705
305,3.05,0.475285,0.8394459999999999,1.023931,-0.07006799999999999,0.12858599999999998,0.033661
306,3.06,0.49972799999999995,1.0162149999999999,1.187654,0.018341,0.180786,0.02301
307,3.07,0.52549,1.029041,1.1882540000000001,0.11209100000000001,0.213806,0.011292
308,3.08,0.47678000000000004,0.955183,1.0481120000000002,0.180267,0.2202,0.0038299999999999996
309,3.09,0.586689,1.0663989999999999,0.886835,0.195175,0.22764600000000002,-0.004699999999999999
310,3.1,0.55608,1.079605,0.770682,0.170685,0.225525,-0.023865
311,3.11,0.513842,1.115119,0.7998810000000001,0.11955299999999999,0.22764600000000002,-0.038787999999999996
312,3.12,0.63197,1.440632,0.824391,0.071609,0.198898,-0.053696
313,3.13,0.577483,1.587698,0.929826,0.031127999999999996,0.142426,-0.07713300000000001
314,3.14,0.200035,1.686134,1.1940879999999998,-0.029587000000000002,0.186111,-0.087784
315,3.15,-0.042516000000000005,1.727845,1.422146,-0.071136,0.180786,-0.054764
316,3.16,-0.127412,1.701888,1.685125,-0.076462,0.17971800000000002,0.0059660000000000026
317,3.17,-0.351548,1.296568,1.745725,-0.102036,0.247894,0.073074
318,3.18,-0.526058,0.704295,1.748833,-0.145706,0.280914,0.12207
319,3.19,-0.604627,0.236577,1.9727400000000002,-0.200027,0.284119,0.14444
320,3.2,-0.7443,-0.25159000000000004,2.1632689999999997,-0.21814,0.226593,0.149765
321,3.21,-0.812578,-0.647187,2.300078,-0.180862,0.094498,0.143372
322,3.22,-0.727204,-0.886022,2.204473,-0.073273,-0.101517,0.118881
323,3.23,-0.5611649999999999,-0.89479,1.7601939999999998,0.087585,-0.292191,0.098633
324,3.24,-0.22325100000000003,-0.782208,1.200884,0.24205,-0.404053,0.083725
325,3.25,-0.015572000000000003,-0.749907,0.4993310000000001,0.359222,-0.39978,0.052826
326,3.26,0.23844899999999997,-0.631941,-0.197299,0.41888400000000003,-0.316696,0.025131
327,3.27,0.342997,-0.436471,-0.7471939999999999,0.411423,-0.176086,-0.014282
328,3.28,0.248968,-0.44946099999999994,-1.136738,0.348572,-0.031204,-0.045181
329,3.29,0.046114999999999996,-0.38138299999999997,-1.398839,0.24523899999999998,0.08810400000000003,-0.062225
330,3.3,-0.084007,-0.363578,-1.4590100000000001,0.10463,0.180786,-0.05583200000000001
331,3.31,-0.3286450000000001,-0.402564,-1.358946,-0.054092000000000015,0.228714,-0.052627999999999994
332,3.32,-0.549925,-0.44483900000000004,-1.061576,-0.19577,0.22338899999999998,-0.047302
333,3.33,-1.01016,-0.881652,-0.742017,-0.31401100000000004,0.19250499999999998,-0.030257999999999997
334,3.34,-1.2094719999999999,-0.8637530000000001,-0.518053,-0.40776100000000004,0.124329,0.024063
335,3.35,-1.241101,-0.8595780000000001,-0.348998,-0.466354,0.026321,0.0784
336,3.36,-1.255516,-1.010775,-0.193219,-0.49511700000000003,-0.06529199999999999,0.145508
337,3.37,-1.1459840000000001,-1.1133030000000002,-0.104183,-0.48233000000000004,-0.15371700000000002,0.21581999999999998
338,3.38,-0.9159299999999999,-1.266269,-0.023063,-0.427994,-0.230408,0.273346
339,3.39,-0.569199,-1.34491,-0.081873,-0.336395,-0.287933,0.310623
340,3.4,-0.24882800000000002,-1.378491,-0.195571,-0.22453299999999998,-0.309235,0.313828
341,3.41,0.045819,-1.3966040000000002,-0.32464499999999996,-0.116943,-0.284744,0.28186
342,3.42,0.226305,-1.340192,-0.46963900000000003,-0.007217000000000001,-0.209106,0.226471
343,3.43,0.32563800000000004,-1.1448450000000001,-0.649022,0.087585,-0.105774,0.156158
344,3.44,0.31393000000000004,-0.8984200000000001,-0.759071,0.158966,0.0007479999999999988,0.086914
345,3.45,0.208288,-0.708612,-0.896739,0.19944800000000001,0.097687,0.040054
346,3.46,-0.026796999999999987,-0.634595,-0.9412159999999999,0.2005,0.149887,0.016617
347,3.47,-0.241075,-0.571287,-0.968414,0.16748,0.141373,0.021942
348,3.48,-0.32395,-0.47116800000000003,-0.940472,0.11209100000000001,0.079575,0.031525
349,3.49,-0.508629,-0.37475,-0.6900970000000001,0.042847,0.006073000000000002,0.03685
350,3.5,-0.554958,-0.328561,-0.42158100000000004,-0.007217000000000001,-0.08872999999999999,0.045380000000000004
351,3.51,-0.591388,-0.311904,-0.269754,-0.014679,-0.20484899999999998,0.052826
352,3.52,-0.508741,-0.25006,-0.136943,-0.010422,-0.28686500000000004,0.047501
353,3.53,-0.44064899999999996,-0.11528,-0.059997,-0.001892,-0.301788,0.032593000000000004
354,3.54,-0.41887299999999994,0.049375999999999996,0.08480800000000001,0.014084000000000001,-0.271957,0.010223000000000001
355,3.55,-0.45841499999999996,0.162204,0.199309,0.036453,-0.24638400000000002,-0.018539
356,3.56,-0.5087109999999999,0.212695,0.31805700000000003,0.054564999999999995,-0.241058,-0.038787999999999996
357,3.57,-0.49103900000000006,0.398279,0.466585,0.07267799999999999,-0.22615100000000002,-0.069672
358,3.58,-0.57084,0.5834010000000001,0.605119,0.10676600000000001,-0.202713,-0.10482799999999999
359,3.59,-0.702839,0.759744,0.756731,0.149368,-0.180344,-0.131454
360,3.6,-0.807918,0.9760770000000001,0.8723049999999999,0.2005,-0.155838,-0.137848
361,3.61,-0.923299,1.085341,0.866029,0.254837,-0.151581,-0.138916
362,3.62,-1.090765,1.078716,0.8343010000000001,0.289993,-0.11856099999999999,-0.116547
363,3.63,-1.1741,1.1306610000000001,0.734971,0.295319,-0.08554099999999999,-0.083527
364,3.64,-1.22757,1.054303,0.662895,0.274002,-0.058899,-0.046234
365,3.65,-1.284683,0.8975280000000001,0.7113149999999999,0.227142,-0.049316000000000006,-0.011093000000000002
366,3.66,-1.207101,0.8424590000000001,0.7918890000000001,0.16534400000000002,-0.08872999999999999,0.011292
367,3.67,-0.951925,0.85278,0.8776510000000001,0.126999,-0.17288199999999998,0.016617
368,3.68,-0.669954,0.960731,0.915766,0.10463,-0.25705,-0.014282
369,3.69,-0.461545,1.05934,0.847327,0.095047,-0.297516,-0.07820099999999999
370,3.7,-0.302485,1.3051139999999999,0.667853,0.09716799999999999,-0.278351,-0.143173
371,3.71,-0.261203,1.5287680000000001,0.45452,0.09079,-0.179276,-0.181534
372,3.72,-0.354786,1.680684,0.319945,0.050308,-0.003509999999999999,-0.199631
373,3.73,-0.613364,1.525275,0.271878,-0.015747000000000004,0.186111,-0.195374
374,3.74,-0.9513209999999999,1.071942,0.312355,-0.11801099999999999,0.337372,-0.160217
375,3.75,-1.142962,0.544825,0.582372,-0.23306300000000002,0.443909,-0.10375999999999999
376,3.76,-1.305168,-0.0075629999999999855,0.877807,-0.340652,0.471603,-0.040909
377,3.77,-1.171818,-0.49397700000000005,1.239007,-0.40029899999999996,0.37999,0.02301
378,3.78,-0.801489,-0.900709,1.5773549999999998,-0.382187,0.190369,0.070938
379,3.79,-0.229822,-1.073553,1.6467580000000002,-0.279922,-0.074875,0.06987
380,3.8,0.35593600000000003,-1.110292,1.358525,-0.11907999999999999,-0.324158,0.0070189999999999975
381,3.81,0.709336,-0.887135,0.936174,0.038589,-0.43174700000000005,-0.11440999999999997
382,3.82,0.809014,-0.527751,0.5279189999999999,0.183456,-0.360367,-0.246506
383,3.83,0.6226729999999999,-0.357902,0.10889800000000001,0.317688,-0.156906,-0.331726
384,3.84,0.268382,-0.162807,-0.252498,0.415695,0.136047,-0.369019
385,3.85,-0.10344399999999997,0.088009,-0.550895,0.461502,0.45668000000000003,-0.35197399999999995
386,3.86,-0.580393,0.08415700000000001,-0.765598,0.45723,0.744308,-0.25183099999999997
387,3.87,-0.937372,-0.04805,-0.8996850000000001,0.38798499999999997,0.9594879999999999,-0.090973
388,3.88,-1.006132,-0.41618299999999997,-0.872958,0.272949,1.051102,0.08904999999999999
389,3.89,-0.820084,-0.790982,-0.733418,0.13765,1.035126,0.24244699999999997
390,3.9,-0.651053,-1.1492790000000002,-0.627743,-0.0018920000000000048,0.909424,0.341522
391,3.91,-0.479307,-1.393907,-0.5569930000000001,-0.133987,0.693176,0.392654
392,3.92,-0.288773,-1.5241930000000001,-0.522885,-0.246902,0.409821,0.41395600000000005
393,3.93,-0.157686,-1.643623,-0.585591,-0.335327,0.138168,0.405426
394,3.94,-0.010540000000000008,-1.6002049999999999,-0.557248,-0.403503,-0.038666000000000006,0.385193
395,3.95,-0.031647,-1.5197690000000001,-0.548188,-0.420547,-0.091919,0.370285
396,3.96,-0.087483,-1.478998,-0.511616,-0.40669299999999997,-0.05571,0.382004
397,3.97,-0.143188,-1.437989,-0.47587700000000005,-0.357697,0.035904000000000005,0.402237
398,3.98,-0.120572,-1.379472,-0.40354,-0.274597,0.180786,0.425674
399,3.99,0.0018550000000000023,-1.315839,-0.246047,-0.168076,0.388504,0.455505
400,4.0,0.11577799999999999,-1.266419,-0.164524,-0.049835,0.625,0.47148100000000004
401,4.01,0.067824,-1.252875,-0.12328099999999999,0.06308,0.8359219999999999,0.466156
402,4.02,0.080341,-1.105,-0.08279500000000001,0.138718,0.992508,0.46827700000000005
403,4.03,0.0012959999999999949,-0.959772,-0.027925,0.184525,1.0425870000000002,0.467224
404,4.04,-0.009896999999999996,-0.8850520000000001,-0.15149300000000002,0.2005,0.9776,0.46827700000000005
405,4.05,-0.005252000000000001,-0.6618890000000001,-0.28856,0.18238800000000002,0.858292,0.479996
406,4.06,0.025465,-0.458016,-0.461674,0.12060499999999999,0.720871,0.5002439999999999
407,4.07,0.11,-0.248619,-0.567248,0.04071,0.597305,0.523682
408,4.08,0.209191,-0.1019,-0.5600149999999999,-0.032791,0.512085,0.55777
409,4.09,0.344403,0.028119,-0.491392,-0.087112,0.502487,0.596115
410,4.1,0.48586899999999994,0.137945,-0.370662,-0.12013199999999999,0.549362,0.631271
411,4.11,0.719665,0.30236199999999996,-0.26337,-0.11801099999999999,0.6047520000000001,0.657898
412,4.12,0.8573200000000001,0.403771,-0.122376,-0.09137,0.671875,0.664291
413,4.13,0.948926,0.5407569999999999,-0.025752,-0.054091999999999994,0.7453770000000001,0.650436
414,4.14,0.9231950000000001,0.697372,0.11561700000000001,-0.012543,0.800766,0.632339
415,4.15,0.814203,0.776469,0.18971,0.033264,0.83699,0.620621
416,4.16,0.714068,0.9694290000000001,0.333827,0.060959000000000006,0.8518979999999999,0.618484
417,4.17,0.613963,1.034083,0.498176,0.068405,0.843369,0.629135
418,4.18,0.562599,1.112749,0.633033,0.071609,0.824203,0.646179
419,4.19,0.55908,1.07844,0.7244010000000001,0.067352,0.795441,0.6674800000000001
420,4.2,0.630781,1.0822260000000001,0.80888,0.04924,0.764542,0.677078
421,4.21,0.717434,1.0754860000000002,0.9812790000000001,0.022614,0.763474,0.672821
422,4.22,0.752051,0.9929969999999999,1.1642430000000001,-0.011489999999999998,0.774139,0.650436
423,4.23,0.799691,1.09986,1.513728,-0.021072,0.780518,0.606766
424,4.24,0.7906,1.291364,1.7909400000000002,0.010894999999999995,0.774139,0.54924
425,4.25,0.678037,1.440618,1.9264970000000001,0.09716799999999999,0.753891,0.504501
426,4.26,0.537794,1.48455,1.9008900000000002,0.190918,0.7869109999999999,0.487457
427,4.27,0.450671,1.413414,1.629376,0.281464,0.85083,0.499176
428,4.28,0.298545,1.091496,1.2457690000000001,0.33473200000000003,0.937119,0.519409
429,4.29,0.227394,0.726639,0.757464,0.307037,1.051102,0.521545
430,4.3,0.029988,0.350711,0.458042,0.19838,1.140579,0.49491899999999994
431,4.31,-0.24711999999999998,0.06733700000000001,0.351327,0.023665999999999996,1.201309,0.45018
432,4.32,-0.725588,-0.10986900000000001,0.581196,-0.174469,1.193848,0.405426
433,4.33,-1.250125,-0.15218900000000002,1.014002,-0.327866,1.100098,0.399048
434,4.34,-1.761151,-0.395009,1.486378,-0.396042,0.930725,0.428864
435,4.35,-1.984543,-0.46453,1.8506040000000001,-0.30336,0.521667,0.58226
436,4.36,-1.716736,-0.47632700000000006,1.697815,-0.161682,0.397034,0.6706850000000001
437,4.37,-1.242444,-0.47556000000000004,1.1838790000000001,-0.007217000000000001,0.359741,0.762299
438,4.38,-0.6430290000000001,-0.379197,0.46054300000000004,0.098236,0.405548,0.818756
439,4.39,-0.171868,-0.44492200000000004,-0.20263400000000004,0.113159,0.518463,0.820892
440,4.4,0.07074,-0.548952,-0.6637270000000001,0.050308,0.6580199999999999,0.774017
441,4.41,0.137047,-0.550593,-0.912049,-0.066879,0.790115,0.697311
442,4.42,0.018067000000000014,-0.580162,-0.8962100000000001,-0.217072,0.889175,0.60997
443,4.43,-0.42685200000000006,-0.744225,-0.5748439999999999,-0.375809,0.9424440000000001,0.52475
444,4.44,-0.9202739999999999,-0.8078569999999999,-0.098718,-0.5004430000000001,0.9424440000000001,0.45976300000000003
445,4.45,-1.292946,-0.9333889999999999,0.35595600000000005,-0.5696869999999999,0.889175,0.431
446,4.46,-1.5054290000000001,-0.991034,0.71818,-0.575012,0.7869109999999999,0.42781099999999994
447,4.47,-1.49583,-1.077534,0.818515,-0.516418,0.633514,0.429932
448,4.48,-1.37726,-1.187283,0.768951,-0.41628999999999994,0.49397299999999994,0.439514
449,4.49,-1.058451,-1.157327,0.460978,-0.291641,0.405548,0.443787
450,4.5,-0.7113010000000001,-1.078274,0.047656,-0.15956099999999998,0.368271,0.438461
451,4.51,-0.451917,-1.129003,-0.436482,-0.056228999999999994,0.384247,0.420349
452,4.52,-0.11010299999999999,-0.988066,-0.823274,0.011948,0.45242299999999996,0.386261
453,4.53,0.012786000000000002,-0.8381620000000001,-1.069441,0.060959000000000006,0.568542,0.331924
454,4.54,-0.07085,-0.795619,-1.253336,0.098236,0.696365,0.27760300000000004
455,4.55,-0.262237,-0.67399,-1.265588,0.132324,0.795441,0.244583
456,4.56,-0.492124,-0.606589,-1.2876610000000002,0.16429100000000002,0.8465729999999999,0.239258
457,4.57,-0.753502,-0.560369,-1.209152,0.180267,0.854034,0.252029
458,4.58,-0.9395709999999999,-0.45618100000000006,-1.1558979999999999,0.170685,0.838043,0.288254
459,4.59,-1.106458,-0.357416,-1.0768790000000001,0.15576199999999998,0.769867,0.346848
460,4.6,-1.101373,-0.33584899999999995,-0.949024,0.126999,0.696365,0.421417
461,4.61,-0.848994,-0.23655199999999998,-0.801466,0.093979,0.602631,0.499176
462,4.62,-0.610333,-0.286407,-0.767525,0.080124,0.48651099999999997,0.5439149999999999
463,4.63,-0.323648,-0.342102,-0.714767,0.073746,0.385315,0.570541
464,4.64,-0.012668000000000013,-0.27960100000000004,-0.642031,0.084396,0.308609,0.556702
465,4.65,0.245321,-0.201924,-0.637969,0.117416,0.250031,0.5204770000000001
466,4.66,0.49602399999999996,-0.12972899999999998,-0.6948529999999999,0.177063,0.204224,0.45762600000000003
467,4.67,0.694699,0.099412,-0.793664,0.239914,0.202087,0.380936
468,4.68,0.7588630000000001,0.379849,-0.839499,0.29425,0.261734,0.301041
469,4.69,0.679642,0.62554,-0.773714,0.33366399999999996,0.372528,0.231796
470,4.7,0.561747,0.851758,-0.627992,0.37094099999999997,0.482254,0.187057
471,4.71,0.37180599999999997,1.010538,-0.46856499999999995,0.40184000000000003,0.558945,0.170013
472,4.72,0.23801799999999998,1.099267,-0.319759,0.41674799999999995,0.586639,0.167877
473,4.73,0.096977,1.2168809999999999,-0.22111,0.405029,0.554688,0.174271
474,4.74,0.072012,1.2875,-0.10528299999999999,0.369888,0.474792,0.18917799999999999
475,4.75,0.112055,1.424568,-0.091999,0.31448400000000004,0.376785,0.20517
476,4.76,0.272471,1.584056,-0.047272,0.23353600000000002,0.269196,0.21581999999999998
477,4.77,0.286659,1.526858,0.201845,0.145111,0.176514,0.222214
478,4.78,0.367315,1.4137469999999999,0.549987,0.057755,0.119003,0.226471
479,4.79,0.581553,1.462032,0.8599899999999999,0.006621999999999999,0.035904000000000005,0.22007800000000002
480,4.8,0.9386190000000001,1.575713,1.1450420000000001,-0.00296,-0.06210300000000001,0.191315
481,4.81,1.1530040000000001,1.678437,1.23664,0.011948,-0.138794,0.12207
482,4.82,1.1802190000000001,1.710818,1.2297870000000002,0.037521,-0.184601,0.035782
483,4.83,1.0738940000000001,1.7508549999999998,1.091448,0.056701999999999995,-0.178207,-0.035583
484,4.84,0.861933,1.691461,1.0384120000000001,0.052428999999999996,-0.092987,-0.080322
485,4.85,0.50638,1.463794,1.103421,0.019409,0.052948000000000016,-0.119736
486,4.86,0.12222399999999994,1.2321600000000001,1.26536,-0.015747,0.182907,-0.135727
487,4.87,-0.202443,0.9035030000000001,1.483195,-0.040237,0.245758,-0.115479
488,4.88,-0.38448699999999997,0.601079,1.595171,-0.055161,0.23936500000000002,-0.067551
489,4.89,-0.240498,0.395982,1.66288,-0.056228999999999994,0.148819,-0.019608
490,4.9,-0.0486,0.206671,1.611677,-0.03598,-0.009902999999999995,0.021942
491,4.91,0.247198,0.08431699999999999,1.472641,0.011948,-0.168625,0.038986
492,4.92,0.48131499999999994,0.02019,1.199077,0.053497,-0.255981,0.035782
493,4.93,0.597468,-0.10155700000000001,0.890783,0.095047,-0.275146,0.021942
494,4.94,0.662317,-0.2643,0.576577,0.125931,-0.219757,0.015549
495,4.95,0.741165,-0.503913,0.328838,0.13552899999999998,-0.098312,0.016617
496,4.96,0.757332,-0.6759539999999999,0.07960700000000001,0.13125599999999998,0.031647000000000015,0.0016939999999999993
497,4.97,0.650396,-0.8552770000000001,-0.060458000000000005,0.09930399999999999,0.131775,-0.03451499999999999
498,4.98,0.370925,-1.1204379999999998,-0.143529,0.041779000000000004,0.196762,-0.079269
499,4.99,-0.020894,-1.343876,-0.13871,-0.034912,0.208481,-0.11761500000000001
500,5.0,-0.327807,-1.471135,-0.056262,-0.09564199999999999,0.16053800000000001,-0.146378
501,5.01,-0.53098,-1.4939069999999999,0.065102,-0.11055,0.098755,-0.154892
502,5.02,-0.619421,-1.5701969999999998,0.025291,-0.079666,0.026321,-0.137848
503,5.03,-0.554236,-1.6732330000000002,-0.11465,-0.031723,-0.041855,-0.10482799999999999
504,5.04,-0.27578,-1.7202119999999999,-0.603639,0.034317,-0.119629,-0.068604
505,5.05,-0.021983000000000003,-1.739134,-0.827103,0.058823,-0.082336,-0.050506999999999996
506,5.06,0.162278,-1.688651,-1.033611,0.06628400000000001,0.0028839999999999977,-0.033463
507,5.07,0.279975,-1.7022709999999999,-1.040633,0.064148,0.09661900000000001,-0.019608
508,5.08,0.336283,-1.667915,-0.921765,0.062027,0.180786,-0.0004270000000000003
509,5.09,0.447298,-1.650889,-0.701179,0.059891,0.23617600000000002,0.029388
510,5.1,0.561357,-1.6571790000000002,-0.4678,0.076935,0.242569,0.060287
511,5.11,0.635893,-1.679921,-0.326385,0.10783399999999999,0.20741300000000001,0.092239
512,5.12,0.7469640000000001,-1.6862099999999998,-0.326316,0.13446,0.158417,0.12207
513,5.13,0.824428,-1.602044,-0.343393,0.149368,0.115799,0.13911400000000002
514,5.14,0.867519,-1.484566,-0.36457,0.146179,0.066803,0.15403699999999998
515,5.15,0.8450190000000001,-1.319128,-0.315607,0.149368,0.022064,0.161484
516,5.16,0.821809,-1.078459,-0.36135100000000003,0.157898,-0.019485,0.167877
517,5.17,0.8949360000000001,-0.905718,-0.476975,0.180267,-0.042923,0.193451
518,5.18,1.0727659999999999,-0.689094,-0.5904520000000001,0.20263699999999998,-0.030136,0.222214
519,5.19,1.3080399999999999,-0.5160100000000001,-0.699682,0.210098,0.019928,0.236053
520,5.2,1.472116,-0.4154,-0.688233,0.203705,0.092361,0.231796
521,5.21,1.603636,-0.256772,-0.558702,0.185593,0.17971800000000002,0.20835900000000002
522,5.22,1.630774,-0.090796,-0.372919,0.162155,0.250031,0.174271
523,5.23,1.5234450000000002,0.039264999999999994,-0.06186700000000001,0.145111,0.2724,0.136993
524,5.24,1.463993,0.35537300000000005,0.207441,0.136597,0.26387,0.103958
525,5.25,1.386343,0.627218,0.367084,0.13552899999999998,0.23191799999999999,0.076263
526,5.26,1.181734,0.9214319999999999,0.632692,0.12380999999999999,0.222321,0.050705
527,5.27,1.0333290000000002,1.092403,0.821514,0.114212,0.22978200000000001,0.042175
528,5.28,0.854557,1.227162,0.945808,0.11528,0.24043299999999998,0.046432
529,5.29,0.66672,1.3681969999999999,0.9786100000000001,0.098236,0.264938,0.062424
530,5.3,0.47967200000000004,1.394668,1.011642,0.060959000000000006,0.280914,0.087982
531,5.31,0.357503,1.4081110000000001,1.053117,0.0076899999999999955,0.261734,0.119949
532,5.32,0.391817,1.613375,1.103918,-0.050903,0.204224,0.141251
533,5.33,0.44998599999999994,1.616899,1.064398,-0.099899,0.097687,0.142319
534,5.34,0.44113500000000005,1.7737990000000001,0.996934,-0.153168,0.059341,0.127396
535,5.35,0.5676979999999999,1.9847759999999999,0.856984,-0.21601900000000002,0.045486,0.10609400000000001
536,5.36,0.407624,1.827135,0.81976,-0.26927199999999996,0.054015999999999995,0.086914
537,5.37,0.21452800000000002,1.680808,0.674096,-0.317215,0.100891,0.067749
538,5.38,-0.248502,1.315217,0.7407,-0.382187,0.17865,0.043243000000000004
539,5.39,-0.6726800000000001,0.924592,0.82811,-0.42266800000000004,0.22338899999999998,0.017669999999999998
540,5.4,-1.26526,0.46982700000000005,0.9842700000000001,-0.43652299999999994,0.186111,0.008087
541,5.41,-1.6978689999999999,0.11396099999999999,1.038394,-0.43866000000000005,0.10940599999999999,0.011292
542,5.42,-1.859336,0.006241,1.198423,-0.41201800000000005,-0.018417,0.03685
543,5.43,-1.8721700000000001,0.009362,1.192841,-0.328934,-0.184601,0.06987
544,5.44,-1.753832,0.08779400000000001,1.051504,-0.21281399999999998,-0.322021,0.107162
545,5.45,-1.50355,0.204925,0.73347,-0.09137,-0.37529,0.147644
546,5.46,-1.223588,0.18904,0.227785,0.015152,-0.363571,0.192383
547,5.47,-1.0260209999999998,0.23558400000000002,-0.27420700000000003,0.076935,-0.263428,0.236053
548,5.48,-0.829901,0.183705,-0.709201,0.068405,-0.105774,0.279724
549,5.49,-0.552365,-0.021745,-0.921919,0.023666,0.05401599999999998,0.309555
550,5.5,-0.43186899999999995,-0.253361,-1.005033,-0.051955999999999995,0.173325,0.30423
551,5.51,-0.420843,-0.460946,-0.9097149999999999,-0.147842,0.212738,0.249908
552,5.52,-0.531882,-0.651147,-0.6871550000000001,-0.23731999999999998,0.190369,0.18066400000000002
553,5.53,-0.779339,-0.766234,-0.514881,-0.310822,0.136047,0.11035199999999999
554,5.54,-1.160941,-0.87161,-0.267354,-0.372604,0.072128,0.054962000000000004
555,5.55,-1.426554,-0.904273,-0.088772,-0.42587299999999995,0.027389999999999998,0.033661
556,5.56,-1.588862,-0.970498,0.080959,-0.443985,-0.0024410000000000005,0.041107
557,5.57,-1.6231149999999999,-1.005675,0.184657,-0.42587299999999995,-0.032272,0.064545
558,5.58,-1.530003,-1.100906,0.161716,-0.36302199999999996,-0.06955,0.09011799999999999
559,5.59,-1.226834,-1.123337,0.037077,-0.259689,-0.101517,0.118881
560,5.6,-0.8726510000000001,-1.110778,-0.24468900000000005,-0.132919,-0.10790999999999999,0.118881
561,5.61,-0.474106,-1.0900379999999998,-0.6189359999999999,-0.0061490000000000026,-0.087662,0.092239
562,5.62,-0.21804099999999998,-1.056875,-0.9900610000000001,0.086517,-0.040787000000000004,0.028336
563,5.63,-0.063092,-0.858899,-1.030225,0.13446,0.045486,-0.045181
564,5.64,-0.19194,-0.77032,-0.9729530000000001,0.17813099999999998,0.12645,-0.12294000000000001
565,5.65,-0.502931,-0.7166020000000001,-0.9692850000000001,0.227142,0.165863,-0.173004
566,5.66,-0.775879,-0.540795,-0.858399,0.24630700000000003,0.20527600000000001,-0.17514000000000002
567,5.67,-0.894592,-0.43035100000000004,-0.791821,0.253769,0.22978200000000001,-0.135727
568,5.68,-1.098116,-0.38372,-0.768806,0.262283,0.20634499999999997,-0.08992
569,5.69,-1.185575,-0.24310199999999998,-0.685014,0.255905,0.158417,-0.027069000000000003
570,5.7,-1.167745,-0.292585,-0.763889,0.259094,0.08277899999999999,0.047501
571,5.71,-1.01706,-0.281121,-0.8991979999999999,0.262283,-0.0013729999999999992,0.115677
572,5.72,-0.72311,-0.219052,-1.0317020000000001,0.24098200000000003,-0.071686,0.158295
573,5.73,-0.397124,-0.187434,-1.1703430000000001,0.218613,-0.117493,0.17533900000000002
574,5.74,-0.13816900000000001,-0.187746,-1.242057,0.18985,-0.143066,0.162552
575,5.75,0.07134899999999998,-0.085987,-1.266481,0.15683,-0.147324,0.124207
576,5.76,0.099986,0.027033,-1.1555950000000001,0.132324,-0.12281800000000001,0.06347699999999999
577,5.77,0.045047000000000004,0.168164,-0.903591,0.13125599999999998,-0.078079,0.002762000000000001
578,5.78,-0.17571199999999998,0.357956,-0.603643,0.158966,-0.021622,-0.047302
579,5.79,-0.490087,0.5430470000000001,-0.374691,0.22074899999999997,0.020996,-0.082458
580,5.8,-0.729288,0.827476,-0.19356600000000002,0.28785700000000003,0.073196,-0.07820099999999999
581,5.81,-0.9200799999999999,1.106259,-0.239323,0.343246,0.134979,-0.03772
582,5.82,-0.984482,1.3533709999999999,-0.365019,0.373077,0.171188,0.014481
583,5.83,-0.9386049999999999,1.57705,-0.4626,0.356033,0.210602,0.084793
584,5.84,-0.783799,1.745239,-0.483177,0.292114,0.261734,0.15403699999999998
585,5.85,-0.709069,1.722102,-0.41136300000000003,0.190918,0.257477,0.210495
586,5.86,-0.550496,1.6498279999999999,-0.22584200000000001,0.067352,0.212738,0.241379
587,5.87,-0.339422,1.5772190000000001,0.15565199999999998,-0.05728099999999999,0.12219200000000001,0.255234
588,5.88,-0.10252999999999997,1.609234,0.702996,-0.16275,-0.007766999999999995,0.23393200000000003
589,5.89,0.26968600000000004,1.810554,1.201595,-0.211746,-0.17395,0.167877
590,5.9,0.497688,1.87933,1.589842,-0.201096,-0.340134,0.06668099999999999
591,5.91,0.5548310000000001,1.972564,1.7002689999999998,-0.13931300000000002,-0.453049,-0.03772
592,5.92,0.6598729999999999,2.065089,1.602523,-0.071136,-0.463699,-0.11761500000000001
593,5.93,0.678381,2.0269150000000002,1.42194,-0.034912,-0.344391,-0.178329
594,5.94,0.356502,1.616082,1.416703,-0.040237,-0.10684200000000002,-0.224136
595,5.95,-0.17343199999999998,1.015091,1.5329760000000001,-0.065811,0.139236,-0.252899
596,5.96,-0.475293,0.580599,1.7460470000000001,-0.100967,0.285172,-0.24224899999999996
597,5.97,-0.575263,0.21481599999999998,2.054164,-0.115875,0.28624,-0.200699
598,5.98,-0.469541,-0.21146900000000002,2.1663099999999997,-0.092438,0.1371,-0.168747
599,5.99,-0.200107,-0.381648,2.022496,-0.022141,-0.126022,-0.162354
600,6.0,0.010074999999999994,-0.42648199999999997,1.743327,0.06628400000000001,-0.388077,-0.200699
601,6.01,0.137632,-0.381669,1.344483,0.139786,-0.544662,-0.240112
602,6.02,0.194863,-0.36893200000000004,0.934765,0.210098,-0.567032,-0.24971
603,6.03,0.346047,-0.342481,0.567088,0.260162,-0.473297,-0.243317
604,6.04,0.313628,-0.350314,0.284058,0.278275,-0.322021,-0.240112
605,6.05,0.11876500000000001,-0.588518,0.05238999999999998,0.28678899999999996,-0.166489,-0.207092
606,6.06,-0.007496999999999997,-0.711832,-0.260561,0.268677,-0.017365000000000002,-0.138916
607,6.07,-0.016640000000000002,-0.9632040000000001,-0.518278,0.201569,0.08596799999999999,-0.062225
608,6.08,0.04189,-1.250006,-0.6131770000000001,0.098236,0.12751800000000002,-0.024933
609,6.09,0.032829000000000004,-1.444188,-0.650166,-0.014678999999999998,0.10407999999999999,-0.034515
610,6.1,-0.182636,-1.630998,-0.485227,-0.122269,0.034836,-0.063278
611,6.11,-0.299529,-1.7140240000000002,-0.399623,-0.2043,-0.086594,-0.083527
612,6.12,-0.287099,-1.64525,-0.31193899999999997,-0.24903899999999998,-0.22296100000000002,-0.087784
613,6.13,-0.29444499999999996,-1.656284,-0.278936,-0.263947,-0.32309,-0.086716
614,6.14,-0.22514099999999998,-1.7229849999999998,-0.312027,-0.263947,-0.348648,-0.072876
615,6.15,-0.093457,-1.684782,-0.244198,-0.24050900000000003,-0.327347,-0.066483
616,6.16,-0.00944,-1.7667830000000002,-0.231354,-0.18618800000000002,-0.27302600000000005,-0.066483
617,6.17,0.005282,-1.766068,-0.20932800000000001,-0.099899,-0.19206199999999998,-0.07180800000000001
618,6.18,0.056047,-1.730723,-0.261833,0.004500999999999998,-0.080215,-0.07180800000000001
619,6.19,0.162105,-1.638148,-0.36946999999999997,0.100372,0.03803999999999999,-0.073929
620,6.2,0.191985,-1.526155,-0.585276,0.17494200000000001,0.153091,-0.07713300000000001
621,6.21,0.20978200000000002,-1.437454,-0.8198030000000001,0.21649200000000002,0.23191799999999999,-0.076065
622,6.22,0.23368200000000003,-1.294605,-0.991553,0.203705,0.268127,-0.067551
623,6.23,0.285938,-1.126863,-1.070482,0.147247,0.250031,-0.050506999999999996
624,6.24,0.337346,-0.996791,-1.128272,0.068405,0.173325,-0.031326
625,6.25,0.393811,-0.852139,-1.09691,-0.024261,0.0849,-0.004699999999999999
626,6.26,0.448133,-0.660338,-1.038735,-0.12013199999999999,-0.005645999999999997,0.018738
627,6.27,0.520454,-0.5678880000000001,-0.866166,-0.196838,-0.08340499999999999,0.034714
628,6.28,0.643008,-0.393787,-0.688052,-0.23199499999999998,-0.112167,0.046432
629,6.29,0.731248,-0.271175,-0.464154,-0.22560100000000002,-0.101517,0.053894000000000004
630,6.3,0.8412270000000001,-0.172841,-0.376606,-0.180862,-0.042923,0.053894000000000004
631,6.31,0.980366,-0.068861,-0.275696,-0.121201,0.043365,0.053894000000000004
632,6.32,0.997692,-0.034688,-0.219263,-0.060486,0.143494,0.046432
633,6.33,1.021731,-0.024753999999999998,-0.180308,0.0012969999999999993,0.216995,0.03685
634,6.34,1.0096610000000001,0.035798,-0.170799,0.053497,0.252151,0.024063
635,6.35,0.936051,0.202106,-0.011966000000000004,0.076935,0.285172,0.010223000000000001
636,6.36,0.738084,0.379608,0.18854200000000002,0.095047,0.290497,0.012343999999999999
637,6.37,0.619613,0.519033,0.305297,0.10250899999999999,0.261734,0.020874
638,6.38,0.628685,0.792018,0.41699200000000003,0.09930399999999999,0.218063,0.030456999999999998
639,6.39,0.7064699999999999,1.042816,0.445068,0.083328,0.182907,0.037918
640,6.4,0.729441,1.2589549999999998,0.49600200000000005,0.043914999999999996,0.17971800000000002,0.049637
641,6.41,0.642232,1.3524479999999999,0.5955590000000001,-0.024261,0.19250499999999998,0.058151
642,6.42,0.487321,1.427115,0.8452930000000001,-0.09137,0.21487399999999998,0.073074
643,6.43,0.31909,1.423994,1.11842,-0.13931300000000002,0.20741300000000001,0.107162
644,6.44,0.147668,1.3683450000000001,1.417215,-0.153168,0.166931,0.145508
645,6.45,0.045969,1.29027,1.6935470000000001,-0.133987,0.115799,0.187057
646,6.46,-0.027608,1.258693,1.871175,-0.07220499999999999,0.081711,0.22966
647,6.47,-0.0029609999999999984,1.282851,1.898638,0.025802999999999996,0.069992,0.268021
648,6.48,0.13927,1.5173780000000001,1.8142650000000002,0.136597,0.089172,0.302109
649,6.49,0.061762,1.54558,1.6314549999999999,0.223938,0.17013499999999998,0.319153
650,6.5,-0.074973,1.39511,1.3356219999999999,0.288925,0.288376,0.361755
651,6.51,-0.102284,1.248473,0.986395,0.318756,0.389572,0.42781099999999994
652,6.52,-0.097363,1.043457,0.806379,0.289993,0.449234,0.475739
653,6.53,-0.080968,0.736853,0.697847,0.21435500000000002,0.43324300000000004,0.488525
654,6.54,-0.094349,0.406816,0.627186,0.133392,0.31926,0.48213199999999995
655,6.55,0.018047999999999998,0.093561,0.600392,0.059891,0.153091,0.44590799999999997
656,6.56,0.13304100000000002,-0.029363999999999998,0.480116,0.0034329999999999986,-0.02694700000000001,0.359619
657,6.57,0.310553,-0.216239,0.250449,-0.018936,-0.189926,0.253098
658,6.58,0.444162,-0.243842,-0.027534000000000003,-0.022141,-0.27941900000000003,0.125275
659,6.59,0.509152,-0.216246,-0.4151250000000001,-0.040237,-0.264496,-0.011093000000000006
660,6.6,0.428063,-0.185758,-0.662507,-0.075394,-0.1633,-0.135727
661,6.61,0.334683,-0.13639500000000002,-0.8634200000000001,-0.11480699999999999,-0.019485,-0.24543800000000002
662,6.62,0.12178900000000001,-0.070885,-0.9831540000000001,-0.160614,0.11686700000000001,-0.33812
663,6.63,-0.183157,0.006449000000000003,-0.973979,-0.223465,0.216995,-0.406296
664,6.64,-0.502003,-0.040343999999999984,-0.883948,-0.284195,0.26387,-0.44891400000000004
665,6.65,-0.778809,-0.033614,-0.748975,-0.337448,0.260681,-0.460632
666,6.66,-0.994591,-0.153893,-0.6355430000000001,-0.376862,0.225525,-0.44891400000000004
667,6.67,-1.210954,-0.291659,-0.540585,-0.403503,0.157349,-0.413757
668,6.68,-1.3526690000000001,-0.404648,-0.445226,-0.42587299999999995,0.074249,-0.3573
669,6.69,-1.422277,-0.501844,-0.310977,-0.423737,-0.009903000000000002,-0.277405
670,6.7,-1.467159,-0.687276,-0.18246700000000002,-0.38858000000000004,-0.075943,-0.165543
671,6.71,-1.323056,-0.873567,-0.151057,-0.337448,-0.096191,-0.047302
672,6.72,-1.068643,-0.9757610000000001,-0.037461,-0.276733,-0.106842,0.031525
673,6.73,-0.9125040000000001,-1.058716,-0.010384999999999998,-0.192581,-0.105774,0.07733200000000001
674,6.74,-0.741961,-1.08413,0.014362000000000003,-0.090317,-0.100449,0.121002
675,6.75,-0.606591,-1.06954,-0.099495,0.036453,-0.087662,0.158295
676,6.76,-0.458375,-1.1136540000000001,-0.35422299999999995,0.168549,-0.106842,0.184921
677,6.77,-0.255971,-1.105114,-0.763735,0.266556,-0.129211,0.211548
678,6.78,-0.063976,-1.074128,-1.1761840000000001,0.315552,-0.128143,0.231796
679,6.79,0.170723,-1.006589,-1.540087,0.309158,-0.117493,0.22966
680,6.8,0.245075,-0.98667,-1.812948,0.26442,-0.10363800000000001,0.20729099999999998
681,6.81,0.278827,-0.975331,-1.914082,0.18238800000000002,-0.077011,0.164688
682,6.82,0.24065799999999998,-0.841671,-1.734907,0.083328,-0.050385,0.10609400000000001
683,6.83,-0.0003980000000000095,-0.8048350000000001,-1.470572,0.006622000000000003,-0.038666000000000006,0.042175
684,6.84,-0.22265,-0.755088,-1.096282,-0.025330000000000002,-0.050385,-0.003631999999999996
685,6.85,-0.38117399999999996,-0.624925,-0.751476,-0.014679,-0.065292,-0.020676
686,6.86,-0.42291000000000006,-0.560866,-0.5392859999999999,0.024734,-0.08554099999999999,-0.039841
687,6.87,-0.454697,-0.479562,-0.471341,0.081192,-0.10363800000000001,-0.047302
688,6.88,-0.400608,-0.275681,-0.510691,0.125931,-0.091919,-0.057953
689,6.89,-0.30725399999999997,-0.046528,-0.566048,0.153641,-0.067429,-0.080322
690,6.9,-0.26612800000000003,0.21535,-0.642007,0.17601,-0.070618,-0.11761500000000001
691,6.91,-0.249919,0.57262,-0.7188319999999999,0.16641199999999998,-0.064224,-0.147446
692,6.92,-0.305471,0.8956270000000001,-0.53033,0.142975,-0.032272,-0.16128499999999998
693,6.93,-0.449334,1.171401,-0.268293,0.133392,-0.0045780000000000005,-0.15596
694,6.94,-0.566079,1.3136700000000001,-0.11223,0.142975,-0.006698999999999999,-0.124008
695,6.95,-0.578228,1.4458389999999999,0.009915,0.145111,-0.012039,-0.076065
696,6.96,-0.479784,1.5622280000000002,0.070517,0.132324,-0.025879000000000003,-0.026001
697,6.97,-0.428727,1.451962,0.11853599999999999,0.10356099999999999,-0.053574000000000004,0.011292
698,6.98,-0.41894,1.400735,0.41762299999999997,0.050307999999999985,-0.048248,0.043243000000000004
699,6.99,-0.355392,1.266748,0.722767,0.006621999999999999,-0.061035,0.056029999999999996
700,7.0,-0.339498,1.169665,1.035112,-0.023193000000000002,-0.089798,0.053894000000000004
701,7.01,-0.192179,1.201107,1.294555,-0.025330000000000002,-0.131348,0.032593000000000004
702,7.02,0.072129,1.3852309999999999,1.424726,0.0076900000000000015,-0.212296,-0.010025
703,7.03,0.313875,1.667846,1.360871,0.056701999999999995,-0.271957,-0.07713300000000001
704,7.04,0.40477199999999997,1.976691,1.155933,0.091843,-0.262375,-0.149567
705,7.05,0.37107399999999996,2.14197,0.8655450000000001,0.091843,-0.19313,-0.192184
706,7.06,0.29370599999999997,2.152386,0.676071,0.051361000000000004,-0.05250499999999998,-0.209229
707,7.07,-0.067687,1.9631759999999998,0.756576,-0.053024,0.154144,-0.203903
708,7.08,-0.653623,1.390383,1.026632,-0.19577,0.351227,-0.168747
709,7.09,-1.111626,0.6933050000000001,1.546059,-0.341721,0.464142,-0.084595
710,7.1,-1.098149,0.10844099999999998,2.046453,-0.44078100000000003,0.402359,0.005965999999999999
711,7.11,-0.721908,-0.036116,2.495793,-0.454636,0.148819,0.049637
712,7.12,-0.35906,-0.281384,2.612967,-0.37153600000000003,-0.20484899999999998,0.031525
713,7.13,-0.007739999999999969,-0.45481400000000005,2.375897,-0.198975,-0.519104,-0.004699999999999999
714,7.14,0.401775,-0.35722800000000005,1.748529,0.0012970000000000065,-0.6714319999999999,-0.043045
715,7.15,0.7607010000000001,-0.161184,1.021105,0.170685,-0.613907,-0.076065
716,7.16,0.980301,-0.161941,0.24681699999999995,0.268677,-0.384872,-0.099503
717,7.17,1.1214709999999999,-0.174273,-0.325909,0.282532,-0.06742900000000003,-0.10375999999999999
718,7.18,1.11049,-0.40560999999999997,-0.787853,0.172806,0.33844,-0.105896
719,7.19,0.887592,-0.771254,-0.763422,0.034317,0.44603000000000004,-0.11761500000000001
720,7.2,0.5740460000000001,-1.096522,-0.503674,-0.121201,0.403427,-0.132523
721,7.21,0.306616,-1.43885,-0.211321,-0.22985799999999998,0.24150100000000002,-0.146378
722,7.22,0.233001,-1.6067870000000002,0.11200299999999999,-0.285248,0.039108,-0.154892
723,7.23,0.189771,-1.709338,0.24219699999999997,-0.27887,-0.16436800000000001,-0.163422
724,7.24,0.22971,-1.871557,0.19322,-0.230927,-0.358246,-0.17514000000000002
725,7.25,0.367383,-1.901931,0.06349400000000001,-0.145706,-0.462631,-0.190048
726,7.26,0.537641,-1.841859,-0.191497,-0.050903,-0.44986000000000004,-0.212418
727,7.27,0.582637,-1.8869999999999998,-0.49963900000000006,0.043914999999999996,-0.35078400000000004,-0.23053
728,7.28,0.561837,-1.8236689999999998,-0.697138,0.121674,-0.19632,-0.24224899999999996
729,7.29,0.470554,-1.816087,-0.813573,0.184525,-0.034408999999999995,-0.246506
730,7.3,0.36982,-1.81905,-0.89875,0.2314,0.092361,-0.247574
731,7.31,0.326454,-1.7386970000000002,-1.0141639999999998,0.25802600000000003,0.162674,-0.236923
732,7.32,0.247259,-1.688235,-0.9850450000000001,0.260162,0.181839,-0.22094699999999998
733,7.33,0.216804,-1.530585,-0.854383,0.24098200000000003,0.182907,-0.202835
734,7.34,0.21052300000000002,-1.329821,-0.717221,0.22286999999999998,0.129654,-0.187912
735,7.35,0.02387800000000001,-1.0827129999999998,-0.580056,0.22500599999999998,0.050812,-0.163422
736,7.36,-0.054024,-0.8673299999999999,-0.608689,0.22286999999999998,-0.022690000000000002,-0.118683
737,7.37,-0.015018000000000004,-0.627864,-0.758368,0.206894,-0.089798,-0.052627999999999994
738,7.38,0.098624,-0.497891,-0.848151,0.171738,-0.12175,0.009155
739,7.39,0.22744899999999998,-0.329361,-0.921741,0.121674,-0.117493,0.05603000000000001
740,7.4,0.357428,-0.157586,-0.869822,0.076935,-0.086594,0.085846
741,7.41,0.476409,-0.046072,-0.790229,0.051361000000000004,-0.042923,0.112488
742,7.42,0.6053970000000001,0.03211,-0.73629,0.032195999999999995,0.002884000000000001,0.131653
743,7.43,0.789358,0.140741,-0.671014,0.019409,0.046555,0.145508
744,7.44,0.9126049999999999,0.289348,-0.5677449999999999,0.0023649999999999986,0.098755,0.15509
745,7.45,0.933499,0.311313,-0.5027159999999999,-0.013611000000000002,0.133911,0.16362000000000002
746,7.46,0.890442,0.367605,-0.35802,-0.034912,0.152023,0.17108199999999998
747,7.47,0.851925,0.435778,-0.215075,-0.05835,0.150955,0.17640699999999998
748,7.48,0.8478049999999999,0.467875,-0.010254000000000001,-0.07753,0.134979,0.170013
749,7.49,0.748247,0.61373,0.242868,-0.09350599999999999,0.12858599999999998,0.16362000000000002
750,7.5,0.586852,0.7232930000000001,0.559557,-0.099899,0.139236,0.160416
751,7.51,0.43860200000000005,0.8573459999999999,0.751207,-0.089249,0.14562999999999998,0.15509
752,7.52,0.344471,1.013411,0.902279,-0.084991,0.157349,0.145508
753,7.53,0.14356300000000002,1.22759,1.045264,-0.087112,0.17865,0.12846400000000002
754,7.54,-0.01970799999999999,1.496979,1.139808,-0.088181,0.198898,0.11355599999999999
755,7.55,-0.063625,1.808432,1.195698,-0.082855,0.213806,0.12207
756,7.56,-0.11188699999999999,1.956869,1.200561,-0.075394,0.252151,0.151901
757,7.57,-0.09718500000000001,1.9722169999999999,1.0867229999999999,-0.074326,0.299026,0.199844
758,7.58,0.02165665313715114,1.768062002460424,0.8530520327013914,-0.079666,0.329926,0.257355
759,7.59,0.228607,1.416431,0.487687,-0.125473,0.372528,0.28932199999999997
760,7.6,0.234523,0.9913420000000001,0.377751,-0.230927,0.43218999999999996,0.27760300000000004
761,7.61,-0.023326000000000013,0.38955700000000004,0.432283,-0.358765,0.45242299999999996,0.22859200000000002
762,7.62,-0.467033,-0.05826100000000003,0.610762,-0.477005,0.407684,0.160416
763,7.63,-0.887871,-0.256552,0.9597870000000001,-0.5696869999999999,0.308609,0.086914
764,7.64,-1.373419,-0.23346999999999998,1.441411,-0.58992,0.173325,0.040054
765,7.65,-1.749448,-0.08695,1.655468,-0.511093,-0.006698999999999997,0.042175
766,7.66,-1.8568419999999999,0.010612000000000005,1.5827799999999999,-0.349167,-0.175018,0.101837
767,7.67,-1.67737,0.22990100000000002,1.231748,-0.16381800000000002,-0.20484899999999998,0.193451
768,7.68,-1.367608,0.430392,0.74947,-0.010422,-0.12495399999999998,0.266953
769,7.69,-1.142133,0.37702399999999997,0.171008,0.098236,0.03910799999999999,0.335129
770,7.7,-0.759085,0.421961,-0.489852,0.126999,0.242569,0.402237
771,7.71,-0.411869,0.351317,-0.9398629999999999,0.052428999999999996,0.437515,0.43525699999999995
772,7.72,-0.281902,0.25416700000000003,-1.116114,-0.121201,0.554688,0.420349
773,7.73,-0.29391799999999996,0.025117,-1.038151,-0.338516,0.544037,0.380936
774,7.74,-0.402088,-0.22018400000000002,-0.7398939999999999,-0.554764,0.427917,0.32341
775,7.75,-0.474979,-0.46521999999999997,-0.274347,-0.7454529999999999,0.228714,0.24563600000000002
776,7.76,-0.658829,-0.565246,0.28426999999999997,-0.860504,0.0007479999999999988,0.142319
777,7.77,-0.972984,-0.677516,0.751174,-0.86795,-0.22189299999999998,0.037918
778,7.78,-1.233575,-0.6896720000000001,1.062956,-0.760361,-0.37635799999999997,-0.030257999999999997
779,7.79,-1.304383,-0.630868,0.9314950000000001,-0.549438,-0.438141,-0.048369999999999996
780,7.8,-1.20736,-0.513777,0.570475,-0.284195,-0.394455,-0.036652
781,7.81,-0.8867799999999999,-0.41971899999999995,0.05905900000000003,-0.01574700000000001,-0.235733,-0.020676
782,7.82,-0.5534600000000001,-0.372265,-0.5241680000000001,0.21542399999999998,0.009276999999999994,-0.013213999999999998
783,7.83,-0.217472,-0.36480500000000005,-1.1073680000000001,0.40184000000000003,0.27665700000000004,-0.014282
784,7.84,-0.17438399999999998,-0.397154,-1.57122,0.519012,0.48651099999999997,-0.019608
785,7.85,-0.14111700000000002,-0.457392,-1.961846,0.536057,0.625,-0.020676
786,7.86,-0.208071,-0.514358,-2.098102,0.470016,0.668671,-0.012145999999999999
787,7.87,-0.289684,-0.5426850000000001,-1.992806,0.35389699999999996,0.627121,0.007019
788,7.88,-0.41817,-0.532906,-1.6704849999999998,0.22286999999999998,0.513138,0.033661
789,7.89,-0.499155,-0.5684939999999999,-1.295591,0.11955299999999999,0.334183,0.064545
790,7.9,-0.5845,-0.509009,-0.8594450000000001,0.071609,0.111542,0.092239
791,7.91,-0.670758,-0.524305,-0.677937,0.07267799999999999,-0.08233599999999999,0.127396
792,7.92,-0.551362,-0.5474760000000001,-0.6219520000000001,0.11848399999999999,-0.234665,0.17640699999999998
793,7.93,-0.235114,-0.494353,-0.8187409999999999,0.18985,-0.310303,0.214752
794,7.94,0.141833,-0.399278,-1.036483,0.24418600000000001,-0.29539499999999996,0.236053
795,7.95,0.459873,-0.32832,-1.238397,0.270813,-0.22615100000000002,0.226471
796,7.96,0.623386,-0.287436,-1.369494,0.277206,-0.128143,0.18917799999999999
797,7.97,0.702764,-0.112329,-1.254433,0.267624,-0.018417000000000003,0.138046
798,7.98,0.7485890000000001,0.005502,-1.161196,0.270813,0.058273,0.07733200000000001
799,7.99,0.6516270000000001,0.140322,-0.978042,0.266556,0.09661900000000001,0.008087000000000004
800,8.0,0.472063,0.362662,-0.8490709999999999,0.239914,0.100891,-0.05583200000000001
801,8.01,0.243148,0.6249399999999999,-0.682222,0.20903000000000002,0.056152,-0.10057100000000001
802,8.02,-0.138208,0.8977930000000001,-0.43674799999999997,0.180267,-0.017365000000000002,-0.10908499999999999
803,8.03,-0.389522,1.083926,-0.233654,0.147247,-0.096191,-0.07713300000000001
804,8.04,-0.555631,1.23186,0.021104000000000008,0.11955299999999999,-0.168625,-0.024933
805,8.05,-0.711168,1.341739,0.183042,0.10676600000000001,-0.2155,0.04324299999999999
806,8.06,-0.580685,1.359159,0.33528,0.100372,-0.2155,0.11781300000000001
807,8.07,-0.281249,1.3982729999999999,0.521459,0.087585,-0.16755699999999998,0.18066400000000002
808,8.08,0.138706,1.5013040000000002,0.792928,0.080124,-0.128143,0.192383
809,8.09,0.656148,1.773521,1.128339,0.07586699999999999,-0.131348,0.152969
810,8.1,1.0063440000000001,2.067323,1.3308870000000002,0.09716799999999999,-0.156906,0.07733200000000001
811,8.11,1.203557,2.211341,1.304557,0.13125599999999998,-0.189926,-0.018539
812,8.12,1.153334,2.281301,1.190655,0.12806700000000001,-0.15477,-0.116547
813,8.13,0.86049,2.081809,1.056093,0.073746,-0.041855,-0.201767
814,8.14,-0.0005249999999999977,1.4707860000000001,1.213718,-0.030654999999999995,0.148819,-0.268875
815,8.15,-0.689438,0.9321940000000001,1.443899,-0.16488599999999998,0.308609,-0.277405
816,8.16,-1.241591,0.192027,1.952916,-0.300171,0.42152399999999995,-0.21562199999999998
817,8.17,-1.158307,-0.134952,2.306479,-0.361954,0.30648800000000004,-0.141052
818,8.18,-0.664906,-0.21272800000000003,2.506538,-0.337448,0.040161,-0.07713300000000001
819,8.19,-0.08277800000000002,-0.349481,2.2681419999999997,-0.258621,-0.309235,-0.056885000000000005
820,8.2,0.581753,-0.403522,1.775614,-0.142517,-0.628815,-0.086716
821,8.21,1.246233,-0.11423699999999999,1.130671,-0.038116000000000004,-0.766235,-0.163422
822,8.22,1.475119,0.154222,0.569466,0.026871,-0.688477,-0.266754
823,8.23,1.237527,0.200006,0.06165300000000001,0.04924,-0.479675,-0.354095
824,8.24,0.85459,0.14851,-0.204177,0.020477000000000002,-0.232544,-0.39245599999999997
825,8.25,0.43932299999999996,0.06194100000000001,-0.24866799999999997,-0.024261,0.0007479999999999988,-0.380737
826,8.26,0.040611000000000015,-0.155437,-0.188093,-0.083923,0.198898,-0.332794
827,8.27,-0.250217,-0.52273,-0.091783,-0.15956099999999998,0.275589,-0.26461799999999996
828,8.28,-0.34165,-0.896573,-0.053020000000000005,-0.236252,0.189301,-0.202835
829,8.29,-0.265569,-1.383382,0.055688999999999995,-0.33319099999999996,-0.10897799999999999,-0.157028
830,8.3,-0.14967400000000006,-1.6143,0.133024,-0.370483,-0.316696,-0.151703
831,8.31,0.022790000000000005,-1.7470150000000002,0.182733,-0.35981799999999997,-0.486069,-0.17086800000000002
832,8.32,0.289445,-1.7125240000000002,0.21846,-0.300171,-0.563843,-0.200699
833,8.33,0.404041,-1.6495259999999998,0.179275,-0.19577,-0.549988,-0.236923
834,8.34,0.36096300000000003,-1.567648,0.076973,-0.079666,-0.450928,-0.275269
835,8.35,0.304451,-1.497922,-0.072636,0.028992,-0.309235,-0.29657
836,8.36,0.17488599999999999,-1.416533,-0.052734,0.146179,-0.14518699999999998,-0.300842
837,8.37,-0.049065,-1.45137,-0.03704,0.26123,0.040161,-0.283798
838,8.38,-0.206931,-1.5667229999999999,-0.065302,0.350708,0.17439300000000002,-0.250763
839,8.39,-0.35293,-1.581518,-0.13588499999999998,0.411423,0.21166999999999997,-0.216675
840,8.4,-0.397621,-1.555345,-0.177601,0.45510900000000004,0.181839,-0.191116
841,8.41,-0.445517,-1.4454360000000002,-0.263961,0.475342,0.120056,-0.15809600000000001
842,8.42,-0.443485,-1.342402,-0.476117,0.485992,0.030578999999999995,-0.10803199999999999
843,8.43,-0.335702,-1.2048379999999999,-0.766675,0.470016,-0.067429,-0.03772
844,8.44,-0.165204,-1.108223,-1.0447389999999999,0.41781599999999997,-0.16436800000000001,0.032593000000000004
845,8.45,0.06673899999999999,-0.931773,-1.189337,0.340057,-0.232544,0.098633
846,8.46,0.366319,-0.805929,-1.176432,0.267624,-0.27302600000000005,0.162552
847,8.47,0.689122,-0.8203159999999999,-1.11695,0.21221900000000002,-0.268753,0.201965
848,8.48,1.011477,-0.773433,-1.053305,0.183456,-0.212296,0.209427
849,8.49,1.204576,-0.630944,-0.9887309999999999,0.160019,-0.105774,0.187057
850,8.5,1.334276,-0.45431400000000005,-0.787363,0.144043,0.043365,0.15509
851,8.51,1.3302200000000002,-0.334294,-0.561549,0.151505,0.17865,0.12846400000000002
852,8.52,1.1547,-0.12669,-0.300025,0.173874,0.26387,0.099701
853,8.53,0.9701549999999999,0.034216,-0.077269,0.19838,0.289444,0.085846
854,8.54,0.887151,0.21029099999999998,0.21132800000000002,0.223938,0.269196,0.084793
855,8.55,0.8910290000000001,0.36412,0.335565,0.24951199999999998,0.21166999999999997,0.0784
856,8.56,0.9130809999999999,0.551981,0.44815600000000005,0.24418600000000001,0.17546099999999998,0.067749
857,8.57,0.863554,0.777369,0.53058,0.210098,0.166931,0.064545
858,8.58,0.8341629999999999,0.9427459999999999,0.606345,0.15576199999999998,0.169067,0.070938
859,8.59,0.8308479999999999,1.106351,0.664134,0.087585,0.164795,0.081589
860,8.6,0.9458290000000001,1.4626059999999999,0.7474609999999999,0.0023649999999999986,0.166931,0.084793
861,8.61,1.053123,1.8610470000000001,0.928391,-0.073273,0.167999,0.0784
862,8.62,1.0162790000000002,1.961475,1.0807639999999998,-0.13931300000000002,0.17546099999999998,0.067749
863,8.63,1.07769,2.048877,1.281901,-0.198975,0.204224,0.06987
864,8.64,1.0979889999999999,1.9526560000000002,1.435826,-0.239456,0.245758,0.076263
865,8.65,1.048567,1.635507,1.49522,-0.282059,0.27665700000000004,0.061355999999999994
866,8.66,0.8010079999999999,1.182684,1.6659970000000002,-0.35130300000000003,0.320328,0.024063
867,8.67,0.36285300000000004,0.57819,1.978118,-0.429062,0.322464,-0.032394
868,8.68,-0.2059,0.140127,2.3397919999999996,-0.467422,0.23191799999999999,-0.093109
869,8.69,-0.656931,-0.19021500000000002,2.599384,-0.442917,0.058272999999999985,-0.137848
870,8.7,-0.8562379999999999,-0.382632,2.705304,-0.335327,-0.183533,-0.167679
871,8.71,-0.784963,-0.16248399999999996,2.4013970000000002,-0.153168,-0.43493699999999996,-0.173004
872,8.72,-0.559713,0.036389000000000005,1.8039049999999999,0.044982999999999995,-0.645859,-0.17514000000000002
873,8.73,-0.288526,0.28379699999999997,1.068602,0.186661,-0.689545,-0.17514000000000002
874,8.74,-0.022354999999999986,0.5290189999999999,0.31521800000000005,0.265488,-0.603256,-0.16661099999999998
875,8.75,0.135356,0.631263,-0.34626999999999997,0.268677,-0.47009300000000004,-0.149567
876,8.76,0.17703,0.672367,-0.813441,0.195175,-0.307114,-0.131454
877,8.77,0.10959200000000001,0.495274,-1.069531,0.054564999999999995,-0.161163,-0.090973
878,8.78,0.032832,0.306752,-1.108708,-0.132919,-0.098312,-0.05583200000000001
879,8.79,-0.06287100000000001,0.0005739999999999912,-0.774325,-0.330002,-0.141998,-0.034515
880,8.8,-0.12856900000000002,-0.329322,-0.34657,-0.5015109999999999,-0.278351,-0.019608
881,8.81,-0.173343,-0.67425,0.092782,-0.6165470000000001,-0.47862200000000005,-0.028137
882,8.82,-0.080118,-0.898917,0.5285880000000001,-0.6698149999999999,-0.67569,-0.053696
883,8.83,-0.059606999999999986,-1.195049,0.8758600000000001,-0.638916,-0.855728,-0.093109
884,8.84,-0.04451,-1.460351,0.960468,-0.53772,-1.016571,-0.147446
885,8.85,0.11224300000000001,-1.598206,0.828253,-0.382187,-1.117783,-0.20815999999999998
886,8.86,0.33989899999999995,-1.630262,0.497254,-0.2043,-1.124161,-0.271011
887,8.87,0.577984,-1.543591,0.06819799999999998,-0.031723,-1.040009,-0.339188
888,8.88,0.7792979999999999,-1.484458,-0.351786,0.129135,-0.8898159999999999,-0.4095
889,8.89,0.906489,-1.4497309999999999,-0.7317819999999999,0.26974499999999996,-0.674622,-0.465958
890,8.9,0.991632,-1.318411,-1.090435,0.35817,-0.44986000000000004,-0.514954
891,8.91,1.027385,-1.171707,-1.312427,0.395447,-0.29539499999999996,-0.557571
892,8.92,0.8293299999999999,-1.167311,-1.35206,0.37840300000000004,-0.232544,-0.5916600000000001
893,8.93,0.616267,-1.119953,-1.247249,0.321945,-0.262375,-0.611893
894,8.94,0.404915,-1.072998,-1.102203,0.25802600000000003,-0.387009,-0.608704
895,8.95,0.149277,-1.053886,-0.968356,0.191986,-0.5553130000000001,-0.5916600000000001
896,8.96,-0.037687,-1.0033290000000001,-0.8440790000000001,0.122742,-0.705521,-0.56076
897,8.97,-0.045515,-0.8948969999999999,-0.78214,0.06628400000000001,-0.8397370000000001,-0.505371
898,8.98,0.06526799999999999,-0.8658969999999999,-0.658857,0.036453,-0.943069,-0.457428
899,8.99,0.262623,-0.842923,-0.636998,0.01622,-0.988876,-0.426544
900,9.0,0.47217,-0.8290000000000001,-0.62535,0.008759000000000001,-0.989944,-0.416946
901,9.01,0.711167,-0.782683,-0.488861,0.020477000000000002,-0.9558559999999999,-0.43399
902,9.02,0.785978,-0.785587,-0.367601,0.056701999999999995,-0.915375,-0.471283
903,9.03,0.868555,-0.707104,-0.324666,0.105698,-0.874893,-0.524536
904,9.04,0.944997,-0.510394,-0.263586,0.13765,-0.814178,-0.590591
905,9.05,0.904134,-0.24296500000000001,-0.133853,0.16108699999999998,-0.763046,-0.664093
906,9.06,0.6402909999999999,0.05047,0.016,0.168549,-0.7172390000000001,-0.724808
907,9.07,0.39997,0.317,0.377739,0.163223,-0.687408,-0.7621
908,9.08,0.180492,0.48816899999999996,0.7142350000000001,0.16534400000000002,-0.688477,-0.769547
909,9.09,-0.019769,0.601758,0.951052,0.17813099999999998,-0.746002,-0.764221
910,9.1,-0.085012,0.776455,1.086912,0.180267,-0.817368,-0.7503810000000001
911,9.11,-0.084007,0.8651409999999999,1.150439,0.172806,-0.898331,-0.7418520000000001
912,9.12,-0.130217,0.886508,1.213717,0.153641,-0.975037,-0.736526
913,9.13,-0.184906,0.9101100000000001,1.3550309999999999,0.136597,-1.032562,-0.731201
914,9.14,-0.191219,0.919408,1.407248,0.126999,-1.08049,-0.720551
915,9.15,-0.136756,0.896907,1.491981,0.13446,-1.1262969999999999,-0.708832
916,9.16,0.0015430000000000027,0.899141,1.4306780000000001,0.158966,-1.180634,-0.693924
917,9.17,0.32460900000000004,1.074185,1.412982,0.190918,-1.2306979999999998,-0.681137
918,9.18,0.712653,1.2076719999999999,1.212533,0.23353600000000002,-1.270111,-0.681137
919,9.19,0.9660770000000001,1.153214,0.984504,0.26123,-1.28183,-0.704575
920,9.2,1.2975709999999998,1.115091,0.686442,0.248444,-1.246674,-0.731201
921,9.21,1.5918510000000001,1.1135979999999999,0.45102200000000003,0.19944800000000001,-1.1699680000000001,-0.7599640000000001
922,9.22,1.7301380000000002,0.9517549999999999,0.340942,0.084396,-1.022964,-0.792984
923,9.23,1.592576,0.525848,0.588845,-0.080719,-0.8610530000000001,-0.823883
924,9.24,1.274664,-0.12330700000000006,1.182701,-0.24903899999999998,-0.751328,-0.8430629999999999
925,9.25,1.097184,-0.633475,1.771264,-0.36302199999999996,-0.790741,-0.8569030000000001
926,9.26,1.147494,-0.8885639999999999,2.320446,-0.392853,-0.977158,-0.893127
927,9.27,1.22976,-1.131157,2.74593,-0.347046,-1.234955,-0.9623719999999999
928,9.28,1.264973,-1.178809,2.860754,-0.217072,-1.503403,-1.042267
929,9.29,1.280417,-1.1295389999999998,2.597037,-0.032791,-1.6781009999999998,-1.113632
930,9.3,1.50679,-0.897806,1.765579,0.22181700000000001,-1.646149,-1.141327
931,9.31,1.447694,-0.740088,1.2381030000000002,0.319809,-1.471451,-1.141327
932,9.32,1.295851,-0.7283229999999999,0.741028,0.332596,-1.2615809999999998,-1.097656
933,9.33,1.272867,-0.731536,0.48671899999999996,0.285721,-1.08902,-1.018829
934,9.34,1.303372,-0.9270450000000001,0.309556,0.2005,-0.9739690000000001,-0.941055
935,9.35,1.324238,-1.2654290000000001,0.23574499999999998,0.07054099999999999,-0.9441379999999999,-0.892059
936,9.36,1.362321,-1.58659,0.324773,-0.075394,-0.996338,-0.880341
937,9.37,1.258451,-1.8683029999999998,0.540158,-0.200027,-1.091141,-0.916565
938,9.38,1.106244,-2.1675869999999997,0.698974,-0.282059,-1.228561,-0.9655610000000001
939,9.39,0.9793440000000001,-2.305883,0.77398,-0.325729,-1.397934,-1.023087
940,9.4,0.922941,-2.200861,0.762686,-0.335327,-1.565186,-1.0806120000000001
941,9.41,0.805345,-2.07006,0.6991350000000001,-0.31189,-1.647217,-1.120026
942,9.42,0.547153,-1.972479,0.614156,-0.271408,-1.60141,-1.1274870000000001
943,9.43,0.319031,-1.889387,0.570296,-0.21281399999999998,-1.4895479999999999,-1.105118
944,9.44,0.187889,-1.800371,0.5433680000000001,-0.15956099999999998,-1.344681,-1.0603639999999999
945,9.45,0.135716,-1.68907,0.60528,-0.109482,-1.184891,-1.014572
946,9.46,0.147271,-1.623875,0.6867850000000001,-0.051955999999999995,-1.057053,-0.970886
947,9.47,0.109491,-1.608101,0.6857949999999999,0.010895000000000002,-0.993134,-0.940002
948,9.48,0.020986,-1.509371,0.606112,0.052428999999999996,-0.979294,-0.916565
949,9.49,-0.02727,-1.386641,0.512941,0.064148,-1.001663,-0.88887
950,9.5,-0.150144,-1.227433,0.439222,0.056701999999999995,-1.050659,-0.853714
951,9.51,-0.259436,-1.147309,0.357881,0.041779000000000004,-1.114578,-0.7951199999999999
952,9.52,-0.338438,-1.08065,0.270097,0.01622,-1.17424,-0.7162930000000001
953,9.53,-0.200498,-1.0057120000000002,0.280355,-0.007216999999999999,-1.2200469999999999,-0.628937
954,9.54,0.042692000000000015,-0.924758,0.166165,-0.024261,-1.2360229999999999,-0.55011
955,9.55,0.306663,-0.95455,0.1448,-0.034912,-1.218979,-0.502167
956,9.56,0.500034,-0.8212149999999999,0.021866,-0.048767000000000005,-1.179565,-0.487259
957,9.57,0.657335,-0.6580060000000001,0.072474,-0.06794700000000001,-1.128433,-0.492584
958,9.58,0.695469,-0.588516,0.10778099999999999,-0.079666,-1.067703,-0.507492
959,9.59,0.712975,-0.358064,0.306215,-0.084991,-1.0037989999999999,-0.521347
960,9.6,0.602946,-0.25717199999999996,0.461921,-0.071136,-0.9601139999999999,-0.52774
961,9.61,0.488228,-0.046982,0.669661,-0.040237,-0.9132389999999999,-0.531998
962,9.62,0.501641,0.056054999999999994,0.733564,-0.0008239999999999949,-0.884476,-0.529877
963,9.63,0.42853,0.292649,0.8318540000000001,0.042847,-0.844009,-0.531998
964,9.64,0.269275,0.41410399999999997,0.766504,0.078003,-0.786484,-0.555435
965,9.65,0.180749,0.749413,0.79928,0.091843,-0.69487,-0.567154
966,9.66,-0.07513600000000001,0.9208049999999999,0.8571639999999999,0.100372,-0.598999,-0.557571
967,9.67,-0.400118,1.1428459999999998,0.899035,0.09291100000000001,-0.49353,-0.526672
968,9.68,-0.49669300000000005,1.341444,1.037591,0.058823,-0.407242,-0.468079
969,9.69,-0.44934799999999997,1.620152,1.170294,0.032195999999999995,-0.39978,-0.39671300000000004
970,9.7,-0.402478,1.755775,1.314124,0.0012969999999999993,-0.440262,-0.34132399999999996
971,9.71,-0.37490999999999997,1.591399,1.316318,-0.053024,-0.47116099999999994,-0.290192
972,9.72,-0.253722,1.7742790000000002,1.248517,-0.112686,-0.505249,-0.231598
973,9.73,-0.194992,1.564842,1.3265879999999999,-0.197906,-0.549988,-0.18046600000000002
974,9.74,-0.144366,1.351501,1.3675680000000001,-0.30336,-0.562775,-0.135727
975,9.75,-0.20194,1.021849,1.560616,-0.40136700000000003,-0.586212,-0.115479
976,9.76,-0.455901,0.510756,1.882411,-0.474869,-0.607513,-0.11228900000000001
977,9.77,-0.806836,-0.05619000000000002,2.187304,-0.49298100000000006,-0.682083,-0.11228900000000001
978,9.78,-0.931049,-0.535084,2.365891,-0.42587299999999995,-0.797134,-0.12826500000000002
979,9.79,-0.85954,-0.812469,2.458295,-0.283127,-0.8930049999999999,-0.159164
980,9.8,-0.639979,-0.897645,2.268682,-0.076462,-0.9398799999999999,-0.22094699999999998
981,9.81,-0.577242,-0.924689,1.863733,0.16108699999999998,-0.932419,-0.30509899999999995
982,9.82,-0.498015,-0.807673,1.24156,0.364563,-0.809921,-0.378601
983,9.83,-0.389815,-0.43199899999999997,0.686212,0.494522,-0.595795,-0.42227200000000004
984,9.84,-0.45606,-0.345105,0.10961,0.547775,-0.361435,-0.43399
985,9.85,-0.53291,-0.350875,-0.362877,0.505173,-0.16755699999999998,-0.420151
986,9.86,-0.621871,-0.274882,-0.67872,0.360291,-0.033339999999999995,-0.387131
987,9.87,-0.747505,-0.44244300000000003,-0.707342,0.154694,0.011398,-0.34876999999999997
988,9.88,-0.89036,-0.596592,-0.597774,-0.06794700000000001,-0.048248,-0.318954
989,9.89,-1.094428,-0.645897,-0.289245,-0.274597,-0.181412,-0.307236
990,9.9,-1.3813469999999999,-0.7493479999999999,-0.08766499999999999,-0.43438699999999997,-0.391266,-0.292313
991,9.91,-1.5196120000000002,-0.9147780000000001,0.10166499999999999,-0.539856,-0.614975,-0.25183099999999997
992,9.92,-1.504672,-1.0174040000000002,0.235717,-0.588852,-0.765167,-0.203903
993,9.93,-1.298019,-1.150094,0.330482,-0.585663,-0.817368,-0.15809600000000001
994,9.94,-1.058346,-1.182052,0.293479,-0.52388,-0.788605,-0.13359100000000002
995,9.95,-0.8431790000000001,-1.2499879999999999,0.201907,-0.42587299999999995,-0.707657,-0.11335799999999999
996,9.96,-0.676353,-1.352167,0.105752,-0.300171,-0.5766140000000001,-0.105896
997,9.97,-0.492565,-1.3958540000000002,-0.05584399999999999,-0.154221,-0.43493699999999996,-0.101639
998,9.98,-0.360489,-1.4477229999999999,-0.384777,-0.014678999999999998,-0.309235,-0.10057100000000001
999,9.99,-0.207406,-1.491066,-0.707769,0.09716799999999999,-0.208038,-0.111221
1000,10.0,-0.17535,-1.496054,-1.037585,0.168549,-0.14093,-0.135727
1001,10.01,-0.187838,-1.483562,-1.2077930000000001,0.195175,-0.10790999999999999,-0.17193599999999998
1002,10.02,-0.21358600000000003,-1.2806870000000001,-1.364869,0.18985,-0.123886,-0.21029699999999998
1003,10.03,-0.32661,-1.060354,-1.397489,0.17601,-0.176086,-0.235855
1004,10.04,-0.48780100000000004,-0.909169,-1.367181,0.150436,-0.213364,-0.227341
1005,10.05,-0.604843,-0.755486,-1.36671,0.109955,-0.235733,-0.194305
1006,10.06,-0.615794,-0.586275,-1.352467,0.064148,-0.25705,-0.148499
1007,10.07,-0.59113,-0.4357,-1.261935,0.0045009999999999955,-0.274094,-0.096313
1008,10.08,-0.47316199999999997,-0.323438,-1.208969,-0.062622,-0.27302600000000005,-0.043045
1009,10.09,-0.402686,-0.272877,-0.998215,-0.138245,-0.278351,-0.019608
1010,10.1,-0.310703,-0.279134,-0.703313,-0.194702,-0.318832,-0.020676
1011,10.11,-0.28136500000000003,-0.28185,-0.353323,-0.21495100000000003,-0.378479,-0.041977
1012,10.12,-0.26101199999999997,-0.245642,-0.13056700000000002,-0.198975,-0.42961099999999997,-0.080322
1013,10.13,-0.22203499999999998,-0.106745,0.107227,-0.155289,-0.439209,-0.141052
1014,10.14,-0.26964299999999997,0.10823699999999999,0.281763,-0.078598,-0.41684,-0.200699
1015,10.15,-0.384269,0.303221,0.357883,0.0076899999999999955,-0.346527,-0.250763
1016,10.16,-0.47979499999999997,0.565399,0.360245,0.095047,-0.252777,-0.28273000000000004
1017,10.17,-0.534149,0.864166,0.391112,0.168549,-0.15371700000000002,-0.292313
1018,10.18,-0.597326,1.0618049999999999,0.282476,0.217545,-0.07914700000000001,-0.278473
1019,10.19,-0.6387189999999999,1.1780700000000002,0.204825,0.236725,-0.050385,-0.26355
1020,10.2,-0.67528,1.315545,0.193705,0.217545,-0.063171,-0.248642
1021,10.21,-0.704183,1.4094520000000001,0.303946,0.16641199999999998,-0.095123,-0.23905900000000002
1022,10.22,-0.75288,1.479375,0.47308500000000003,0.113159,-0.14093,-0.23053
1023,10.23,-0.8661620000000001,1.533867,0.726125,0.068405,-0.2155,-0.213486
1024,10.24,-0.928112,1.581059,0.91094,0.028992,-0.30390900000000004,-0.192184
1025,10.25,-0.9262530000000001,1.5903450000000001,1.159673,0.006621999999999999,-0.385941,-0.165543
1026,10.26,-0.70618,1.686233,1.307777,0.018341,-0.463699,-0.14212
1027,10.27,-0.44274300000000005,1.802711,1.160484,0.07054099999999999,-0.538269,-0.139984
1028,10.28,-0.179006,1.793584,0.862559,0.12806700000000001,-0.556381,-0.159164
1029,10.29,0.169254,1.788545,0.420087,0.16534400000000002,-0.498856,-0.185791
1030,10.3,0.553686,1.972086,0.006319999999999992,0.16961700000000002,-0.37208600000000003,-0.20497100000000001
1031,10.31,0.8866879999999999,1.9976509999999998,-0.381238,0.117416,-0.184601,-0.228394
1032,10.32,0.883373,1.9394900000000002,-0.454829,0.0055690000000000045,0.025253,-0.269943
1033,10.33,0.664779,1.5895540000000001,-0.336594,-0.146774,0.20848100000000006,-0.307236
1034,10.34,0.135061,1.009946,0.17604500000000006,-0.317215,0.366135,-0.31149299999999996
1035,10.35,-0.26763400000000004,0.37192800000000004,0.8662540000000001,-0.46954300000000004,0.428986,-0.283798
1036,10.36,-0.439171,-0.09006400000000002,1.661328,-0.549438,0.341629,-0.235855
1037,10.37,-0.278791,-0.485788,2.2685,-0.518555,0.09875499999999998,-0.186859
1038,10.38,0.00024399999999999425,-0.724324,2.554398,-0.385391,-0.25705,-0.168747
1039,10.39,0.43059899999999995,-0.955585,2.4504080000000004,-0.184052,-0.638412,-0.184723
1040,10.4,0.9251309999999999,-0.9815309999999999,1.9393080000000003,0.047103999999999986,-0.896194,-0.236923
1041,10.41,1.30637,-0.779381,1.217495,0.248444,-0.928162,-0.310425
1042,10.42,1.443044,-0.516245,0.560225,0.38160700000000003,-0.770493,-0.379669
1043,10.43,1.336745,-0.40578400000000003,0.025729,0.454041,-0.495667,-0.416946
1044,10.44,1.123499,-0.318658,-0.264371,0.46682700000000005,-0.15797399999999998,-0.419083
1045,10.45,0.808804,-0.21064899999999998,-0.327804,0.427414,0.158417,-0.38392600000000005
1046,10.46,0.41674300000000003,-0.379358,-0.303535,0.362427,0.34697,-0.299774
1047,10.47,0.155167,-0.7642180000000001,-0.221874,0.278275,0.369339,-0.18365499999999998
1048,10.48,0.186392,-1.090676,-0.16206600000000002,0.181335,0.2724,-0.083527
1049,10.49,0.327565,-1.344623,-0.129048,0.074799,0.094498,-0.021744
1050,10.5,0.46321,-1.641943,-0.16213,-0.034912,-0.139862,-0.002563000000000001
1051,10.51,0.49096599999999996,-1.887254,-0.22717600000000002,-0.138245,-0.39978,-0.021744
1052,10.52,0.510083,-2.020264,-0.350709,-0.227737,-0.6234890000000001,-0.065414
1053,10.53,0.468204,-2.0359439999999998,-0.317181,-0.280991,-0.741745,-0.12826500000000002
1054,10.54,0.25183,-1.966606,-0.318139,-0.279922,-0.743866,-0.186859
1055,10.55,0.05337900000000001,-1.934941,-0.29677,-0.23199499999999998,-0.660782,-0.214554
1056,10.56,0.0038969999999999907,-1.7223529999999998,-0.38022,-0.149963,-0.541473,-0.21134899999999998
1057,10.57,0.049033999999999994,-1.561292,-0.47508100000000003,-0.05090299999999999,-0.369965,-0.203903
1058,10.58,0.21465700000000001,-1.404714,-0.5240319999999999,0.039658,-0.15477,-0.199631
1059,10.59,0.207358,-1.36097,-0.614352,0.121674,0.03803999999999999,-0.20815999999999998
1060,10.6,0.132571,-1.338538,-0.66633,0.185593,0.153091,-0.22201500000000002
1061,10.61,0.025847,-1.289819,-0.685624,0.22181700000000001,0.190369,-0.23053
1062,10.62,-0.139689,-1.271364,-0.742941,0.22926300000000002,0.176514,-0.228394
1063,10.63,-0.261846,-1.154208,-0.813616,0.19944800000000001,0.120056,-0.223068
1064,10.64,-0.378515,-0.936616,-0.878815,0.146179,0.026321,-0.213486
1065,10.65,-0.483462,-0.6688390000000001,-0.902276,0.07054099999999999,-0.054641999999999996,-0.178329
1066,10.66,-0.49509,-0.471343,-0.8439190000000001,0.006621999999999999,-0.124954,-0.116547
1067,10.67,-0.461496,-0.347995,-0.760835,-0.03598,-0.179276,-0.049438
1068,10.68,-0.29981399999999997,-0.175816,-0.7048479999999999,-0.053024,-0.197388,0.015549000000000004
1069,10.69,-0.11992600000000002,-0.026968,-0.6559010000000001,-0.041306,-0.194199,0.070938
1070,10.7,0.04509500000000001,-0.016789,-0.677603,-0.01149,-0.16011,0.11781300000000001
1071,10.71,0.23759699999999997,0.112704,-0.578227,0.027939,-0.073822,0.142319
1072,10.72,0.347265,0.261834,-0.457984,0.080124,0.034835999999999985,0.142319
1073,10.73,0.39411999999999997,0.287846,-0.343003,0.141922,0.12219200000000001,0.138046
1074,10.74,0.264839,0.486097,-0.243998,0.197311,0.19783,0.118881
1075,10.75,0.061279999999999994,0.7299100000000001,-0.18978299999999998,0.235657,0.251083,0.10928299999999999
1076,10.76,-0.277934,0.972995,-0.07752,0.254837,0.304352,0.119949
1077,10.77,-0.576311,1.125716,0.023382,0.254837,0.373596,0.156158
1078,10.78,-0.764493,1.1876229999999999,0.16096,0.23246799999999998,0.435379,0.206223
1079,10.79,-0.892747,1.264731,0.37958400000000003,0.171738,0.51741,0.263748
1080,10.8,-1.025911,1.26929,0.673531,0.09716799999999999,0.552551,0.313828
1081,10.81,-1.109632,1.282524,0.932493,0.028992000000000007,0.516342,0.358566
1082,10.82,-0.900767,1.342178,1.160099,-0.029587000000000002,0.420471,0.401169
1083,10.83,-0.7033,1.67848,1.252224,-0.07006799999999999,0.333115,0.417145
1084,10.84,-0.586774,1.663039,1.354878,-0.097763,0.262802,0.417145
1085,10.85,-0.534179,1.7092599999999998,1.28712,-0.11480699999999999,0.25854499999999997,0.425674
1086,10.86,-0.425842,1.68545,1.1580629999999998,-0.140381,0.320328,0.431
1087,10.87,-0.524328,1.589914,0.994857,-0.21495100000000003,0.4897,0.423538
1088,10.88,-0.977175,1.165158,1.0232290000000002,-0.342773,0.7038270000000001,0.425674
1089,10.89,-1.55711,0.375406,1.290935,-0.526001,0.880661,0.416092
1090,10.9,-2.1043830000000003,-0.10166699999999998,1.877187,-0.694321,0.9168850000000001,0.378799
1091,10.91,-2.546348,-0.46565,2.500845,-0.774216,0.766678,0.328735
1092,10.92,-2.837599,-0.725626,2.9925770000000003,-0.727341,0.47053500000000004,0.287186
1093,10.93,-2.899956,-0.7214520000000001,3.114379,-0.54837,0.12858599999999998,0.261627
1094,10.94,-2.913143,-0.619931,2.730159,-0.27887,-0.12281800000000001,0.261627
1095,10.95,-2.480898,-0.35068,2.041704,0.016219999999999984,-0.17288199999999998,0.297836
1096,10.96,-2.0886669999999996,-0.0059929999999999975,1.1277409999999999,0.247375,0.0028839999999999977,0.343643
1097,10.97,-1.9504560000000002,0.038708,0.268557,0.384796,0.274521,0.384125
1098,10.98,-1.823275,0.06224400000000001,-0.456884,0.43273900000000004,0.584518,0.44590799999999997
1099,10.99,-1.6915959999999999,0.007163000000000003,-1.0190290000000002,0.385864,0.906219,0.523682
1100,11.0,-1.4769700000000001,0.047579,-1.2950979999999999,0.26123,1.140579,0.603577
1101,11.01,-1.667906,-0.44761999999999996,-1.321064,0.074799,1.209824,0.660034
1102,11.02,-1.6858810000000002,-0.735102,-1.135494,-0.142517,1.130997,0.720749
1103,11.03,-1.641518,-0.899645,-0.9004639999999999,-0.339584,0.939255,0.760162
1104,11.04,-1.621915,-1.205963,-0.490771,-0.514282,0.720871,0.797455
1105,11.05,-1.553353,-1.446418,-0.03881700000000002,-0.629333,0.5205989999999999,0.819824
1106,11.06,-1.449697,-1.571947,0.3515309999999999,-0.657028,0.360809,0.815567
1107,11.07,-1.382279,-1.5614299999999999,0.649799,-0.596313,0.284119,0.79425
1108,11.08,-1.2566760000000001,-1.496103,0.756633,-0.465286,0.266006,0.779343
1109,11.09,-1.110392,-1.533924,0.63558,-0.275665,0.29370100000000005,0.772949
1110,11.1,-0.8636469999999999,-1.4135030000000002,0.34814899999999993,-0.080719,0.39064,0.756973
1111,11.11,-0.601579,-1.309417,-0.032351999999999985,0.10250899999999999,0.560013,0.732468
1112,11.12,-0.389049,-1.28067,-0.353679,0.235657,0.777328,0.69519
1113,11.13,-0.268453,-1.15103,-0.583309,0.319809,0.9893190000000001,0.64299
1114,11.14,-0.299425,-1.090648,-0.72516,0.36882,1.109695,0.56842
1115,11.15,-0.48825799999999997,-0.9966139999999999,-0.788606,0.38053899999999996,1.142715,0.4832
1116,11.16,-0.774948,-0.821767,-0.765407,0.377335,1.102234,0.420349
1117,11.17,-1.119321,-0.653977,-0.8571030000000001,0.37200900000000003,1.018082,0.387329
1118,11.18,-1.258018,-0.514169,-1.0087469999999998,0.3358,0.906219,0.399048
1119,11.19,-1.2438120000000001,-0.2605,-1.0470190000000001,0.280396,0.777328,0.428864
1120,11.2,-1.309604,-0.12236400000000001,-1.067806,0.22181700000000001,0.6708069999999999,0.477875
1121,11.21,-1.214672,-0.032525,-1.097346,0.170685,0.562149,0.5428470000000001
1122,11.22,-0.9987010000000001,0.009589,-1.073305,0.129135,0.500366,0.603577
1123,11.23,-0.651567,0.077793,-1.0390110000000001,0.09716799999999999,0.487579,0.63446
1124,11.24,-0.36035700000000004,0.153772,-0.998841,0.080124,0.497162,0.630203
1125,11.25,-0.17210200000000006,0.23678200000000002,-0.93742,0.084396,0.511017,0.596115
1126,11.26,-0.066951,0.45626099999999997,-0.873497,0.09930399999999999,0.548294,0.54924
1127,11.27,-0.098881,0.664723,-0.71536,0.12806700000000001,0.599426,0.499176
1128,11.28,-0.218775,0.927535,-0.669478,0.15683,0.6516270000000001,0.45869399999999994
1129,11.29,-0.348609,1.209166,-0.6066560000000001,0.16641199999999998,0.705963,0.44590799999999997
1130,11.3,-0.39997,1.317325,-0.56438,0.1483,0.7517699999999999,0.45336899999999997
1131,11.31,-0.515658,1.4245290000000002,-0.35893800000000003,0.088654,0.7762600000000001,0.45762600000000003
1132,11.32,-0.6710020000000001,1.486779,-0.089891,0.023666,0.770935,0.46934499999999996
1133,11.33,-0.826559,1.3580370000000002,0.178925,-0.031723,0.720871,0.49704
1134,11.34,-0.884959,1.204515,0.581834,-0.079666,0.63884,0.525803
1135,11.35,-0.833777,1.048738,0.941952,-0.09564199999999999,0.529129,0.536453
1136,11.36,-0.6100899999999999,0.991075,1.2118799999999998,-0.06794700000000001,0.401291,0.5332640000000001
1137,11.37,-0.17709100000000005,1.1599540000000002,1.349483,-0.005095999999999996,0.267075,0.502365
1138,11.38,0.24151599999999998,1.446626,1.180728,0.093979,0.153091,0.42246999999999996
1139,11.39,0.508476,1.579523,0.8368629999999999,0.191986,0.171188,0.294647
1140,11.4,0.464817,1.654096,0.46903199999999995,0.24630700000000003,0.330978,0.17533900000000002
1141,11.41,0.247369,1.682391,0.30702199999999996,0.252701,0.6132810000000001,0.08905
1142,11.42,-0.10867400000000002,1.678518,0.12639700000000004,0.21328699999999998,0.950974,0.051758000000000005
1143,11.43,-0.595406,1.4386940000000001,0.438747,0.114212,1.283325,0.074142
1144,11.44,-1.098072,1.073676,0.8905870000000001,-0.005096000000000003,1.4835969999999998,0.151901
1145,11.45,-1.212435,0.636919,1.566589,-0.075394,1.450577,0.27760300000000004
1146,11.46,-0.873409,0.322871,2.1741599999999996,-0.062622,1.2513729999999998,0.415024
1147,11.47,-0.310757,-0.043412999999999986,2.268009,0.007690000000000009,0.9072879999999999,0.5354
1148,11.48,0.3660990000000001,-0.390461,1.9459950000000001,0.081192,0.488647,0.598251
1149,11.49,1.1206530000000001,-0.528884,1.424627,0.10356099999999999,0.14988699999999994,0.595047
1150,11.5,1.6927740000000002,-0.5088779999999999,0.985217,0.06628400000000001,-0.003509999999999999,0.541794
1151,11.51,1.943971,-0.506777,0.6399590000000001,-0.0008239999999999982,-0.004578,0.45976300000000003
1152,11.52,1.8630659999999999,-0.6050989999999999,0.48342700000000005,-0.07220499999999999,0.068924,0.385193
1153,11.53,1.680075,-0.6241800000000001,0.49221099999999995,-0.132919,0.189301,0.328735
1154,11.54,1.546145,-0.596842,0.639754,-0.16275,0.312881,0.282928
1155,11.55,1.278,-0.80094,0.8668370000000001,-0.149963,0.424728,0.256302
1156,11.56,1.151127,-1.041454,0.872901,-0.10308800000000001,0.473724,0.246704
1157,11.57,1.164849,-1.278256,0.793389,-0.054091999999999994,0.414078,0.222214
1158,11.58,1.272306,-1.4725700000000002,0.564692,-0.007217000000000001,0.273453,0.170013
1159,11.59,1.2729979999999999,-1.674216,0.317748,0.01622,0.11686700000000001,0.098633
1160,11.6,1.252029,-1.850339,0.047517,0.035385,-0.020554000000000003,0.016617
1161,11.61,1.203066,-1.9746119999999998,-0.17838099999999998,0.06628400000000001,-0.136673,-0.073929
1162,11.62,1.071704,-1.98175,-0.390067,0.11209100000000001,-0.183533,-0.17193599999999998
1163,11.63,0.8479110000000001,-1.842798,-0.548666,0.170685,-0.136673,-0.257156
1164,11.64,0.6464489999999999,-1.654857,-0.730196,0.251633,-0.070618,-0.318954
1165,11.65,0.5644939999999999,-1.421873,-0.9237850000000001,0.347519,-0.003509999999999999,-0.34983800000000004
1166,11.66,0.40084899999999996,-1.25926,-1.148798,0.439117,0.059340999999999984,-0.363693
1167,11.67,0.135456,-1.13846,-1.412862,0.500916,0.12219200000000001,-0.34558099999999997
1168,11.68,-0.019589,-1.035309,-1.685571,0.529678,0.148819,-0.279526
1169,11.69,-0.148572,-0.998442,-1.947383,0.512634,0.12645,-0.186859
1170,11.7,-0.061207000000000004,-1.011947,-2.154791,0.45510900000000004,0.081711,-0.085648
1171,11.71,0.113541,-1.0461340000000001,-2.336577,0.345383,0.033768,-0.002563000000000003
1172,11.72,0.23785,-0.9628399999999999,-2.38705,0.204773,-0.028015,0.051758000000000005
1173,11.73,0.268023,-0.8157479999999999,-2.2554369999999997,0.062027,-0.095123,0.073074
1174,11.74,0.286702,-0.629538,-1.9855049999999999,-0.064743,-0.147324,0.085846
1175,11.75,0.29169,-0.380905,-1.583169,-0.142517,-0.177155,0.10076900000000001
1176,11.76,0.214875,-0.15082,-1.298475,-0.157425,-0.19313,0.124207
1177,11.77,0.203284,0.014174000000000006,-0.996159,-0.141449,-0.185669,0.159363
1178,11.78,0.307066,0.156342,-0.735174,-0.10629300000000001,-0.137726,0.199844
1179,11.79,0.431116,0.282736,-0.576001,-0.062622,-0.08126799999999999,0.210495
1180,11.8,0.407222,0.443028,-0.448246,-0.037048000000000005,-0.016296,0.206223
1181,11.81,0.423092,0.6751020000000001,-0.305529,-0.027466,0.048691000000000005,0.193451
1182,11.82,0.327023,0.8837510000000001,-0.166691,-0.027466,0.09343,0.168945
1183,11.83,0.164216,0.960733,0.01936500000000001,-0.051955999999999995,0.100891,0.146576
1184,11.84,0.089446,1.279376,0.301106,-0.081787,0.089172,0.11781300000000001
1185,11.85,0.052516999999999994,1.5559690000000002,0.634671,-0.09883099999999999,0.0849,0.103958
1186,11.86,-0.07380400000000001,1.716545,0.867575,-0.09564199999999999,0.066803,0.092239
1187,11.87,-0.214561,1.803838,1.0803770000000001,-0.097763,0.050812,0.097565
1188,11.88,-0.282146,1.9777040000000001,1.223065,-0.09883099999999999,0.047623,0.12313800000000001
1189,11.89,-0.35600000000000004,1.9192069999999999,1.319844,-0.094574,0.028442000000000002,0.16680899999999999
1190,11.9,-0.43276099999999995,1.896079,1.3892309999999999,-0.089249,0.011398,0.214752
1191,11.91,-0.48548800000000003,1.733039,1.486531,-0.082855,-0.021622,0.254166
1192,11.92,-0.38254,1.830441,1.678231,-0.07006799999999999,-0.051453,0.286118
1193,11.93,-0.294933,1.897505,1.817268,-0.021072,-0.10790999999999999,0.29039
1194,11.94,-0.377227,1.858469,1.7674,0.051361000000000004,-0.155838,0.283997
1195,11.95,-0.25659099999999996,1.9400950000000001,1.656497,0.11955299999999999,-0.14093,0.302109
1196,11.96,-0.264831,1.761052,1.474639,0.18238800000000002,-0.042923,0.342575
1197,11.97,-0.353445,1.340692,1.338898,0.210098,0.12751800000000002,0.378799
1198,11.98,-0.644703,0.7325109999999999,1.197292,0.204773,0.27665700000000004,0.394775
1199,11.99,-0.9048879999999999,0.227385,1.0832190000000002,0.15576199999999998,0.401291,0.396912
1200,12.0,-1.157621,-0.370352,1.189994,0.100372,0.42152399999999995,0.378799
1201,12.01,-1.431734,-0.817398,1.2636040000000002,0.051361000000000004,0.351227,0.30743400000000004
1202,12.02,-1.615534,-1.043107,1.364386,0.064148,0.165863,0.206223
1203,12.03,-1.871041,-1.0583989999999999,1.2148860000000001,0.12806700000000001,-0.02269,0.102905
1204,12.04,-2.0011650000000003,-0.909435,0.8356180000000001,0.22819499999999998,-0.126022,0.038986
1205,12.05,-2.037402,-0.762744,0.399427,0.338989,-0.123886,0.027267000000000003
1206,12.06,-1.982737,-0.7129770000000001,-0.23009,0.425278,-0.010970999999999995,0.040054
1207,12.07,-1.8713349999999997,-0.533796,-0.881202,0.448715,0.189301,0.06347699999999999
1208,12.08,-1.7782080000000002,-0.525848,-1.310841,0.40077199999999996,0.45561199999999996,0.094376
1209,12.09,-1.688924,-0.5975229999999999,-1.633401,0.295319,0.7166140000000001,0.126328
1210,12.1,-1.648791,-0.6671090000000001,-1.703355,0.154694,0.930725,0.14444
1211,12.11,-1.7238380000000002,-0.722378,-1.498824,-0.0029600000000000047,1.082001,0.151901
1212,12.12,-1.989638,-0.9037700000000001,-1.2012559999999999,-0.13931300000000002,1.1107639999999999,0.15403699999999998
1213,12.13,-2.350981,-1.148717,-0.883733,-0.255432,1.020203,0.164688
1214,12.14,-2.5429150000000003,-1.132806,-0.674824,-0.34491,0.826324,0.210495
1215,12.15,-2.608574,-1.04114,-0.48650600000000005,-0.409897,0.600494,0.291443
1216,12.16,-2.54432,-1.031289,-0.370329,-0.44717399999999996,0.400223,0.392654
1217,12.17,-2.323674,-1.032286,-0.281889,-0.450378,0.262802,0.49704
1218,12.18,-1.983596,-1.01544,-0.27414299999999997,-0.42266800000000004,0.202087,0.591858
1219,12.19,-1.762493,-1.100317,-0.370922,-0.37153600000000003,0.208481,0.668549
1220,12.2,-1.487829,-1.166967,-0.432787,-0.309753,0.260681,0.721817
1221,12.21,-1.210119,-1.105016,-0.481138,-0.230927,0.348022,0.7537689999999999
1222,12.22,-0.989296,-1.119477,-0.49563599999999997,-0.125473,0.46733100000000005,0.763367
1223,12.23,-0.736132,-1.052424,-0.45354799999999995,-0.0029600000000000047,0.599426,0.746323
1224,12.24,-0.5372899999999999,-0.9358629999999999,-0.570362,0.13552899999999998,0.715546,0.704773
1225,12.25,-0.44795,-0.8357700000000001,-0.744242,0.254837,0.7975770000000001,0.646179
1226,12.26,-0.43943999999999994,-0.686708,-0.932524,0.319809,0.873199,0.595047
1227,12.27,-0.476793,-0.47138100000000005,-1.207663,0.329407,0.927536,0.562027
1228,12.28,-0.589163,-0.363246,-1.295548,0.289993,0.939255,0.5439149999999999
1229,12.29,-0.67838,-0.209725,-1.328653,0.195175,0.9381870000000001,0.5354
1230,12.3,-0.741215,-0.033040000000000014,-1.194437,0.076935,0.897705,0.522614
1231,12.31,-0.8391219999999999,0.036364,-0.88023,-0.015747000000000004,0.794373,0.514084
1232,12.32,-0.846469,0.07738400000000001,-0.645971,-0.069,0.6516270000000001,0.503433
1233,12.33,-0.740136,0.119698,-0.43541,-0.089249,0.518463,0.47467
1234,12.34,-0.579426,0.317847,-0.247888,-0.083923,0.428986,0.418213
1235,12.35,-0.589022,0.442856,-0.065689,-0.040237,0.408752,0.346848
1236,12.36,-0.6413,0.6997260000000001,0.043946999999999986,0.021544999999999998,0.47905,0.280792
1237,12.37,-0.8211729999999999,0.9479569999999999,0.13134200000000001,0.09716799999999999,0.6143489999999999,0.23712199999999997
1238,12.38,-0.9981180000000001,1.095595,0.227764,0.177063,0.796509,0.21581999999999998
1239,12.39,-1.16076,1.3174190000000001,0.252367,0.234589,0.982925,0.213684
1240,12.4,-1.304263,1.537185,0.302611,0.266556,1.1320649999999999,0.246704
1241,12.41,-1.454264,1.597695,0.314902,0.267624,1.201309,0.311691
1242,12.42,-1.461365,1.624016,0.404306,0.23886100000000002,1.1618959999999998,0.38305700000000004
1243,12.43,-1.353266,1.4994120000000002,0.6215890000000001,0.184525,1.041519,0.45976300000000003
1244,12.44,-1.05256,1.5858450000000002,0.702394,0.11634800000000001,0.88385,0.522614
1245,12.45,-0.577756,1.5871899999999999,0.83926,0.062027,0.633514,0.544983
1246,12.46,-0.058969,1.7384680000000001,0.863964,0.024734,0.414078,0.5311279999999999
1247,12.47,0.245978,1.860124,0.742455,0.004501,0.288376,0.47467
1248,12.48,0.435878,1.924939,0.541569,-0.009354000000000001,0.292633,0.417145
1249,12.49,0.616027,1.9501669999999998,0.339571,-0.018936,0.41087299999999993,0.396912
1250,12.5,0.713498,1.959599,0.19927,-0.04451,0.620743,0.388382
1251,12.51,0.549474,1.750099,0.241844,-0.121201,0.897705,0.37561
1252,12.52,0.25801,1.287884,0.510361,-0.22453299999999998,1.140579,0.380936
1253,12.53,-0.04587600000000002,0.666903,0.9466979999999999,-0.325729,1.263092,0.394775
1254,12.54,-0.314916,0.20285699999999998,1.506782,-0.40669299999999997,1.2375180000000001,0.40863
1255,12.55,-0.410112,-0.151815,2.085327,-0.433334,1.059631,0.43525699999999995
1256,12.56,-0.363371,-0.488625,2.440428,-0.372604,0.770935,0.46295200000000003
1257,12.57,-0.109021,-0.764994,2.456429,-0.24583400000000002,0.451355,0.47148100000000004
1258,12.58,0.282986,-0.835052,2.178808,-0.092438,0.218063,0.449112
1259,12.59,0.625337,-0.74484,1.775959,0.052428999999999996,0.153091,0.401169
1260,12.6,0.736237,-0.656249,1.322423,0.177063,0.221268,0.344711
1261,12.61,0.602543,-0.59853,0.983532,0.279327,0.386383,0.302109
1262,12.62,0.468996,-0.571965,0.708417,0.373077,0.581314,0.27760300000000004
1263,12.63,0.3045,-0.6584439999999999,0.401778,0.44232200000000005,0.760284,0.280792
1264,12.64,0.171551,-0.741925,0.038574000000000004,0.474274,0.872131,0.311691
1265,12.65,0.053353,-0.9101610000000001,-0.280088,0.46469099999999997,0.9083559999999999,0.354294
1266,12.66,0.018726,-1.132443,-0.568117,0.403976,0.899841,0.40863
1267,12.67,0.134898,-1.328811,-0.772388,0.30490100000000003,0.8614809999999999,0.45869399999999994
1268,12.68,0.179293,-1.55071,-0.832973,0.186661,0.80928,0.498108
1269,12.69,0.243854,-1.8129419999999998,-0.8450059999999999,0.062027,0.725128,0.51622
1270,12.7,0.262936,-1.9958930000000001,-0.872491,-0.051956,0.590912,0.5119630000000001
1271,12.71,0.325046,-2.134088,-0.8082020000000001,-0.145706,0.440704,0.472549
1272,12.72,0.430335,-2.16941,-0.80087,-0.196838,0.321396,0.42781099999999994
1273,12.73,0.57571,-2.048179,-0.7330220000000001,-0.2043,0.264938,0.385193
1274,12.74,0.644451,-1.959828,-0.665456,-0.167007,0.281982,0.335129
1275,12.75,0.667903,-1.820455,-0.661519,-0.090317,0.366135,0.286118
1276,12.76,0.634204,-1.6475080000000002,-0.7057979999999999,0.01622,0.475861,0.255234
1277,12.77,0.628676,-1.517601,-0.824203,0.126999,0.61647,0.246704
1278,12.78,0.630888,-1.425822,-0.92022,0.21115100000000003,0.777328,0.252029
1279,12.79,0.605835,-1.376889,-1.032209,0.259094,0.9072879999999999,0.26268
1280,12.8,0.59651,-1.312531,-1.164632,0.271881,0.948837,0.270142
1281,12.81,0.6106689999999999,-1.2637530000000001,-1.385576,0.235657,0.929657,0.287186
1282,12.82,0.71654,-1.047113,-1.408835,0.15576199999999998,0.888123,0.30636599999999997
1283,12.83,0.761571,-0.793616,-1.377544,0.054564999999999995,0.833786,0.32447800000000004
1284,12.84,0.721784,-0.631053,-1.213062,-0.055161,0.740051,0.35324099999999997
1285,12.85,0.742178,-0.34737399999999996,-0.9432870000000001,-0.157425,0.629257,0.387329
1286,12.86,0.787977,-0.141025,-0.539918,-0.221344,0.571732,0.415024
1287,12.87,0.742757,0.010553000000000009,-0.227471,-0.244781,0.565338,0.43313599999999997
1288,12.88,0.7668729999999999,0.23521999999999998,0.139854,-0.23731999999999998,0.620743,0.44697600000000004
1289,12.89,0.718174,0.440075,0.508558,-0.189377,0.709152,0.465088
1290,12.9,0.622899,0.448082,0.7580520000000001,-0.109482,0.7996979999999999,0.477875
1291,12.91,0.5196109999999999,0.6133890000000001,0.973726,-0.025330000000000002,0.8795930000000001,0.486389
1292,12.92,0.433831,0.826393,1.205606,0.053497,0.9264680000000001,0.489594
1293,12.93,0.293607,0.9658899999999999,1.392957,0.13125599999999998,0.9254,0.49278299999999997
1294,12.94,0.182953,1.0315450000000002,1.4052719999999999,0.204773,0.88385,0.5002439999999999
1295,12.95,0.131636,1.19171,1.2657200000000002,0.24630700000000003,0.8327180000000001,0.507706
1296,12.96,0.08968999999999999,1.3279729999999998,1.066535,0.23886100000000002,0.80928,0.519409
1297,12.97,0.0004299999999999998,1.401697,0.991994,0.19944800000000001,0.806091,0.5311279999999999
1298,12.98,-0.086435,1.3704,0.9531290000000001,0.1483,0.794373,0.550308
1299,12.99,-0.078664,1.2965200000000001,0.9812780000000001,0.09930399999999999,0.767746,0.5652159999999999
1300,13.0,0.085156,1.4048260000000001,1.06041,0.064148,0.725128,0.5652159999999999
1301,13.01,0.211081,1.529831,1.2330889999999999,0.055634,0.668671,0.550308
1302,13.02,0.195305,1.679139,1.327834,0.07267799999999999,0.645233,0.536453
1303,13.03,0.292441,1.845221,1.1422780000000001,0.117416,0.607956,0.5652159999999999
1304,13.04,0.639544,2.059683,0.782803,0.145111,0.598358,0.6270140000000001
1305,13.05,0.859419,2.002822,0.266554,0.100372,0.708084,0.69838
1306,13.06,0.891152,1.538751,-0.086936,-0.033858999999999986,0.855087,0.745255
1307,13.07,0.766137,0.9233129999999999,-0.211626,-0.22985799999999998,0.9435120000000001,0.738861
1308,13.08,0.428846,0.32798299999999997,0.13320699999999994,-0.45675699999999997,0.95842,0.6962430000000001
1309,13.09,-0.112252,-0.05487,0.7206859999999999,-0.649582,0.890244,0.633392
1310,13.1,-0.329945,-0.20528400000000002,1.379422,-0.726273,0.683578,0.579071
1311,13.11,-0.46543,-0.164579,1.904434,-0.682602,0.435379,0.52475
1312,13.12,-0.528523,-0.186702,2.1149080000000002,-0.5345310000000001,0.24150100000000002,0.479996
1313,13.13,-0.311322,0.084592,1.58876,-0.16488599999999998,0.079575,0.42781099999999994
1314,13.14,-0.151593,0.196825,0.713403,0.06628400000000001,0.14562999999999998,0.402237
1315,13.15,-0.0043239999999999945,0.15124300000000002,-0.129874,0.193054,0.377853,0.377731
1316,13.16,-0.054733000000000004,0.044142,-0.838533,0.21115100000000003,0.6601560000000001,0.327667
1317,13.17,-0.30811900000000003,-0.109122,-1.211771,0.139786,0.9286040000000001,0.26268
1318,13.18,-0.689915,-0.212015,-1.287088,-0.016814999999999997,1.144852,0.22326700000000002
1319,13.19,-1.186863,-0.41196800000000006,-1.067893,-0.205368,1.2332610000000002,0.211548
1320,13.2,-1.564906,-0.703471,-0.719055,-0.38006599999999996,1.1299290000000002,0.219009
1321,13.21,-1.7527689999999998,-0.901914,-0.359063,-0.510025,0.863617,0.247772
1322,13.22,-1.781009,-1.045821,0.0073519999999999966,-0.582458,0.526993,0.298904
1323,13.23,-1.437322,-1.147732,0.10668499999999999,-0.587784,0.185043,0.354294
1324,13.24,-0.8962969999999999,-1.162714,0.166899,-0.508957,-0.11003100000000003,0.385193
1325,13.25,-0.38232,-1.168533,-0.10368699999999999,-0.357697,-0.271957,0.372406
1326,13.26,0.02649499999999999,-1.116236,-0.530732,-0.193649,-0.31456,0.315948
1327,13.27,0.262912,-1.024532,-0.9607700000000001,-0.046630999999999985,-0.233612,0.24031100000000002
1328,13.28,0.39226700000000003,-0.929984,-1.286283,0.105698,-0.046127,0.17213399999999998
1329,13.29,0.383333,-0.8540459999999999,-1.575267,0.251633,0.22764600000000002,0.119949
1330,13.3,0.282943,-0.690558,-1.8710099999999998,0.36882,0.552551,0.108231
1331,13.31,0.27366,-0.612564,-2.0568009999999997,0.42953500000000006,0.822067,0.12953199999999998
1332,13.32,0.287277,-0.508641,-2.220373,0.43060299999999996,0.9616239999999999,0.174271
1333,13.33,0.376747,-0.508505,-2.250607,0.37200900000000003,0.9594879999999999,0.206223
1334,13.34,0.41629399999999994,-0.43501599999999996,-2.20399,0.268677,0.852966,0.22859200000000002
1335,13.35,0.395894,-0.393016,-2.101686,0.144043,0.665482,0.24884
1336,13.36,0.413209,-0.426676,-1.9527139999999998,0.008759000000000003,0.416199,0.264816
1337,13.37,0.454068,-0.426183,-1.7415169999999998,-0.127594,0.139236,0.266953
1338,13.38,0.571715,-0.38056999999999996,-1.4720010000000001,-0.226669,-0.091919,0.256302
1339,13.39,0.678104,-0.333086,-1.226717,-0.279922,-0.201645,0.244583
1340,13.4,0.815529,-0.25312199999999996,-0.8475219999999999,-0.280991,-0.19313,0.221146
1341,13.41,0.9167290000000001,-0.13491199999999998,-0.522586,-0.21388200000000002,-0.127075,0.18917799999999999
1342,13.42,0.979474,0.019030000000000002,-0.222597,-0.088181,-0.01415999999999999,0.146576
1343,13.43,1.01016,0.20161500000000002,-0.07191399999999999,0.06628400000000001,0.120056,0.101837
1344,13.44,0.983526,0.3304,-0.006080000000000002,0.223938,0.228714,0.057098
1345,13.45,0.8918370000000001,0.533672,-0.10523099999999999,0.36135900000000004,0.274521,0.019806
1346,13.46,0.800586,0.770107,-0.31146399999999996,0.436996,0.279846,-0.0004270000000000003
1347,13.47,0.666655,0.961533,-0.39467800000000003,0.447647,0.25322,-0.003632
1348,13.48,0.528363,1.0978940000000001,-0.27608499999999997,0.399704,0.213806,0.008087
1349,13.49,0.431767,1.270377,0.014843999999999968,0.33473200000000003,0.141373,0.034714
1350,13.5,0.370787,1.347909,0.25263800000000003,0.279327,0.041229,0.061355999999999994
1351,13.51,0.364674,1.369593,0.611317,0.22926300000000002,-0.042923,0.083725
1352,13.52,0.316846,1.341664,0.8429610000000001,0.20263699999999998,-0.10363800000000001,0.093307
1353,13.53,0.309879,1.352132,1.089331,0.194107,-0.144119,0.08265700000000001
1354,13.54,0.299795,1.3325209999999998,1.234166,0.187729,-0.17288199999999998,0.06668099999999999
1355,13.55,0.506785,1.508014,1.204807,0.2005,-0.233612,0.038986
1356,13.56,0.698951,1.7350759999999998,1.035754,0.21649200000000002,-0.297516,-0.011093
1357,13.57,0.876516,1.971061,0.8540719999999999,0.21115100000000003,-0.336945,-0.087784
1358,13.58,0.911258,2.079304,0.578683,0.20796199999999998,-0.340134,-0.18365499999999998
1359,13.59,0.7639279999999999,1.97875,0.11976599999999997,0.170685,-0.254913,-0.269943
1360,13.6,0.264198,1.741882,-0.132351,0.053497,-0.034408999999999995,-0.342377
1361,13.61,-0.615915,1.307318,0.01163499999999998,-0.142517,0.266006,-0.386063
1362,13.62,-1.43997,0.777116,0.6590990000000001,-0.370483,0.5195310000000001,-0.346649
1363,13.63,-1.790989,0.37553200000000003,1.482533,-0.511093,0.571732,-0.229462
1364,13.64,-1.6914810000000002,0.007567999999999964,2.171904,-0.508957,0.360809,-0.090973
1365,13.65,-1.224092,-0.279883,2.546943,-0.38113400000000003,-0.07594299999999997,0.012343999999999999
1366,13.66,-0.5344059999999999,-0.542045,2.304252,-0.167007,-0.5425260000000001,0.064545
1367,13.67,0.239213,-0.48598,1.5931879999999998,0.06095900000000001,-0.883423,0.034714
1368,13.68,0.866302,-0.11624499999999995,0.8503860000000001,0.217545,-0.9292299999999999,-0.05688500000000001
1369,13.69,1.009519,0.14694300000000002,0.13167800000000002,0.303833,-0.734283,-0.160217
1370,13.7,0.7840189999999999,0.17046,-0.365735,0.330475,-0.421097,-0.22201500000000002
1371,13.71,0.45741499999999996,0.181579,-0.608881,0.30809000000000003,-0.06529199999999999,-0.226273
1372,13.72,0.05238200000000001,0.09932000000000002,-0.603557,0.26442,0.261734,-0.184723
1373,13.73,-0.23715100000000003,-0.184779,-0.699199,0.18238800000000002,0.454559,-0.09524500000000001
1374,13.74,-0.248822,-0.6283449999999999,-0.6456149999999999,0.056701999999999995,0.46839899999999995,0.0006260000000000017
1375,13.75,-0.217367,-0.943399,-0.484964,-0.092438,0.364014,0.058151
1376,13.76,-0.085107,-1.181297,-0.35096700000000003,-0.226669,0.171188,0.086914
1377,13.77,-0.03508,-1.450964,-0.27642100000000003,-0.338516,-0.090866,0.103958
1378,13.78,0.17132599999999998,-1.567842,-0.235407,-0.423737,-0.368896,0.101837
1379,13.79,0.455135,-1.579209,-0.232962,-0.461029,-0.565964,0.079468
1380,13.8,0.659659,-1.6453349999999998,-0.20628600000000002,-0.451431,-0.64267,0.049637
1381,13.81,0.751087,-1.671648,-0.270388,-0.40136700000000003,-0.628815,0.007019000000000001
1382,13.82,0.819398,-1.7250310000000002,-0.314151,-0.324677,-0.552124,-0.039841
1383,13.83,0.718729,-1.749106,-0.337754,-0.22560100000000002,-0.428543,-0.09524500000000001
1384,13.84,0.621466,-1.7077799999999999,-0.28889899999999996,-0.11480699999999999,-0.235733,-0.153824
1385,13.85,0.536953,-1.497654,-0.09965899999999997,-0.007217000000000001,0.006072999999999995,-0.199631
1386,13.86,0.28236100000000003,-1.279867,0.064708,0.129135,0.204224,-0.219879
1387,13.87,0.032986000000000015,-1.250718,0.023172,0.259094,0.311813,-0.194305
1388,13.88,-0.008577999999999999,-1.074622,-0.20294300000000004,0.33366399999999996,0.33844,-0.14212
1389,13.89,0.143954,-0.846165,-0.372898,0.33366399999999996,0.294769,-0.085648
1390,13.9,0.31854,-0.6744060000000001,-0.539505,0.281464,0.203156,-0.044113
1391,13.91,0.533506,-0.52072,-0.639462,0.19944800000000001,0.06253099999999999,-0.011093000000000002
1392,13.92,0.677928,-0.401402,-0.6401279999999999,0.11209100000000001,-0.082336,0.017669999999999998
1393,13.93,0.793975,-0.299211,-0.60202,0.030060000000000007,-0.16436800000000001,0.045380000000000004
1394,13.94,0.930792,-0.22110700000000003,-0.48318599999999995,-0.025330000000000002,-0.17288199999999998,0.065613
1395,13.95,1.012749,-0.24136100000000002,-0.294627,-0.046631,-0.12175,0.086914
1396,13.96,1.0466959999999998,-0.189148,-0.055420000000000004,-0.041306,-0.007766999999999995,0.10076900000000001
1397,13.97,1.050397,-0.159355,0.153928,-0.008285999999999998,0.105148,0.103958
1398,13.98,1.018371,-0.161942,0.343692,0.051361000000000004,0.182907,0.10928299999999999
1399,13.99,1.073711,-0.147796,0.417425,0.11634800000000001,0.221268,0.11035199999999999
1400,14.0,1.15805,-0.061725,0.439625,0.172806,0.203156,0.10928299999999999
1401,14.01,1.205784,0.10212899999999997,0.50485,0.205826,0.176514,0.083725
1402,14.02,1.1463700000000001,0.226463,0.493971,0.22819499999999998,0.134979,0.049637
1403,14.03,1.0288329999999999,0.42653100000000005,0.579298,0.2314,0.11686700000000001,0.021942
1404,14.04,0.8672719999999999,0.636351,0.6261359999999999,0.22819499999999998,0.125381,-0.0025629999999999997
1405,14.05,0.687278,0.762999,0.679672,0.235657,0.147751,-0.0025629999999999997
1406,14.06,0.47326,0.900753,0.669786,0.2314,0.18717999999999999,0.014481
1407,14.07,0.33898,0.9387850000000001,0.652792,0.22500599999999998,0.23936500000000002,0.038986
1408,14.08,0.188013,0.936158,0.611718,0.21328699999999998,0.273453,0.068802
1409,14.09,0.24222800000000003,1.106183,0.565,0.190918,0.29689,0.101837
1410,14.1,0.39755999999999997,1.503731,0.5940270000000001,0.144043,0.312881,0.11781300000000001
1411,14.11,0.20831599999999997,1.652079,0.660012,0.095047,0.341629,0.127396
1412,14.12,0.027869,1.715905,0.6289319999999999,0.050308,0.343765,0.168945
1413,14.13,-0.042539999999999994,1.8445900000000002,0.608325,-0.022141000000000004,0.367203,0.254166
