,ts,ax,ay,az,wx,wy,wz
0,0.0,-0.44501199999999996,0.247579,-0.146713,0.060927999999999996,-0.123932,-0.15007
1,0.01,-0.394721,0.251267,-0.224568,0.032166,-0.14416500000000002,-0.143677
2,0.02,-0.320083,0.290077,-0.274779,-0.008316,-0.164413,-0.13942000000000002
3,0.03,-0.29546500000000003,0.337036,-0.22923400000000002,-0.055191,-0.18145799999999998,-0.137283
4,0.04,-0.26405,0.326841,-0.11190399999999999,-0.098862,-0.21340900000000002,-0.137283
5,0.05,-0.214908,0.34062600000000004,-0.01533999999999999,-0.128693,-0.256027,-0.137283
6,0.06,-0.32834800000000003,0.529795,0.089279,-0.13508599999999998,-0.295441,-0.137283
7,0.07,-0.226336,0.441941,0.086073,-0.122299,-0.323135,-0.125565
8,0.08,-0.041842999999999984,0.447404,0.06257,-0.09567300000000001,-0.34976199999999996,-0.129822
9,0.09,-0.017688,0.45425,-0.0019320000000000032,-0.065842,-0.356155,-0.13942000000000002
10,0.1,-0.006807999999999998,0.390319,-0.093888,-0.040268,-0.326324,-0.15007
11,0.11,0.108412,0.33397,-0.214902,-0.022171,-0.280518,-0.154327
12,0.12,0.187555,0.281354,-0.269675,-0.00618,-0.23045300000000002,-0.166046
13,0.13,0.23907199999999998,0.233449,-0.304271,0.010864,-0.183578,-0.176697
14,0.14,0.190332,0.26349,-0.24994699999999997,0.034286000000000004,-0.11753800000000002,-0.190552
15,0.15,0.336068,0.20177,-0.356534,0.064117,-0.06854199999999999,-0.20971700000000001
16,0.16,0.34208,0.155406,-0.397225,0.076904,-0.05361900000000001,-0.23422199999999999
17,0.17,0.356577,0.200824,-0.5164979999999999,0.090759,-0.0728,-0.26298499999999997
18,0.18,0.323056,0.21841100000000002,-0.591112,0.099274,-0.103683,-0.289612
19,0.19,0.284354,0.305857,-0.630332,0.106735,-0.13458299999999998,-0.304535
20,0.2,0.24402800000000002,0.408208,-0.735954,0.12271099999999999,-0.165482,-0.29921
21,0.21,0.246013,0.467433,-0.885526,0.1259,-0.200623,-0.270447
22,0.22,0.377761,0.549046,-1.110052,0.108856,-0.204895,-0.231033
23,0.23,0.544825,0.563447,-1.320371,0.06304900000000001,-0.196365,-0.193741
24,0.24,0.623808,0.485756,-1.356738,-0.014709000000000003,-0.169739,-0.160721
25,0.25,0.74073,0.537752,-1.270766,-0.10418699999999999,-0.150558,-0.13942000000000002
26,0.26,0.797837,0.48600699999999997,-1.110324,-0.195801,-0.165482,-0.128769
27,0.27,0.793084,0.556164,-0.885241,-0.271439,-0.223007,-0.127701
28,0.28,0.736928,0.558629,-0.7184560000000001,-0.306595,-0.302902,-0.12344400000000001
29,0.29,0.679717,0.612977,-0.605913,-0.307663,-0.365738,-0.119171
30,0.3,0.550266,0.740402,-0.6210180000000001,-0.289551,-0.37959299999999996,-0.112778
31,0.31,0.44659899999999997,0.799596,-0.684349,-0.254395,-0.339111,-0.094681
32,0.32,0.35743400000000003,0.865825,-0.8434860000000001,-0.22776799999999997,-0.278397,-0.069107
33,0.33,0.304433,0.862038,-1.089011,-0.22244299999999997,-0.23152199999999998,-0.038208
34,0.34,0.408748,0.851665,-1.2422389999999999,-0.24267600000000003,-0.21340900000000002,-0.01265
35,0.35,0.536762,0.813609,-1.271656,-0.291672,-0.23045300000000002,-0.00946
36,0.36,0.659996,0.801951,-1.206352,-0.338547,-0.273071,-0.026505
37,0.37,0.756699,0.7746649999999999,-1.115466,-0.354523,-0.327393,-0.070175
38,0.38,0.702817,0.786658,-0.980325,-0.337479,-0.346573,-0.121307
39,0.39,0.665345,0.7972060000000001,-0.892093,-0.282089,-0.33699,-0.169235
40,0.4,0.5761970000000001,0.90125,-0.8344889999999999,-0.19261199999999998,-0.297562,-0.20652800000000002
41,0.41,0.470894,0.885567,-0.868122,-0.079697,-0.22512800000000002,-0.227829
42,0.42,0.347233,0.9680190000000001,-1.066285,0.027907999999999995,-0.139908,-0.22676100000000002
43,0.43,0.303174,1.004051,-1.2680200000000001,0.119522,-0.049362,-0.20652800000000002
44,0.44,0.24112199999999998,0.998108,-1.3640430000000001,0.178101,0.046508999999999995,-0.169235
45,0.45,0.285001,0.9829459999999999,-1.422532,0.21539299999999997,0.127472,-0.119171
46,0.46,0.311258,0.9413540000000001,-1.524704,0.240952,0.192459,-0.074432
47,0.47,0.306992,0.8424209999999999,-1.6534360000000001,0.238831,0.240387,-0.032882999999999996
48,0.48,0.29998600000000003,0.808696,-1.782978,0.202606,0.265961,-0.0019990000000000008
49,0.49,0.31900500000000004,0.755771,-1.785104,0.13761900000000002,0.275543,0.026764
50,0.5,0.26752800000000004,0.730758,-1.665648,0.06092800000000001,0.258499,0.048065
51,0.51,0.182703,0.676215,-1.66935,-0.01152,0.21269200000000002,0.065109
52,0.52,0.173923,0.6424979999999999,-1.557484,-0.090347,0.149841,0.085358
53,0.53,0.21716799999999997,0.602068,-1.436596,-0.163849,0.089127,0.09600800000000001
54,0.54,0.217692,0.5532050000000001,-1.385293,-0.22349499999999997,0.033722,0.09494
55,0.55,0.247795,0.510419,-1.284361,-0.276764,0.015625,0.08429
56,0.56,0.165157,0.527358,-1.1369799999999999,-0.310852,0.024138999999999997,0.069382
57,0.57,0.088502,0.542492,-0.927686,-0.330032,0.084854,0.067245
58,0.58,0.14846600000000001,0.5798220000000001,-0.663103,-0.326828,0.15623499999999998,0.065109
59,0.59,0.161908,0.617743,-0.376373,-0.29699699999999996,0.200974,0.056595000000000006
60,0.6,0.178398,0.766484,-0.141519,-0.260788,0.237198,0.040619
61,0.61,0.19395199999999999,0.8756799999999999,0.085229,-0.216049,0.25317399999999995,0.021439
62,0.62,0.186539,1.060542,0.24257199999999998,-0.173431,0.25531,0.0033260000000000013
63,0.63,0.239536,1.344077,0.40270700000000004,-0.142548,0.26915,-0.007324
64,0.64,0.42161400000000004,1.8344220000000002,0.645854,-0.090347,0.298981,-0.0030670000000000003
65,0.65,0.535868,2.157368,0.7868,-0.056259,0.33520500000000003,0.007599
66,0.66,0.5266649999999999,2.3433740000000003,0.786355,-0.027496,0.400177,0.034225
67,0.67,0.390484,2.3839650000000003,0.692955,-0.029617,0.515228,0.071503
68,0.68,0.23063899999999998,2.36305,0.587174,-0.096741,0.680344,0.122635
69,0.69,0.021190999999999998,2.2770200000000003,0.685142,-0.24693299999999999,0.831619,0.19081099999999998
70,0.7,-0.12216400000000001,2.004577,1.0576290000000002,-0.43868999999999997,0.887009,0.246216
71,0.71,-0.312325,1.681197,1.49832,-0.628296,0.797531,0.273911
72,0.72,-0.513744,1.333928,1.98482,-0.78064,0.6079100000000001,0.264313
73,0.73,-0.840659,1.151925,2.399491,-0.864792,0.368225,0.250473
74,0.74,-1.237251,0.865049,2.644217,-0.8967440000000001,0.127472,0.22384600000000002
75,0.75,-1.527532,0.729767,2.915332,-0.832825,-0.067474,0.23129299999999997
76,0.76,-1.7140490000000002,0.458118,2.8961330000000003,-0.705002,-0.161209,0.268585
77,0.77,-1.7426869999999999,0.160892,2.902653,-0.5164489999999999,-0.216614,0.32504299999999997
78,0.78,-1.537297,-0.013333000000000005,2.699605,-0.275696,-0.204895,0.384689
79,0.79,-1.2869329999999999,-0.16324,2.2325180000000002,-0.018967000000000008,-0.135651,0.43156400000000006
80,0.8,-1.043412,-0.278026,1.7379470000000001,0.221786,-0.023788000000000004,0.463531
81,0.81,-0.8231229999999999,-0.42581899999999995,1.117579,0.41566499999999995,0.130661,0.48908999999999997
82,0.82,-0.6130979999999999,-0.561528,0.54063,0.541367,0.293655,0.506134
83,0.83,-0.47399399999999997,-0.627844,0.048376999999999996,0.601013,0.443863,0.515717
84,0.84,-0.511332,-0.75945,-0.45785299999999995,0.599945,0.54718,0.521042
85,0.85,-0.541092,-0.884315,-0.8607,0.524323,0.581268,0.528503
86,0.86,-0.604071,-1.003209,-1.116074,0.398621,0.568497,0.538086
87,0.87,-0.660818,-1.191329,-1.3142340000000001,0.245209,0.523758,0.5412899999999999
88,0.88,-0.679707,-1.288832,-1.356411,0.093948,0.44705200000000006,0.5348970000000001
89,0.89,-0.707282,-1.384983,-1.3278780000000001,-0.044539999999999996,0.336258,0.5231779999999999
90,0.9,-0.62663,-1.3664020000000001,-1.327793,-0.15745499999999998,0.210556,0.5008090000000001
91,0.91,-0.562984,-1.340068,-1.386097,-0.24267600000000003,0.068878,0.47097799999999995
92,0.92,-0.401982,-1.227727,-1.410252,-0.30127,-0.063217,0.439026
93,0.93,-0.20688299999999998,-1.132728,-1.4645219999999999,-0.338547,-0.153763,0.393219
94,0.94,-0.076794,-1.031717,-1.504076,-0.338547,-0.18571500000000002,0.338882
95,0.95,-0.072992,-0.921532,-1.513256,-0.306595,-0.156952,0.284561
96,0.96,-0.04643,-0.763027,-1.479641,-0.249069,-0.070663,0.243011
97,0.97,-0.080337,-0.7034130000000001,-1.357457,-0.160645,0.040115,0.208923
98,0.98,-0.076835,-0.541593,-1.295786,-0.05412299999999999,0.12428299999999999,0.174835
99,0.99,-0.9794300000000002,0.584022,-1.445289,0.044951999999999985,0.16688499999999998,0.153534
100,1.0,-3.1989330000000002,1.008212,-1.915791,0.11738599999999999,0.204178,0.21318099999999998
101,1.01,-1.692805,0.12419300000000022,-2.201885,0.060927999999999996,0.140259,0.444351
102,1.02,0.181293,0.636467,-1.461698,0.041748,0.052902,0.427307
103,1.03,0.24180100000000002,-0.326367,-1.4756559999999999,0.068375,0.14238,0.36232
104,1.04,0.21384099999999998,-0.226463,-1.4140059999999999,0.090759,0.191391,0.312256
105,1.05,0.1536,-0.30637800000000004,-1.199789,0.124847,0.26808200000000004,0.304794
106,1.06,0.188985,-0.220131,-1.20662,0.156799,0.337326,0.316513
107,1.07,0.24616100000000002,-0.21291,-1.186996,0.15998800000000002,0.32988,0.30586199999999997
108,1.08,0.337175,-0.040886000000000006,-1.1439780000000002,0.132294,0.275543,0.295212
109,1.09,0.545435,0.038575,-1.0848799999999998,0.08223,0.187134,0.25793499999999997
110,1.1,0.629256,0.16711600000000001,-0.944759,0.022583000000000002,0.080597,0.20680199999999999
111,1.11,0.652307,0.26203000000000004,-0.778876,-0.024292,-0.014206,0.14714100000000002
112,1.12,0.65285,0.32873,-0.602587,-0.051987,-0.080261,0.088547
113,1.13,0.7012149999999999,0.45744700000000005,-0.390756,-0.059448,-0.123932,0.027832000000000003
114,1.14,0.645088,0.568346,-0.144852,-0.045609,-0.137772,-0.032882999999999996
115,1.15,0.6254270000000001,0.689608,0.09732899999999997,-0.012573,-0.126068,-0.08401499999999999
116,1.16,0.600105,0.790862,0.37390100000000004,0.056671000000000006,-0.110077,-0.126633
117,1.17,0.517634,1.040617,0.5445800000000001,0.14294400000000002,-0.08345,-0.158585
118,1.18,0.353971,1.142757,0.651621,0.23030100000000003,-0.009949,-0.168182
119,1.19,0.189164,1.224082,0.756029,0.28889499999999996,0.07420299999999999,-0.174576
120,1.2,0.08670499999999999,1.262446,0.830513,0.304871,0.172211,-0.159653
121,1.21,0.026313999999999997,1.2073479999999999,1.066324,0.295288,0.254242,-0.145813
122,1.22,0.047674,1.126226,1.395232,0.271851,0.2798,-0.140488
123,1.23,0.08317000000000001,1.2028450000000002,1.853734,0.25267,0.252106,-0.146866
124,1.24,0.049797,1.267973,2.145822,0.263321,0.176468,-0.15325899999999998
125,1.25,-0.156893,1.5365739999999999,2.1472729999999998,0.299545,0.079529,-0.16178900000000002
126,1.26,-0.23970500000000003,1.755381,1.8356290000000002,0.32724000000000003,0.02095,-0.138351
127,1.27,-0.08780299999999999,2.0476,1.349805,0.289963,-0.025925,-0.111725
128,1.28,0.009824,2.081538,0.8616280000000001,0.177032,-0.06854199999999999,-0.088287
129,1.29,0.339357,1.992778,0.539851,-0.017898999999999998,-0.09730499999999999,-0.07869
130,1.3,0.6990029999999999,1.479484,0.515588,-0.273575,-0.13884000000000002,-0.108521
131,1.31,1.055413,0.686843,0.8699879999999999,-0.545212,-0.21340900000000002,-0.184158
132,1.32,1.379014,0.010815999999999992,1.568654,-0.755066,-0.325272,-0.291748
133,1.33,1.392955,-0.518239,2.397442,-0.837097,-0.5074310000000001,-0.39826999999999996
134,1.34,1.032497,-0.694283,2.983694,-0.659195,-0.795044,-0.503738
135,1.35,0.800044,-0.803863,2.775794,-0.423767,-0.893051,-0.503738
136,1.36,1.011396,-0.676184,2.259655,-0.183014,-0.867477,-0.471771
137,1.37,1.1636389999999999,-0.582168,1.534949,0.02044700000000001,-0.729004,-0.449402
138,1.38,1.041509,-0.367867,0.7999109999999999,0.15466300000000002,-0.493576,-0.41851800000000006
139,1.39,0.791853,-0.348432,0.1382,0.214325,-0.201691,-0.372711
140,1.4,0.626566,-0.498799,-0.35246700000000003,0.199417,0.06781000000000001,-0.319443
141,1.41,0.6143149999999999,-0.929709,-0.6669649999999999,0.11418199999999999,0.267029,-0.270447
142,1.42,0.47839899999999996,-0.947125,-0.738687,-0.02536,0.360764,-0.251266
143,1.43,-0.07505500000000001,-1.332054,-0.6389050000000001,-0.17236300000000002,0.336258,-0.248077
144,1.44,-0.46108599999999994,-1.59372,-0.495492,-0.307663,0.174347,-0.228897
145,1.45,-0.589119,-1.841047,-0.291484,-0.414185,-0.08984400000000001,-0.207596
146,1.46,-0.655594,-2.065495,-0.112935,-0.450409,-0.37001,-0.188416
147,1.47,-0.640998,-2.1716330000000004,-0.193377,-0.414185,-0.608627,-0.17244
148,1.48,-0.505458,-2.1917869999999997,-0.367032,-0.316177,-0.763092,-0.155396
149,1.49,-0.26919299999999996,-2.039075,-0.7612979999999999,-0.184082,-0.831268,-0.15219100000000002
150,1.5,-0.11001300000000001,-1.861464,-1.2341440000000001,-0.04454000000000001,-0.804642,-0.155396
151,1.51,0.004831000000000002,-1.635984,-1.716478,0.09287999999999999,-0.713028,-0.16391
152,1.52,0.073912,-1.338644,-2.175792,0.203674,-0.580933,-0.175629
153,1.53,0.181338,-1.035777,-2.555369,0.289963,-0.426468,-0.188416
154,1.54,0.2754,-0.734593,-2.8900770000000002,0.351746,-0.26879899999999995,-0.212921
155,1.55,0.475195,-0.42586499999999994,-3.083509,0.369858,-0.074921,-0.256592
156,1.56,0.523971,-0.173811,-3.082506,0.36132800000000004,0.126404,-0.301331
157,1.57,0.572733,-0.068024,-2.922766,0.349609,0.30749499999999996,-0.34288
158,1.58,0.416839,0.009678,-2.716021,0.332565,0.44705200000000006,-0.368454
159,1.59,0.19573800000000002,0.10082100000000001,-2.457172,0.311264,0.525879,-0.372711
160,1.6,-0.020445999999999992,0.20091199999999998,-2.102251,0.266525,0.5588989999999999,-0.355667
161,1.61,-0.20643000000000003,0.199777,-1.668614,0.211121,0.5375979999999999,-0.314117
162,1.62,-0.292376,0.300346,-1.2111049999999999,0.163193,0.476883,-0.26617399999999997
163,1.63,-0.43872799999999995,0.313537,-0.8432129999999999,0.13868699999999998,0.386337,-0.218246
164,1.64,-0.440691,0.387517,-0.574882,0.112061,0.295792,-0.166046
165,1.65,-0.372832,0.37708600000000003,-0.349928,0.080093,0.222275,-0.11491400000000002
166,1.66,-0.24615599999999999,0.31919899999999995,-0.20083800000000002,0.047073000000000004,0.148773,-0.068039
167,1.67,-0.134167,0.27706,0.07589100000000001,0.004470999999999996,0.088058,-0.032882999999999996
168,1.68,0.042436000000000015,0.29038,0.44331499999999996,-0.036011,0.030532999999999998,-0.006256000000000001
169,1.69,0.234582,0.33252600000000004,0.840556,-0.043472000000000004,-0.0728,0.005463
170,1.7,0.362846,0.484149,1.076729,-0.016846,-0.204895,-0.0030669999999999994
171,1.71,0.427983,0.62971,1.209362,0.019379,-0.313553,-0.017975
172,1.72,0.370473,0.859821,1.235945,0.055603,-0.34976199999999996,-0.020111
173,1.73,0.260801,1.147143,1.3090389999999998,0.097137,-0.307159,-0.008392
174,1.74,0.109173,1.3013290000000002,1.299407,0.12271099999999999,-0.201691,0.015045
175,1.75,-0.034571,1.446405,1.418881,0.119522,-0.056824,0.059784
176,1.76,-0.092086,1.631944,1.6431470000000001,0.10141,0.084854,0.100266
177,1.77,-0.210979,1.8607669999999998,1.9486689999999998,0.086487,0.190323,0.126907
178,1.78,-0.48258,1.93688,2.195723,0.087555,0.262756,0.151398
179,1.79,-0.609977,1.900983,2.220715,0.090759,0.34158299999999997,0.203598
180,1.8,-0.758215,1.944325,2.159154,0.08223,0.4151,0.228104
181,1.81,-0.953139,1.6767189999999998,1.9224119999999998,0.032166,0.473679,0.26326
182,1.82,-0.9813540000000001,1.24167,1.772091,-0.090347,0.466232,0.304794
183,1.83,-0.828917,0.417692,1.8264470000000002,-0.265045,0.40657,0.33783
184,1.84,-0.42881199999999997,-0.36496100000000004,2.127728,-0.45359799999999995,0.27873200000000004,0.339951
185,1.85,-0.10256800000000002,-0.9252360000000001,2.520051,-0.586761,0.058227999999999995,0.302673
186,1.86,0.11768299999999997,-1.158306,2.902581,-0.629364,-0.200623,0.24940500000000002
187,1.87,-0.04596,-1.073675,3.073436,-0.559052,-0.410492,0.18975799999999998
188,1.88,-0.49499899999999997,-0.666101,2.92108,-0.38221700000000003,-0.46907,0.14714100000000002
189,1.89,-0.9488559999999999,-0.363568,2.44409,-0.173431,-0.360413,0.15779100000000001
190,1.9,-1.378999,-0.02849099999999999,1.951097,-0.0008540000000000075,-0.146301,0.19081099999999998
191,1.91,-1.7051479999999999,-0.016665,1.444647,0.11525,0.16155999999999998,0.235565
192,1.92,-1.9475240000000003,-0.182285,1.192001,0.15040599999999998,0.504578,0.297348
193,1.93,-1.8904450000000002,-0.785862,1.196192,0.140823,0.787933,0.363388
194,1.94,-1.905184,-0.817181,1.301402,0.135498,0.905121,0.400681
195,1.95,-2.1145680000000002,-1.34054,1.096554,0.156799,0.862503,0.43476899999999996
196,1.96,-1.9870580000000002,-1.550745,0.840176,0.14827,0.703781,0.47950699999999996
197,1.97,-1.688235,-1.799293,0.487684,0.131226,0.453445,0.506134
198,1.98,-1.288671,-1.990967,0.06903199999999997,0.116318,0.17009000000000002,0.5221100000000001
199,1.99,-0.8377110000000001,-2.1185009999999997,-0.3376230000000001,0.108856,-0.074921,0.515717
200,2.0,-0.312525,-2.111322,-0.7107439999999999,0.1259,-0.25709499999999996,0.484833
201,2.01,0.03445300000000001,-2.1237630000000003,-1.126416,0.168518,-0.35083000000000003,0.44541899999999995
202,2.02,0.30251100000000003,-2.058727,-1.506912,0.23350500000000002,-0.37959299999999996,0.406006
203,2.03,0.50153,-1.9472029999999998,-1.89136,0.3134,-0.365738,0.36232
204,2.04,0.6310859999999999,-1.885087,-2.256579,0.396484,-0.311417,0.321838
205,2.05,0.723668,-1.7761529999999999,-2.5937580000000002,0.45613100000000006,-0.22512800000000002,0.282425
206,2.06,0.819062,-1.707646,-2.830897,0.48489399999999994,-0.12925699999999998,0.24940500000000002
207,2.07,0.910484,-1.595269,-2.875961,0.499817,-0.060013,0.208923
208,2.08,0.973369,-1.523976,-2.925647,0.507278,-0.013137999999999995,0.165253
209,2.09,0.9119370000000001,-1.3070629999999999,-2.9824439999999997,0.50621,0.025208,0.11518900000000001
210,2.1,0.734052,-1.102875,-2.994576,0.498749,0.07420299999999999,0.077896
211,2.11,0.493986,-0.81639,-2.925373,0.46359300000000003,0.137054,0.05873099999999999
212,2.12,0.326751,-0.542728,-2.652406,0.419922,0.20310999999999998,0.071503
213,2.13,0.13667200000000002,-0.448934,-2.450311,0.367722,0.239319,0.09600800000000001
214,2.14,0.062354,-0.348169,-2.153538,0.319778,0.244644,0.11731
215,2.15,0.044467,-0.282476,-1.9017650000000001,0.266525,0.230804,0.131165
216,2.16,0.130004,-0.206023,-1.5536020000000001,0.211121,0.205231,0.139679
217,2.17,0.20081500000000002,-0.087089,-1.31904,0.14721700000000001,0.130661,0.118378
218,2.18,0.282534,-0.039937,-1.078675,0.06732199999999999,0.026275999999999997,0.062988
219,2.19,0.278244,0.129178,-0.6431479999999999,-0.021103000000000004,-0.078125,-0.0041199999999999995
220,2.2,0.19465,0.296875,-0.13193,-0.092468,-0.15802,-0.069107
221,2.21,0.107475,0.43748100000000006,0.4124,-0.11804200000000001,-0.233658,-0.129822
222,2.22,0.015136000000000002,0.565702,0.8710049999999999,-0.09353600000000001,-0.281586,-0.18309
223,2.23,-0.05852,0.714363,1.25081,-0.027496,-0.296509,-0.218246
224,2.24,-0.16088800000000006,0.8751030000000001,1.541241,0.066254,-0.272003,-0.239548
225,2.25,-0.298286,1.123557,1.7024580000000002,0.178101,-0.24005100000000001,-0.244873
226,2.26,-0.400142,1.301185,1.710394,0.28036500000000003,-0.205963,-0.237427
227,2.27,-0.384737,1.4505780000000001,1.615697,0.338959,-0.172928,-0.220383
228,2.28,-0.181294,1.7134669999999999,1.536253,0.359192,-0.172928,-0.196945
229,2.29,-0.012449000000000002,1.926003,1.410194,0.347488,-0.1772,-0.182022
230,2.3,0.13076600000000002,2.144165,1.177964,0.30700700000000003,-0.173996,-0.169235
231,2.31,0.24251799999999998,2.4193830000000003,0.882374,0.23136900000000002,-0.150558,-0.158585
232,2.32,0.296416,2.6262060000000003,0.568915,0.107803,-0.08345,-0.146866
233,2.33,0.320905,2.739548,0.349648,-0.06051599999999999,0.061432000000000014,-0.135147
234,2.34,0.539825,2.270571,0.386044,-0.281021,0.267029,-0.12023900000000001
235,2.35,0.712375,2.094905,0.746764,-0.531357,0.440659,-0.136215
236,2.36,0.245773,1.349866,1.1352440000000001,-0.742279,0.528015,-0.19480899999999998
237,2.37,-0.073114,0.2750480000000001,1.70314,-0.963852,0.48860200000000004,-0.207596
238,2.38,0.049189,-0.506618,2.642355,-1.126846,0.257431,-0.23208600000000001
239,2.39,0.24579299999999998,-1.223892,3.183937,-1.150284,-0.12286400000000001,-0.27684000000000003
240,2.4,0.41736599999999996,-0.944342,3.433303,-1.036301,-0.5170140000000001,-0.360992
241,2.41,0.520033,-1.233875,3.006579,-0.801941,-0.8174130000000001,-0.41319300000000003
242,2.42,0.882043,-1.0951790000000001,2.548748,-0.547348,-0.953766,-0.44407700000000006
243,2.43,1.129788,-0.974448,1.9884810000000002,-0.28741500000000003,-0.9164889999999999,-0.482437
244,2.44,1.236701,-0.891395,1.200202,-0.065842,-0.756699,-0.5112
245,2.45,1.109198,-0.719284,0.6270819999999999,0.075836,-0.51915,-0.529297
246,2.46,0.64476,-0.5195850000000001,0.073262,0.149338,-0.25709499999999996,-0.512253
247,2.47,0.434418,-0.9425870000000001,-0.157451,0.155731,-0.0014190000000000036,-0.44728100000000004
248,2.48,0.457474,-0.801592,-0.09614500000000001,0.1259,0.21482800000000002,-0.394012
249,2.49,0.04531000000000002,-1.005539,-0.0607,0.104599,0.35436999999999996,-0.362061
250,2.5,-0.463638,-1.345385,-0.155585,0.06944299999999999,0.383133,-0.303467
251,2.51,-0.785506,-1.381917,-0.17361500000000002,0.021515,0.263824,-0.244873
252,2.52,-1.02053,-1.5355809999999999,-0.33215500000000003,-0.013641,0.057159,-0.19480899999999998
253,2.53,-1.149884,-1.74508,-0.560094,-0.039215,-0.17185999999999998,-0.14260899999999999
254,2.54,-1.099675,-1.7756299999999998,-0.8354719999999999,-0.044539999999999996,-0.351898,-0.086151
255,2.55,-0.953139,-1.918754,-1.109169,-0.016846,-0.461624,-0.030762
256,2.56,-0.7272649999999999,-1.9947,-1.417115,0.031097000000000003,-0.493576,0.01825
257,2.57,-0.47154799999999997,-2.047918,-1.6946439999999998,0.087555,-0.438187,0.050200999999999996
258,2.58,-0.04267499999999999,-1.969841,-1.8887740000000002,0.146149,-0.311417,0.05873099999999999
259,2.59,0.218148,-1.813191,-2.05538,0.209,-0.161209,0.040619
260,2.6,0.374744,-1.649018,-2.260208,0.255875,-0.012085,0.008652
261,2.61,0.31347800000000003,-1.171456,-2.371665,0.29740900000000003,0.101913,-0.036087
262,2.62,0.09592199999999998,-0.675874,-2.475004,0.330444,0.183929,-0.0755
263,2.63,-0.205139,-0.2742,-2.620946,0.35281399999999996,0.240387,-0.096802
264,2.64,-0.374784,-0.059554,-2.654512,0.350677,0.30856300000000003,-0.095734
265,2.65,-0.28586500000000004,0.025117,-2.582623,0.319778,0.377808,-0.088287
266,2.66,-0.097067,0.045114999999999995,-2.341043,0.278244,0.43533299999999997,-0.073364
267,2.67,0.04525,0.098357,-1.997932,0.228165,0.476883,-0.060592999999999994
268,2.68,0.13374,0.16831400000000002,-1.6626759999999998,0.18981900000000002,0.475815,-0.048874
269,2.69,0.183079,0.42031199999999996,-1.399061,0.15040599999999998,0.43746899999999994,-0.037155
270,2.7,0.252618,0.616714,-1.148304,0.10141,0.37141399999999997,-0.015839
271,2.71,0.330867,0.788877,-0.830203,0.030029000000000004,0.2798,-0.0009310000000000004
272,2.72,0.43899799999999994,0.795485,-0.485108,-0.056259,0.164749,0.0043950000000000005
273,2.73,0.589221,0.710485,-0.08120600000000003,-0.151062,0.055038,0.011856
274,2.74,0.747631,0.636321,0.471445,-0.23948699999999998,-0.042969,0.00972
275,2.75,0.8615780000000001,0.560357,1.082042,-0.299133,-0.154816,-0.001999
276,2.76,0.955917,0.5646180000000001,1.6801439999999999,-0.298065,-0.24856599999999998,-0.019043
277,2.77,0.8686959999999999,0.5991350000000001,2.1521,-0.23095700000000002,-0.299698,-0.035019
278,2.78,0.7606310000000001,0.734152,2.546811,-0.103119,-0.27413899999999997,-0.044601
279,2.79,0.4374,0.8333649999999999,2.7463490000000004,0.06625400000000001,-0.17185999999999998,-0.024368
280,2.8,0.193194,1.077421,2.794808,0.24841300000000002,-0.054688,-0.0019990000000000008
281,2.81,-0.012586,1.263416,2.666718,0.406067,0.060364,0.038482999999999996
282,2.82,-0.059476999999999995,1.5603719999999999,2.498612,0.5157930000000001,0.181793,0.076828
283,2.83,-0.135942,1.9879919999999998,2.321056,0.589294,0.27873200000000004,0.11624100000000001
284,2.84,-0.333485,2.3371560000000002,1.9677349999999998,0.62764,0.368225,0.15567
285,2.85,-0.6571140000000001,2.392275,1.276781,0.590363,0.506714,0.230225
286,2.86,-0.5239020000000001,1.899291,0.746162,0.44654799999999994,0.5770109999999999,0.280304
287,2.87,-0.594646,1.9410630000000002,0.590775,0.17598,0.598312,0.284561
288,2.88,-0.887416,0.9122889999999999,0.5428029999999999,-0.16171300000000002,0.52269,0.29841599999999996
289,2.89,-0.633209,0.056975,1.083435,-0.50473,0.312836,0.300537
290,2.9,-0.23556,-0.793871,1.869492,-0.7390899999999999,0.023071000000000008,0.253662
291,2.91,0.103277,-1.561848,2.642655,-0.8157810000000001,-0.27626,0.172714
292,2.92,0.230652,-1.737366,3.203351,-0.729507,-0.554291,0.07896399999999999
293,2.93,0.07465400000000001,-1.621099,3.3365080000000003,-0.48555,-0.732193,-0.014786000000000002
294,2.94,-0.27970300000000003,-1.1819979999999999,2.974558,-0.16171299999999994,-0.756699,-0.0755
295,2.95,-0.741352,-0.654201,2.325047,0.15679900000000002,-0.606491,-0.08401499999999999
296,2.96,-1.043318,-0.221048,1.455589,0.409271,-0.344437,-0.04567
297,2.97,-1.271896,0.002463999999999994,0.583555,0.554138,-0.02699299999999999,0.028899999999999995
298,2.98,-1.268794,0.030376999999999998,-0.11968800000000003,0.570114,0.301117,0.11412
299,2.99,-1.271886,-0.140763,-0.637496,0.49342299999999994,0.578079,0.19081099999999998
300,3.0,-1.3248540000000002,-0.502147,-0.977035,0.357071,0.741058,0.255798
301,3.01,-1.383473,-0.816104,-1.1082370000000001,0.199417,0.740005,0.295212
302,3.02,-1.407794,-1.230151,-1.163924,0.03962700000000001,0.606842,0.321838
303,3.03,-1.201808,-1.606098,-1.123513,-0.10845899999999999,0.390594,0.33569299999999996
304,3.04,-0.8801180000000001,-1.82709,-1.0280280000000002,-0.22244299999999997,0.10723900000000001,0.321838
305,3.05,-0.5558420000000001,-1.9727459999999999,-1.089806,-0.29274,-0.147369,0.297348
306,3.06,-0.279646,-2.0931290000000002,-1.1840680000000001,-0.336426,-0.322067,0.27284200000000003
307,3.07,0.007859000000000005,-2.095018,-1.205027,-0.337479,-0.405167,0.25154099999999996
308,3.08,0.327543,-2.023012,-1.207752,-0.299133,-0.4254,0.22171
309,3.09,0.585812,-1.929296,-1.307356,-0.216049,-0.389175,0.183365
310,3.1,0.741696,-1.8247330000000002,-1.362694,-0.106323,-0.29863,0.132233
311,3.11,0.8617940000000001,-1.64923,-1.5021719999999998,0.018311000000000008,-0.1772,0.077896
312,3.12,0.73793,-1.499384,-1.6931509999999999,0.131226,-0.04722599999999999,0.022507
313,3.13,0.580448,-1.306242,-1.771091,0.22283899999999998,0.078476,-0.0233
314,3.14,0.343376,-1.156004,-1.844329,0.286758,0.177536,-0.053131
315,3.15,0.175124,-0.972683,-1.863907,0.329376,0.24784899999999999,-0.06591799999999999
316,3.16,0.070534,-0.8548969999999999,-1.812602,0.347488,0.292587,-0.068039
317,3.17,-0.001467999999999997,-0.695754,-1.711691,0.358139,0.328812,-0.057388
318,3.18,-0.123626,-0.6038319999999999,-1.59832,0.356003,0.35543800000000003,-0.041412
319,3.19,-0.211288,-0.431914,-1.502324,0.34321599999999997,0.351181,-0.016907
320,3.2,-0.314025,-0.303137,-1.399645,0.315521,0.33200100000000005,0.007599000000000002
321,3.21,-0.390302,-0.178319,-1.313701,0.273972,0.298981,0.037415
322,3.22,-0.374564,-0.074691,-1.208652,0.22283899999999998,0.258499,0.059784000000000004
323,3.23,-0.395518,0.046601,-1.033814,0.168518,0.197784,0.0811
324,3.24,-0.295458,0.149033,-0.811473,0.124847,0.126404,0.087479
325,3.25,-0.143887,0.208087,-0.603413,0.084366,0.056107000000000004,0.076828
326,3.26,-0.010652000000000002,0.306096,-0.380143,0.050277999999999996,-0.009948999999999996,0.039550999999999996
327,3.27,0.025710000000000004,0.524373,-0.033833999999999996,0.019379,-0.081314,-0.010512999999999998
328,3.28,-0.063027,0.6314069999999999,0.22411399999999998,0.011917,-0.126068,-0.068039
329,3.29,-0.15325899999999998,0.731441,0.5161359999999999,0.015121,-0.161209,-0.11065699999999999
330,3.3,-0.28060300000000005,0.939317,0.8354600000000001,0.023636,-0.161209,-0.141541
331,3.31,-0.48219700000000004,0.9854139999999999,1.1407370000000001,0.031097000000000003,-0.128189,-0.143677
332,3.32,-0.646026,1.06855,1.492668,0.049210000000000004,-0.08345,-0.12023900000000001
333,3.33,-0.6840149999999999,1.197155,1.7380950000000002,0.070511,-0.05361900000000001,-0.085083
334,3.34,-0.654193,1.4677209999999998,1.892539,0.084366,-0.05575599999999999,-0.030762
335,3.35,-0.610001,1.7752169999999998,2.010696,0.091812,-0.06427000000000001,0.025696000000000004
336,3.36,-0.523768,1.9436790000000002,1.78184,0.093948,-0.06640599999999999,0.07896399999999999
337,3.37,-0.299987,2.206416,1.579812,0.067322,-0.032318,0.113052
338,3.38,-0.108291,2.2415380000000003,1.262142,-0.002991000000000001,0.034789999999999995,0.12796
339,3.39,0.096829,2.081864,1.090857,-0.144669,0.127472,0.126907
340,3.4,0.287138,1.6638509999999997,1.111788,-0.340683,0.23826599999999998,0.10986300000000002
341,3.41,0.45428,0.869756,1.431386,-0.561188,0.295792,0.067245
342,3.42,0.5455949999999999,0.116157,2.198378,-0.75827,0.254242,-0.008392000000000005
343,3.43,0.864983,-0.56348,3.168591,-0.8498690000000001,0.07633999999999999,-0.100006
344,3.44,1.074544,-1.003267,3.8878230000000005,-0.793411,-0.217667,-0.208664
345,3.45,1.2299280000000001,-1.0754700000000001,4.171595,-0.584625,-0.539383,-0.31304899999999997
346,3.46,1.186654,-0.911285,3.889628,-0.269302,-0.7460479999999999,-0.392944
347,3.47,0.9049719999999999,-0.495464,3.150667,0.06411699999999998,-0.775879,-0.428101
348,3.48,0.477141,-0.08954699999999999,2.100333,0.34642,-0.6341859999999999,-0.41319300000000003
349,3.49,0.06478499999999995,0.20052800000000004,1.131758,0.5349729999999999,-0.37959299999999996,-0.343948
350,3.5,-0.025745999999999998,0.268297,0.33150999999999997,0.636169,-0.07173200000000003,-0.245941
351,3.51,0.010356000000000002,0.131807,-0.274571,0.6596069999999999,0.258499,-0.14793399999999998
352,3.52,0.122894,-0.059553999999999975,-0.754009,0.622314,0.5791470000000001,-0.069107
353,3.53,0.110205,-0.44512700000000005,-1.100514,0.5083310000000001,0.815628,-0.010513000000000002
354,3.54,0.10148,-0.810941,-1.1305,0.318726,0.8944700000000001,0.02037
355,3.55,0.051237,-1.233886,-1.084335,0.074768,0.7900699999999999,0.027832
356,3.56,-0.09213400000000001,-1.5205520000000001,-0.801041,-0.18196099999999998,0.5301359999999999,0.027832
357,3.57,-0.21988400000000002,-1.9033639999999998,-0.49319399999999997,-0.389679,0.207367,0.025695999999999997
358,3.58,-0.243063,-2.138712,-0.15711,-0.5100560000000001,-0.136719,0.019302
359,3.59,-0.19198099999999998,-2.219024,-0.035363,-0.523911,-0.412613,0.021439
360,3.6,-0.142941,-2.22871,-0.135207,-0.44294700000000004,-0.572403,0.023575
361,3.61,-0.052224,-2.1324110000000003,-0.374282,-0.299133,-0.608627,0.012924
362,3.62,0.12825,-1.9652189999999998,-0.78806,-0.12976099999999996,-0.541519,-0.013718
363,3.63,0.187151,-1.8137860000000001,-1.16038,0.038559,-0.40303,-0.050995
364,3.64,0.153635,-1.619161,-1.518709,0.202606,-0.22512800000000002,-0.094681
365,3.65,0.078446,-1.386624,-1.804644,0.354935,-0.033386,-0.12344400000000001
366,3.66,0.040873,-1.181182,-2.058806,0.485962,0.151978,-0.13409400000000002
367,3.67,0.055823000000000005,-1.023576,-2.3162580000000004,0.587158,0.293655,-0.125565
368,3.68,0.10157000000000001,-0.803153,-2.502284,0.658539,0.4151,-0.10745199999999999
369,3.69,0.172834,-0.665959,-2.861141,0.680908,0.486465,-0.087219
370,3.7,0.125341,-0.341496,-3.006484,0.637238,0.52269,-0.06485
371,3.71,0.068203,-0.09652899999999999,-3.081315,0.538162,0.521622,-0.035019
372,3.72,0.035897000000000005,0.14867900000000006,-3.013515,0.396484,0.498184,0.005462999999999999
373,3.73,0.007815999999999997,0.263874,-2.8137119999999998,0.234558,0.46090699999999996,0.044876
374,3.74,-0.018505,0.38556,-2.5570939999999998,0.06518600000000001,0.393784,0.085358
375,3.75,-0.0897,0.374187,-2.258061,-0.10951199999999998,0.290451,0.124771
376,3.76,0.08219799999999995,0.37649699999999997,-1.829547,-0.2789,0.17114300000000002,0.156723
377,3.77,0.281565,0.24597199999999997,-1.2718479999999999,-0.425903,0.03266899999999999,0.158859
378,3.78,0.532954,0.11637,-0.639257,-0.524963,-0.109024,0.145004
379,3.79,0.8764370000000001,0.126419,0.020504000000000026,-0.567581,-0.245377,0.11198399999999999
380,3.8,1.07572,0.17013599999999998,0.599737,-0.552673,-0.390244,0.065109
381,3.81,1.0996860000000002,0.196665,1.050669,-0.49408,-0.49783299999999997,0.022507
382,3.82,1.064501,0.322446,1.357785,-0.404602,-0.544708,-0.01265
383,3.83,0.913523,0.41129799999999994,1.591667,-0.281021,-0.513824,-0.037155
384,3.84,0.682653,0.610366,1.729787,-0.138275,-0.424332,-0.046738
385,3.85,0.367361,0.8141520000000001,1.6998950000000002,0.005539000000000002,-0.287979,-0.041412
386,3.86,0.11231700000000001,1.001957,1.597432,0.113129,-0.12925699999999998,-0.010512999999999998
387,3.87,0.036463999999999996,1.205324,1.573091,0.187698,0.02095,0.023575
388,3.88,0.068678,1.362754,1.640353,0.21751399999999999,0.137054,0.055527
389,3.89,0.19988399999999998,1.839812,1.7751400000000002,0.21539299999999997,0.181793,0.0811
390,3.9,0.029227000000000006,2.199749,1.7530279999999998,0.21539299999999997,0.184998,0.093872
391,3.91,-0.445625,2.3586650000000002,1.5867129999999998,0.191956,0.218018,0.12796
392,3.92,-0.8508,2.253511,1.370292,0.12803599999999998,0.296844,0.18869
393,3.93,-1.0192430000000001,2.070933,1.188268,0.01937900000000001,0.396988,0.26112399999999997
394,3.94,-0.9643879999999999,1.562924,1.1143239999999999,-0.146805,0.440659,0.320786
395,3.95,-0.769342,0.621078,1.294232,-0.374771,0.351181,0.345276
396,3.96,-0.335903,-0.199966,1.7723060000000002,-0.6091310000000001,0.137054,0.31864899999999996
397,3.97,0.16799599999999998,-0.8270930000000001,2.423473,-0.774246,-0.18997200000000006,0.243011
398,3.98,0.5471090000000001,-1.159822,2.990475,-0.796616,-0.545776,0.143951
399,3.99,0.458653,-0.976634,3.4342330000000003,-0.655991,-0.781204,0.038482999999999996
400,4.0,0.08496500000000001,-0.6515310000000001,3.3326839999999995,-0.355591,-0.796112,-0.036087
401,4.01,-0.48591599999999996,-0.17366900000000002,2.873713,-0.010451999999999987,-0.61821,-0.050995
402,4.02,-1.03903,0.256825,2.103417,0.300613,-0.33165,-0.010513000000000002
403,4.03,-1.3441889999999999,0.39742,1.217344,0.530701,-0.014205999999999996,0.071503
404,4.04,-1.446656,0.273407,0.3157220000000001,0.639359,0.322418,0.165253
405,4.05,-1.344538,0.062973,-0.31199499999999997,0.624451,0.6654359999999999,0.25154099999999996
406,4.06,-1.228228,-0.15892799999999999,-0.626678,0.52858,0.957306,0.31864899999999996
407,4.07,-1.111202,-0.503605,-0.7645689999999999,0.395416,1.095795,0.356995
408,4.08,-0.9676370000000001,-0.786836,-0.814238,0.22390700000000002,1.049988,0.363388
409,4.09,-0.853965,-1.014628,-0.796305,0.028961,0.828415,0.360199
410,4.1,-0.610205,-1.286942,-0.702068,-0.16703800000000002,0.477951,0.339951
411,4.11,-0.194003,-1.484176,-0.487307,-0.327896,0.07952900000000003,0.30799899999999997
412,4.12,0.15698099999999998,-1.635952,-0.386429,-0.40779099999999996,-0.264542,0.265381
413,4.13,0.408127,-1.742752,-0.36909200000000003,-0.41098,-0.49676499999999996,0.230225
414,4.14,0.634421,-1.683761,-0.439496,-0.35133400000000004,-0.609695,0.20466600000000001
415,4.15,0.78205,-1.6615099999999998,-0.6005199999999999,-0.241608,-0.613953,0.180161
416,4.16,0.974102,-1.637058,-0.720295,-0.098862,-0.524475,0.154602
417,4.17,1.098003,-1.6256979999999999,-0.894958,0.070511,-0.36254899999999995,0.11624100000000001
418,4.18,1.1066690000000001,-1.557268,-1.127014,0.24201999999999999,-0.1772,0.069382
419,4.19,1.046915,-1.5433379999999999,-1.447327,0.39328,-0.006744,0.021439
420,4.2,0.9232239999999999,-1.516672,-1.766146,0.505142,0.114685,-0.021164
421,4.21,0.742297,-1.335785,-1.995754,0.575455,0.205231,-0.054199000000000004
422,4.22,0.47966400000000003,-1.270809,-2.3134419999999998,0.6095430000000001,0.259567,-0.0755
423,4.23,0.191687,-1.0332219999999999,-2.5015009999999998,0.599945,0.292587,-0.082962
424,4.24,-0.14399800000000001,-0.8432379999999999,-2.539174,0.573318,0.32988,-0.071243
425,4.25,-0.330339,-0.5780489999999999,-2.5618790000000002,0.527512,0.356506,-0.040344
426,4.26,-0.451112,-0.36522899999999997,-2.47377,0.464661,0.37141399999999997,-0.0019990000000000008
427,4.27,-0.38714699999999996,-0.154804,-2.353616,0.385834,0.352249,0.0289
428,4.28,-0.34023000000000003,-0.04534,-2.245204,0.289963,0.292587,0.034225
429,4.29,-0.343928,0.066066,-2.095641,0.164261,0.21269200000000002,0.023575
430,4.3,-0.347756,0.21969899999999998,-1.726779,0.031097000000000003,0.10935999999999998,0.008652
431,4.31,-0.40552,0.26171700000000003,-1.203745,-0.07756,-0.012085000000000005,-0.010513
432,4.32,-0.364492,0.427407,-0.733444,-0.142548,-0.13458299999999998,-0.028625
433,4.33,-0.34665100000000004,0.5420189999999999,-0.24672800000000003,-0.168106,-0.234711,-0.052063
434,4.34,-0.274594,0.6618189999999999,0.130177,-0.171295,-0.29118299999999997,-0.068039
435,4.35,-0.222923,0.821686,0.584033,-0.15745499999999998,-0.300766,-0.08401499999999999
436,4.36,-0.18094200000000002,0.92942,0.926384,-0.123367,-0.287979,-0.095734
437,4.37,-0.229726,0.975368,1.213335,-0.10206599999999999,-0.25709499999999996,-0.100006
438,4.38,-0.38161799999999996,1.0411219999999999,1.422034,-0.08075,-0.22405999999999998,-0.088287
439,4.39,-0.40878200000000003,0.989439,1.6375309999999998,-0.073303,-0.205963,-0.061646000000000006
440,4.4,-0.373577,1.2071690000000002,1.78585,-0.069031,-0.194244,-0.030762
441,4.41,-0.412405,1.625003,1.9325439999999998,-0.054123000000000004,-0.195297,0.007599
442,4.42,-0.5414220000000001,1.8838279999999998,1.8011009999999998,-0.013641,-0.19104000000000002,0.034225
443,4.43,-0.345609,2.313064,1.519662,0.010864,-0.154816,0.049132999999999996
444,4.44,-0.04746800000000001,2.575804,1.0678,-0.013641,-0.04722599999999999,0.039550999999999996
445,4.45,0.190892,2.470196,0.665452,-0.113785,0.09338400000000001,-0.0019990000000000008
446,4.46,0.336625,1.985136,0.537786,-0.30339099999999997,0.239319,-0.071243
447,4.47,0.315159,1.147073,0.8857389999999999,-0.5633239999999999,0.30856300000000003,-0.144745
448,4.48,0.520133,0.21380399999999994,1.6625130000000001,-0.82431,0.230804,-0.219315
449,4.49,0.775428,-0.5282220000000001,2.7275490000000002,-1.001144,0.010300000000000005,-0.296005
450,4.5,0.866577,-1.007215,3.7845,-1.0128629999999998,-0.334854,-0.352463
451,4.51,0.962973,-1.1245290000000001,4.404855,-0.841354,-0.705566,-0.401474
452,4.52,0.91661,-0.943578,4.345479,-0.5281680000000001,-0.940994,-0.425964
453,4.53,0.785086,-0.576784,3.6573279999999997,-0.173431,-0.969757,-0.425964
454,4.54,0.367971,-0.143308,2.662604,0.13336199999999998,-0.789719,-0.391876
455,4.55,-0.021411000000000013,0.178058,1.6456220000000001,0.349609,-0.494644,-0.316254
456,4.56,-0.15353599999999998,0.19428099999999998,0.723657,0.465729,-0.16441300000000006,-0.215042
457,4.57,-0.079003,-0.090292,0.012085000000000012,0.49021899999999996,0.192459,-0.109589
458,4.58,0.096877,-0.40073600000000004,-0.439159,0.433762,0.521622,-0.024368000000000008
459,4.59,0.148059,-0.794837,-0.6606380000000001,0.318726,0.738937,0.029968
460,4.6,-0.0007599999999999968,-1.219514,-0.817171,0.155731,0.779419,0.059784000000000004
461,4.61,-0.15605,-1.405294,-0.782154,-0.038147,0.6643680000000001,0.080032
462,4.62,-0.183264,-1.612607,-0.7438100000000001,-0.214981,0.442795,0.086426
463,4.63,-0.10288399999999999,-1.797352,-0.708541,-0.342804,0.16581700000000002,0.07470700000000001
464,4.64,0.028184000000000008,-1.8661860000000001,-0.672456,-0.41737399999999997,-0.103683,0.039550999999999996
465,4.65,0.185755,-1.871523,-0.637321,-0.431229,-0.33165,-0.017975
466,4.66,0.217435,-1.77813,-0.72977,-0.37796,-0.493576,-0.080826
467,4.67,0.170543,-1.668436,-0.947652,-0.282089,-0.5638890000000001,-0.14793399999999998
468,4.68,0.111697,-1.539628,-1.2094,-0.16597,-0.536194,-0.197998
469,4.69,0.151369,-1.40044,-1.4937120000000002,-0.032822000000000004,-0.411545,-0.242752
470,4.7,0.176373,-1.214509,-1.698552,0.099274,-0.235779,-0.28321799999999997
471,4.71,0.258675,-1.065696,-1.907087,0.22283899999999998,-0.04722599999999999,-0.321579
472,4.72,0.337507,-0.924694,-2.023641,0.321915,0.133865,-0.360992
473,4.73,0.327989,-0.837873,-2.167968,0.394348,0.274475,-0.39826999999999996
474,4.74,0.24001799999999998,-0.716949,-2.1747650000000003,0.444427,0.37248200000000004,-0.42063900000000004
475,4.75,0.11267200000000001,-0.47912,-2.155055,0.464661,0.424683,-0.430237
476,4.76,-0.006820999999999994,-0.249815,-2.165036,0.465729,0.42575100000000005,-0.415314
477,4.77,-0.158143,-0.087314,-2.141627,0.429504,0.404434,-0.3759
478,4.78,-0.328138,0.116843,-2.048542,0.367722,0.367157,-0.30985999999999997
479,4.79,-0.471347,0.262691,-1.8918720000000002,0.281433,0.292587,-0.22464
480,4.8,-0.529621,0.287646,-1.6486150000000002,0.179169,0.205231,-0.12023900000000001
481,4.81,-0.420612,0.31708400000000003,-1.29241,0.066254,0.105103,-0.0233
482,4.82,-0.240387,0.27771999999999997,-0.9087379999999999,-0.038147,-0.011017,0.04913300000000001
483,4.83,-0.023331000000000005,0.24480100000000002,-0.463563,-0.128693,-0.13458299999999998,0.092819
484,4.84,0.173631,0.25798000000000004,0.041374,-0.183014,-0.260284,0.10665899999999999
485,4.85,0.330493,0.258762,0.5163300000000001,-0.189407,-0.371078,0.10240199999999999
486,4.86,0.374635,0.294325,0.8189489999999999,-0.155319,-0.45202600000000004,0.088547
487,4.87,0.368716,0.452531,1.0168469999999998,-0.096741,-0.492508,0.082153
488,4.88,0.381495,0.668045,1.050784,-0.028564,-0.471207,0.080032
489,4.89,0.267542,0.833312,1.0220719999999999,0.037491000000000003,-0.401962,0.082153
490,4.9,0.23163699999999998,1.079402,0.9199860000000001,0.08862300000000001,-0.283722,0.0811
491,4.91,0.168747,1.196656,0.8349629999999999,0.11099200000000001,-0.153763,0.07470700000000001
492,4.92,0.09264299999999999,1.354846,0.902984,0.10141,-0.015273999999999998,0.069382
493,4.93,0.076545,1.5564719999999999,1.16858,0.073715,0.092316,0.067245
494,4.94,0.11986199999999998,1.9412669999999999,1.519924,0.06944299999999999,0.129608,0.060851999999999996
495,4.95,-0.03602299999999998,2.359553,1.626563,0.09287999999999999,0.11361700000000001,0.057663
496,4.96,-0.46544399999999997,2.429018,1.3917,0.102478,0.129608,0.06192
497,4.97,-0.860331,2.192006,1.0549309999999998,0.053466999999999994,0.22866799999999998,0.089615
498,4.98,-0.9351379999999999,1.828038,0.811237,-0.07862899999999999,0.38101199999999996,0.126907
499,4.99,-1.040126,0.6182,1.1014389999999998,-0.43336499999999994,0.480072,0.18548599999999998
500,5.0,-0.885969,-0.390783,1.718143,-0.682632,0.3629,0.197205
501,5.01,-0.552511,-1.010892,2.637736,-0.843491,0.09870899999999996,0.166321
502,5.02,-0.261173,-1.174051,3.440526,-0.8402860000000001,-0.246429,0.09919700000000001
503,5.03,-0.331549,-1.048564,3.880793,-0.652802,-0.544708,0.013976999999999995
504,5.04,-0.685366,-0.60712,3.6443190000000003,-0.330032,-0.6938479999999999,-0.048874
505,5.05,-1.1910459999999998,0.22653100000000004,2.577428,0.181305,-0.520203,-0.036087
506,5.06,-1.349537,0.5554520000000001,1.753946,0.45401,-0.234711,0.029968000000000005
507,5.07,-1.388577,0.593057,0.803922,0.623383,0.12001000000000002,0.11412
508,5.08,-1.241369,0.365127,0.009716999999999977,0.647888,0.529083,0.207855
509,5.09,-1.098984,0.09570399999999997,-0.47811800000000004,0.5626680000000001,0.898727,0.294144
510,5.1,-1.055342,-0.23798200000000003,-0.676467,0.422043,1.072357,0.361252
511,5.11,-1.080085,-0.536892,-0.817079,0.253738,1.008453,0.39961199999999997
512,5.12,-0.983665,-0.8373860000000001,-0.963226,0.070511,0.763428,0.419846
513,5.13,-0.6989810000000001,-1.126127,-1.023929,-0.113785,0.42361499999999996,0.415588
514,5.14,-0.292933,-1.354172,-1.102468,-0.27462800000000004,0.080597,0.380432
515,5.15,-0.007556000000000006,-1.526226,-1.158669,-0.383286,-0.184647,0.32611100000000004
516,5.16,0.138246,-1.6400720000000002,-1.128484,-0.434418,-0.335922,0.27923600000000004
517,5.17,0.378366,-1.717744,-1.131283,-0.423767,-0.391312,0.241943
518,5.18,0.6008760000000001,-1.742853,-1.161561,-0.36198400000000003,-0.388123,0.201477
519,5.19,0.854816,-1.7427700000000002,-1.19581,-0.26823400000000003,-0.351898,0.156723
520,5.2,0.954116,-1.727507,-1.2462870000000001,-0.147873,-0.296509,0.108795
521,5.21,1.034665,-1.653966,-1.322323,-0.017898999999999998,-0.233658,0.05873099999999999
522,5.22,1.047029,-1.557397,-1.4481389999999998,0.113129,-0.166534,0.011856000000000002
523,5.23,0.8897520000000001,-1.5062870000000002,-1.642425,0.240952,-0.099426,-0.028625
524,5.24,0.765163,-1.406204,-1.940102,0.329376,-0.036575,-0.068039
525,5.25,0.48839899999999997,-1.24896,-2.110898,0.382629,0.022018,-0.094681
526,5.26,0.23038899999999998,-1.091482,-2.2821439999999997,0.396484,0.07633999999999999,-0.111725
527,5.27,-0.06100700000000001,-0.9075340000000001,-2.301444,0.375183,0.129608,-0.094681
528,5.28,-0.20141900000000001,-0.73919,-2.251098,0.338959,0.159424,-0.060592999999999994
529,5.29,-0.360729,-0.5748310000000001,-2.172703,0.299545,0.15623499999999998,-0.012650000000000002
530,5.3,-0.53635,-0.388473,-2.118429,0.246277,0.140259,0.036345999999999996
531,5.31,-0.673401,-0.28308099999999997,-2.029963,0.177032,0.11256400000000001,0.086426
532,5.32,-0.7711899999999999,-0.12246199999999999,-1.8998099999999998,0.086487,0.07633999999999999,0.138626
533,5.33,-0.678383,0.04408,-1.661087,-0.0051270000000000005,0.037994,0.17804
534,5.34,-0.5408069999999999,0.14469300000000002,-1.3605040000000002,-0.082886,0.012421,0.20253
535,5.35,-0.393804,0.22462600000000002,-1.026857,-0.14041099999999998,-0.015274,0.201477
536,5.36,-0.218058,0.419591,-0.7077289999999999,-0.184082,-0.046173,0.18229700000000001
537,5.37,-0.061027,0.65008,-0.11728499999999999,-0.21072399999999997,-0.07386799999999999,0.12051400000000001
538,5.38,-0.056589,0.8194969999999999,0.182229,-0.21816999999999998,-0.094101,0.073639
539,5.39,-0.17260799999999998,0.876655,0.5331859999999999,-0.22563200000000003,-0.094101,0.033157
540,5.4,-0.355279,1.009408,0.883124,-0.252258,-0.078125,0.01825
541,5.41,-0.46564300000000003,1.105466,1.296915,-0.277832,-0.056824,0.024643
542,5.42,-0.500808,1.075323,1.7309709999999998,-0.29699699999999996,-0.034454000000000005,0.048065
543,5.43,-0.289269,1.353615,2.169479,-0.28741500000000003,-0.06640599999999999,0.07470700000000001
544,5.44,-0.223334,1.697177,2.3978599999999997,-0.241608,-0.13884000000000002,0.089615
545,5.45,-0.089644,2.0415919999999996,2.328331,-0.18196099999999998,-0.194244,0.09919700000000001
546,5.46,0.14590899999999998,2.464108,2.059821,-0.134018,-0.198502,0.088547
547,5.47,0.33672199999999997,2.566921,1.653857,-0.142548,-0.128189,0.05873099999999999
548,5.48,0.575612,2.41486,1.433174,-0.22988899999999998,0.0017699999999999938,0.026764
549,5.49,0.715726,1.9391369999999999,1.4333930000000001,-0.373703,0.143448,-0.011581
550,5.5,0.7251350000000001,0.995122,1.7330709999999998,-0.555862,0.235062,-0.060592999999999994
551,5.51,0.805629,0.158924,2.376824,-0.727371,0.23613,-0.10426300000000001
552,5.52,1.013206,-0.479688,3.231007,-0.814728,0.123215,-0.141541
553,5.53,0.957686,-0.5527920000000001,4.003407,-0.7721100000000001,-0.112213,-0.190552
554,5.54,1.083002,-0.959831,4.320212000000001,-0.573975,-0.410492,-0.219315
555,5.55,1.660564,-0.997188,4.161583,-0.258652,-0.61821,-0.256592
556,5.56,1.9949759999999999,-0.736895,3.458686,0.08862300000000001,-0.6341859999999999,-0.320511
557,5.57,1.9161110000000001,-0.570448,2.4473119999999997,0.369858,-0.466949,-0.371643
558,5.58,1.307619,0.013444999999999985,1.3512469999999999,0.546692,-0.254959,-0.372711
559,5.59,0.522588,0.24512199999999998,0.270378,0.5967560000000001,-0.02273600000000001,-0.308792
560,5.6,-0.12597999999999998,0.35427,-0.50641,0.532837,0.218018,-0.18948399999999999
561,5.61,-0.3106,0.207585,-0.999367,0.394348,0.46835299999999996,-0.036087
562,5.62,-0.151411,-0.199826,-1.146876,0.193024,0.650513,0.071503
563,5.63,-0.093248,-0.622739,-0.9643649999999999,-0.030685000000000007,0.697388,0.126907
564,5.64,-0.005604999999999999,-1.1303889999999999,-0.648113,-0.234146,0.610031,0.146072
565,5.65,0.072256,-1.5241049999999998,-0.27139800000000003,-0.384354,0.38952600000000004,0.118378
566,5.66,0.011902000000000005,-1.793441,-0.069211,-0.46211199999999997,0.09870900000000002,0.073639
567,5.67,-0.073863,-1.9526720000000002,-0.092885,-0.46745299999999995,-0.194244,0.035294
568,5.68,-0.079373,-2.0337389999999997,-0.29049200000000003,-0.415253,-0.44244399999999995,-0.0030670000000000003
569,5.69,0.064052,-2.0813040000000003,-0.534553,-0.323639,-0.590515,-0.036087
570,5.7,0.22428,-2.051565,-0.9132809999999999,-0.20645100000000002,-0.629929,-0.080826
571,5.71,0.411725,-2.015359,-1.3027360000000001,-0.07862899999999999,-0.577728,-0.138351
572,5.72,0.514119,-1.841275,-1.620868,0.04600499999999999,-0.448837,-0.210785
573,5.73,0.620911,-1.6196629999999999,-1.9499419999999998,0.155731,-0.277328,-0.298141
574,5.74,0.541662,-1.437817,-2.132187,0.251602,-0.09196499999999999,-0.391876
575,5.75,0.35893800000000003,-1.32006,-2.202857,0.345352,0.098709,-0.466446
576,5.76,0.15645899999999996,-1.1858540000000002,-2.184124,0.43696599999999997,0.24571199999999999,-0.523972
577,5.77,0.013889,-0.9984700000000001,-2.239743,0.538162,0.336258,-0.554871
578,5.78,-0.11998199999999999,-0.736893,-2.3289459999999997,0.6127319999999999,0.398056,-0.5623319999999999
579,5.79,-0.28279499999999996,-0.41511899999999996,-2.436107,0.651077,0.453445,-0.533569
580,5.8,-0.40572199999999997,-0.173753,-2.504782,0.651077,0.49925200000000003,-0.466446
581,5.81,-0.44892,0.043005000000000015,-2.4666919999999997,0.599945,0.545059,-0.37696799999999997
582,5.82,-0.56415,0.176559,-2.292293,0.505142,0.565292,-0.274704
583,5.83,-0.608662,0.32268800000000003,-1.994416,0.385834,0.546127,-0.16391
584,5.84,-0.49661000000000005,0.42499899999999996,-1.508924,0.257996,0.48220799999999997,-0.057388
585,5.85,-0.42665200000000003,0.425654,-1.028186,0.149338,0.350113,0.025696
586,5.86,-0.290628,0.41648500000000005,-0.726056,0.04920999999999999,0.17008999999999996,0.087479
587,5.87,-0.099798,0.383326,-0.42607399999999995,-0.056259,-0.03125,0.126907
588,5.88,0.23288600000000004,0.43098800000000004,-0.032784000000000015,-0.15745499999999998,-0.226196,0.139679
589,5.89,0.5693590000000001,0.551504,0.372083,-0.217102,-0.42221099999999995,0.129028
590,5.9,0.8424879999999999,0.688606,0.642267,-0.221375,-0.586258,0.10986300000000002
591,5.91,0.95257,0.8753190000000001,0.7154510000000001,-0.19686900000000002,-0.664017,0.07896399999999999
592,5.92,0.8498,1.093677,0.721891,-0.179825,-0.6395109999999999,0.057663
593,5.93,0.711123,1.345921,0.731923,-0.179825,-0.54364,0.045944
594,5.94,0.584915,1.4879950000000002,0.917725,-0.20965599999999998,-0.384918,0.055527
595,5.95,0.5622550000000001,1.6461759999999999,1.390123,-0.241608,-0.21980300000000003,0.080032
596,5.96,0.538482,1.855463,1.9586259999999998,-0.22776799999999997,-0.093033,0.10133400000000001
597,5.97,0.47918599999999995,2.1661650000000003,2.28848,-0.16703800000000002,-0.026993,0.10665899999999999
598,5.98,0.23164899999999997,2.432692,2.277175,-0.07862899999999999,0.015625,0.107727
599,5.99,-0.108959,2.544306,2.038961,-0.017899,0.100845,0.121582
600,6.0,-0.360782,2.418029,1.660454,-0.022171,0.235062,0.154602
601,6.01,-0.438093,2.12659,1.367791,-0.127625,0.33200100000000005,0.186554
602,6.02,-0.36292199999999997,1.460032,1.363445,-0.33429000000000003,0.34692399999999995,0.19934100000000002
603,6.03,-0.36693899999999996,0.4816090000000001,1.706968,-0.594208,0.2798,0.187622
604,6.04,-0.265018,-0.38916999999999996,2.360538,-0.823242,0.101913,0.158859
605,6.05,-0.134046,-0.9295530000000001,3.31377,-0.9404299999999999,-0.152695,0.10240199999999999
606,6.06,-0.107064,-1.123517,4.007857,-0.8722530000000001,-0.424332,0.032089000000000006
607,6.07,-0.468149,-0.9762940000000001,4.249459,-0.628296,-0.622467,-0.041412
608,6.08,-0.919162,-0.598183,3.837826,-0.276764,-0.650177,-0.080826
609,6.09,-1.301998,-0.15682800000000002,3.0950919999999997,0.072647,-0.509552,-0.073364
610,6.1,-1.571337,0.152922,2.127401,0.356003,-0.286911,-0.028625
611,6.11,-1.631284,0.214338,1.203929,0.537094,-0.006744,0.041687
612,6.12,-1.578756,0.044379,0.390466,0.60527,0.306442,0.124771
613,6.13,-1.404734,-0.20232999999999998,-0.243845,0.570114,0.598312,0.21424899999999997
614,6.14,-1.181015,-0.533937,-0.684009,0.478516,0.777283,0.28881799999999996
615,6.15,-1.016094,-0.8334219999999999,-1.03369,0.34642,0.770889,0.334625
616,6.16,-0.85639,-1.106698,-1.283607,0.173843,0.610031,0.36232
617,6.17,-0.6304,-1.353067,-1.4758,-0.010451999999999987,0.343719,0.360199
618,6.18,-0.376647,-1.5873680000000001,-1.469449,-0.17236300000000002,0.04438799999999998,0.341019
619,6.19,-0.036694,-1.71122,-1.478681,-0.28741500000000003,-0.223007,0.295212
620,6.2,0.204034,-1.8177759999999998,-1.45761,-0.34494,-0.407288,0.240891
621,6.21,0.44534300000000004,-1.9088209999999999,-1.3875549999999999,-0.349197,-0.483994,0.18229700000000001
622,6.22,0.767578,-1.785695,-1.272084,-0.294876,-0.473343,0.133286
623,6.23,0.963199,-1.800214,-1.202841,-0.178757,-0.407288,0.077896
624,6.24,1.137416,-1.784843,-1.21717,-0.016846,-0.306091,0.032089
625,6.25,1.271181,-1.7513,-1.3395709999999998,0.169586,-0.18038900000000002,-0.024368
626,6.26,1.309668,-1.6451689999999999,-1.578825,0.348541,-0.044037000000000014,-0.088287
627,6.27,1.17885,-1.599258,-1.775109,0.500885,0.085922,-0.154327
628,6.28,0.921676,-1.441669,-2.084863,0.624451,0.196716,-0.20971700000000001
629,6.29,0.630075,-1.275674,-2.3146259999999996,0.708603,0.296844,-0.240616
630,6.3,0.29857100000000003,-1.064527,-2.4900189999999998,0.760803,0.37355,-0.24913000000000002
631,6.31,0.043065999999999986,-0.898467,-2.701202,0.774658,0.438522,-0.233154
632,6.32,-0.20942600000000003,-0.646536,-2.8384270000000003,0.742691,0.492859,-0.197998
633,6.33,-0.39356599999999997,-0.323467,-2.817352,0.671326,0.521622,-0.16391
634,6.34,-0.655157,-0.102376,-2.756339,0.575455,0.523758,-0.127701
635,6.35,-0.814921,0.039743,-2.548883,0.44548000000000004,0.50351,-0.094681
636,6.36,-0.934666,0.192492,-2.148507,0.292084,0.440659,-0.069107
637,6.37,-1.029376,0.24044899999999997,-1.640416,0.14827,0.350113,-0.038208
638,6.38,-0.91091,0.25106100000000003,-0.971092,0.031097000000000003,0.22973600000000002,-0.019043
639,6.39,-0.812882,0.238575,-0.32184100000000004,-0.050934,0.082733,-0.011581000000000001
640,6.4,-0.667665,0.28174499999999997,0.22578099999999998,-0.089279,-0.071732,-0.021164
641,6.41,-0.5451729999999999,0.43563199999999996,0.810535,-0.08075,-0.23045300000000002,-0.046738
642,6.42,-0.513787,0.6480779999999999,1.169984,-0.026427999999999997,-0.361481,-0.082962
643,6.43,-0.677649,0.8299469999999999,1.284692,0.051330999999999995,-0.41900600000000005,-0.11065699999999999
644,6.44,-0.8383649999999999,1.0152459999999999,1.248612,0.123779,-0.393448,-0.122375
645,6.45,-0.866915,1.22071,1.241114,0.16745,-0.289047,-0.10319500000000001
646,6.46,-0.8698309999999999,1.362935,1.266953,0.17598,-0.128189,-0.072296
647,6.47,-0.815941,1.511,1.419349,0.15998800000000002,0.006026999999999998,-0.030762
648,6.48,-0.6820470000000001,1.931815,1.591269,0.124847,0.092316,0.040619
649,6.49,-0.6039,2.281143,1.540866,0.100342,0.082733,0.07257100000000001
650,6.5,-0.408227,2.643968,1.354066,0.06304900000000001,0.063553,0.092819
651,6.51,-0.148201,2.63975,1.089445,-0.013641000000000006,0.07420299999999999,0.09494
652,6.52,0.062217000000000015,2.438911,0.8203860000000001,-0.14999400000000002,0.11788900000000001,0.085358
653,6.53,0.188146,1.7794830000000001,0.756789,-0.347076,0.17860399999999998,0.065109
654,6.54,0.337006,0.9185,1.079426,-0.611252,0.167953,0.0289
655,6.55,0.47791000000000006,0.123521,1.935079,-0.8615879999999999,0.055038,-0.025436
656,6.56,0.782177,-0.524108,3.027627,-0.9968870000000001,-0.14949,-0.08189400000000001
657,6.57,1.135386,-0.8745940000000001,4.0788839999999995,-0.9457549999999999,-0.408356,-0.145813
658,6.58,1.415632,-0.892094,4.5735779999999995,-0.702866,-0.63739,-0.219315
659,6.59,1.34909,-0.715013,4.353139,-0.34387199999999996,-0.742844,-0.297073
660,6.6,1.06034,-0.321756,3.545758,0.031096999999999982,-0.67894,-0.336487
661,6.61,0.693051,-0.043939000000000006,2.4395119999999997,0.315521,-0.487183,-0.334366
662,6.62,0.43754099999999996,0.135273,1.3581299999999998,0.488098,-0.244308,-0.29388400000000003
663,6.63,0.310655,0.092086,0.431209,0.548813,0.03266899999999999,-0.23848000000000003
664,6.64,0.31747800000000004,-0.09251799999999999,-0.28965,0.49556000000000006,0.34158299999999997,-0.174576
665,6.65,0.30074,-0.329638,-0.617949,0.370911,0.59726,-0.12449600000000001
666,6.66,0.17691600000000002,-0.720039,-0.737179,0.195145,0.716568,-0.08401499999999999
667,6.67,0.01988,-1.095387,-0.675035,-0.010452000000000005,0.632401,-0.060592999999999994
668,6.68,-0.026539999999999998,-1.4137170000000001,-0.505922,-0.20751999999999998,0.407639,-0.038208
669,6.69,-0.026372000000000003,-1.743239,-0.417192,-0.36837800000000004,0.118958,-0.033951
670,6.7,-0.004447,-1.9219689999999998,-0.294223,-0.46745299999999995,-0.17399600000000004,-0.039276
671,6.71,0.026835,-2.040076,-0.293163,-0.488754,-0.41900600000000005,-0.054199000000000004
672,6.72,0.073642,-2.056394,-0.334864,-0.426971,-0.561752,-0.069107
673,6.73,0.175742,-2.02579,-0.53071,-0.302338,-0.589447,-0.08934
674,6.74,0.29601,-1.9139529999999998,-0.815095,-0.13827499999999998,-0.5180819999999999,-0.112778
675,6.75,0.309713,-1.801765,-1.174975,0.048141,-0.363617,-0.15219100000000002
676,6.76,0.298923,-1.6786299999999998,-1.606491,0.23350500000000002,-0.162277,-0.192673
677,6.77,0.352069,-1.526709,-1.993237,0.397552,0.056107,-0.241684
678,6.78,0.43872700000000003,-1.381586,-2.384178,0.5189819999999999,0.24998499999999998,-0.29281599999999997
679,6.79,0.494642,-1.23896,-2.6336630000000003,0.6020810000000001,0.391663,-0.33969099999999997
680,6.8,0.5404720000000001,-1.0758459999999999,-2.761158,0.647888,0.498184,-0.3759
681,6.81,0.504876,-0.8758040000000001,-2.9126540000000003,0.6596069999999999,0.5375979999999999,-0.400406
682,6.82,0.30701999999999996,-0.55147,-2.9422080000000004,0.635101,0.5663600000000001,-0.409988
683,6.83,-0.032258000000000016,-0.301834,-2.904952,0.587158,0.5844729999999999,-0.383362
684,6.84,-0.386277,-0.050011,-2.771426,0.5136569999999999,0.575943,-0.325836
685,6.85,-0.605783,0.178535,-2.517348,0.42631499999999994,0.562103,-0.231033
686,6.86,-0.674633,0.341646,-2.244488,0.325104,0.510971,-0.125565
687,6.87,-0.438342,0.47678400000000004,-1.8730240000000002,0.212189,0.42894,-0.025436
688,6.88,-0.10746199999999999,0.5381859999999999,-1.5762049999999999,0.090759,0.311768,0.048065
689,6.89,0.189113,0.526929,-1.17099,-0.03282199999999999,0.16155999999999998,0.087479
690,6.9,0.337922,0.457729,-0.822807,-0.142548,-0.008881,0.097076
691,6.91,0.43939799999999996,0.458487,-0.395787,-0.245865,-0.179321,0.10347
692,6.92,0.490316,0.519683,0.07081400000000003,-0.319382,-0.324203,0.10986300000000002
693,6.93,0.40887199999999996,0.600807,0.450585,-0.356659,-0.44244399999999995,0.11944600000000001
694,6.94,0.267524,0.682184,0.711404,-0.370514,-0.506363,0.14288299999999998
695,6.95,0.078908,0.781563,0.8694700000000001,-0.36198400000000003,-0.494644,0.187622
696,6.96,-0.007393,0.862132,0.949317,-0.354523,-0.41688500000000006,0.246216
697,6.97,0.035600999999999994,0.9571870000000001,1.053705,-0.354523,-0.293304,0.29628000000000004
698,6.98,0.100871,1.053038,1.275185,-0.357727,-0.18038900000000002,0.330368
699,6.99,0.189355,1.163147,1.494731,-0.357727,-0.084518,0.341019
700,7.0,0.299715,1.461784,1.749196,-0.339615,-0.03978,0.327164
701,7.01,0.25860900000000003,1.897197,1.9523830000000002,-0.291672,-0.032318,0.29628000000000004
702,7.02,-0.089882,2.175043,1.8372669999999998,-0.234146,-0.01741,0.25898699999999997
703,7.03,-0.379821,2.206482,1.58703,-0.203262,0.060364,0.241943
704,7.04,-0.53974,1.936518,1.243955,-0.241608,0.207367,0.23449699999999998
705,7.05,-0.458912,1.525686,1.133135,-0.387558,0.298981,0.21424899999999997
706,7.06,-0.293085,0.760794,1.474556,-0.6038060000000001,0.275543,0.170578
707,7.07,-0.111476,-0.15037100000000006,2.120914,-0.81366,0.11682100000000001,0.10986300000000002
708,7.08,0.190189,-0.785134,2.971397,-0.946808,-0.14949,0.036345999999999996
709,7.09,0.334281,-1.116471,3.798797,-0.926575,-0.46267700000000006,-0.048874
710,7.1,0.170475,-1.118191,4.221466,-0.73056,-0.734329,-0.121307
711,7.11,-0.16383499999999998,-0.807158,4.138846,-0.396072,-0.845108,-0.16178900000000002
712,7.12,-0.540538,-0.380809,3.499508,-0.02110300000000001,-0.748169,-0.160721
713,7.13,-1.039086,0.08467100000000001,2.550498,0.302734,-0.494644,-0.11491400000000002
714,7.14,-1.417765,0.214432,1.5300770000000001,0.530701,-0.161209,-0.031830000000000004
715,7.15,-1.513203,0.173395,0.595699,0.598877,0.239319,0.080032
716,7.16,-1.311717,-0.021423000000000008,0.017321000000000003,0.512604,0.62175,0.192947
717,7.17,-1.187889,-0.288952,-0.101306,0.349609,0.879547,0.27284200000000003
718,7.18,-1.171734,-0.525783,-0.016958,0.181305,0.9509280000000001,0.316513
719,7.19,-1.279823,-0.8486379999999999,0.020411000000000002,0.020446999999999996,0.855042,0.342087
720,7.2,-1.271771,-1.054338,0.010833000000000002,-0.137207,0.641998,0.359131
721,7.21,-1.073373,-1.308184,-0.06057100000000001,-0.273575,0.37248200000000004,0.358063
722,7.22,-0.7989,-1.504271,-0.142237,-0.373703,0.100845,0.344208
723,7.23,-0.430576,-1.6577099999999998,-0.304329,-0.41204799999999997,-0.131393,0.313324
724,7.24,-0.047938000000000015,-1.676969,-0.490975,-0.396072,-0.299698,0.270706
725,7.25,0.248171,-1.6762080000000001,-0.75462,-0.333221,-0.40303,0.216385
726,7.26,0.538956,-1.692891,-1.056713,-0.23948699999999998,-0.45202600000000004,0.166321
727,7.27,0.9048510000000001,-1.570697,-1.416512,-0.123367,-0.450974,0.108795
728,7.28,1.133494,-1.6488630000000002,-1.797063,-0.004059,-0.401962,0.04274
729,7.29,1.231493,-1.607797,-2.132114,0.10141,-0.292236,-0.024368
730,7.3,1.241875,-1.4833379999999998,-2.336071,0.209,-0.151627,-0.088287
731,7.31,1.066817,-1.437034,-2.5924150000000004,0.30700700000000003,-0.0014190000000000036,-0.138351
732,7.32,0.801605,-1.264891,-2.70594,0.383698,0.137054,-0.173508
733,7.33,0.508368,-1.1721780000000002,-2.696978,0.43483,0.267029,-0.19162
734,7.34,0.23814000000000002,-0.9883129999999999,-2.673689,0.48489399999999994,0.349045,-0.190552
735,7.35,-0.06336,-0.804327,-2.6619770000000003,0.510468,0.405502,-0.179901
736,7.36,-0.298673,-0.6493220000000001,-2.580724,0.512604,0.450241,-0.14793399999999998
737,7.37,-0.5186850000000001,-0.43004799999999993,-2.483397,0.49556000000000006,0.484329,-0.095734
738,7.38,-0.587296,-0.236887,-2.274145,0.45933500000000005,0.498184,-0.036087000000000015
739,7.39,-0.631853,-0.048306,-2.005974,0.42099,0.487534,0.027832000000000003
740,7.4,-0.6665220000000001,0.08998099999999999,-1.746325,0.384766,0.44172700000000004,0.08429
741,7.41,-0.623525,0.23946399999999998,-1.480802,0.341095,0.374619,0.126907
742,7.42,-0.561607,0.36546999999999996,-1.190303,0.289963,0.276611,0.143951
743,7.43,-0.611483,0.47850600000000004,-0.8292299999999999,0.22390700000000002,0.167953,0.141815
744,7.44,-0.636709,0.6624899999999999,-0.378794,0.162125,0.048645,0.132233
745,7.45,-0.662104,0.8365229999999999,-0.037214,0.12271099999999999,-0.05575599999999999,0.11518900000000001
746,7.46,-0.699682,0.9794799999999999,0.29782800000000004,0.106735,-0.126068,0.100266
747,7.47,-0.70027,1.0246600000000001,0.436967,0.08862300000000001,-0.159088,0.080032
748,7.48,-0.718008,1.1314440000000001,0.704577,0.051330999999999995,-0.165482,0.066177
749,7.49,-0.758441,1.164907,0.9991459999999999,0.0034029999999999963,-0.165482,0.068314
750,7.5,-0.693998,1.092678,1.306054,-0.034943,-0.182526,0.082153
751,7.51,-0.5331060000000001,1.2272610000000002,1.5242229999999999,-0.06051599999999999,-0.22938499999999998,0.092819
752,7.52,-0.34766199999999997,1.655386,1.750231,-0.061584,-0.300766,0.10133400000000001
753,7.53,-0.358978,2.134538,1.635952,-0.041336000000000005,-0.371078,0.113052
754,7.54,-0.220038,2.506884,1.3102,-0.02536,-0.385986,0.118378
755,7.55,0.11328500000000002,2.844144,0.84803,-0.073303,-0.329529,0.11731
756,7.56,0.5010600000000001,2.887722,0.596213,-0.214981,-0.235779,0.108795
757,7.57,0.776767,2.539255,0.5889850000000001,-0.434418,-0.152695,0.085358
758,7.58,0.8955489999999999,1.8381509999999999,0.9148809999999999,-0.694351,-0.074921,0.048065
759,7.59,0.923182,0.794983,1.633384,-0.9436190000000001,-0.041901,0.0001370000000000017
760,7.6,1.149864,-0.05807200000000001,2.646457,-1.121521,-0.123932,-0.046738
761,7.61,1.484815,-0.822478,3.794049,-1.15773,-0.335922,-0.118103
762,7.62,1.71133,-1.005944,4.721108999999999,-1.0054020000000001,-0.636322,-0.210785
763,7.63,1.6817919999999997,-1.0523280000000002,4.91325,-0.682632,-0.93779,-0.30985999999999997
764,7.64,1.559186,-0.8086220000000001,4.389789,-0.286346,-1.107162,-0.388687
765,7.65,1.225523,-0.374718,3.3853400000000002,0.08329799999999997,-1.0784,-0.42703199999999997
766,7.66,0.778844,-0.072252,2.2544169999999997,0.363464,-0.878143,-0.40892
767,7.67,0.48697399999999996,0.089792,1.132126,0.53923,-0.6000979999999999,-0.34288
768,7.68,0.327741,0.061163,0.208253,0.598877,-0.267746,-0.25340300000000004
769,7.69,0.33781,-0.15066199999999996,-0.4180280000000001,0.57225,0.09552000000000001,-0.159653
770,7.7,0.328212,-0.38803699999999997,-0.755386,0.494492,0.43426499999999996,-0.091476
771,7.71,0.214644,-0.705626,-0.895173,0.389023,0.680344,-0.047806
772,7.72,-0.0012749999999999984,-1.057146,-0.94276,0.257996,0.764496,-0.021164
773,7.73,-0.16592200000000001,-1.333556,-0.882257,0.09820599999999999,0.688873,-0.011581000000000001
774,7.74,-0.281978,-1.614481,-0.823333,-0.055191,0.502441,-0.013718000000000001
775,7.75,-0.261765,-1.8172110000000001,-0.800581,-0.19261199999999998,0.22547899999999998,-0.026505
776,7.76,-0.22159600000000002,-1.889514,-0.733262,-0.293808,-0.07066299999999999,-0.046738
777,7.77,-0.17636400000000002,-2.023409,-0.804612,-0.346008,-0.319946,-0.066971
778,7.78,-0.07737000000000001,-2.0040430000000002,-0.885185,-0.346008,-0.485062,-0.092545
779,7.79,-0.019959000000000005,-1.915412,-1.006207,-0.288483,-0.531921,-0.12023900000000001
780,7.8,0.055314999999999996,-1.803104,-1.228415,-0.18728599999999998,-0.49676499999999996,-0.159653
781,7.81,0.108748,-1.6312309999999999,-1.4046370000000001,-0.05519099999999999,-0.39450100000000005,-0.20652800000000002
782,7.82,0.10858499999999999,-1.407975,-1.671405,0.08223,-0.24110399999999998,-0.252335
783,7.83,0.13428199999999998,-1.21204,-1.8833650000000002,0.23136900000000002,-0.07386799999999999,-0.29921
784,7.84,0.248475,-1.092578,-2.119973,0.364532,0.09764099999999999,-0.346069
785,7.85,0.235058,-0.931271,-2.3312049999999997,0.468918,0.25531,-0.379105
786,7.86,0.167755,-0.787277,-2.482078,0.542419,0.396988,-0.399338
787,7.87,-0.011039999999999994,-0.6324960000000001,-2.534684,0.591431,0.509903,-0.39826999999999996
788,7.88,-0.215123,-0.39567800000000003,-2.5464689999999996,0.6074069999999999,0.592987,-0.368454
789,7.89,-0.408451,-0.24684499999999998,-2.51861,0.598877,0.655838,-0.3237
790,7.9,-0.464764,-0.069938,-2.439382,0.563736,0.689926,-0.258728
791,7.91,-0.416754,0.059976999999999996,-2.358625,0.504074,0.6707609999999999,-0.188416
792,7.92,-0.257253,0.140905,-2.2710150000000002,0.404999,0.6302800000000001,-0.121307
793,7.93,0.01776999999999998,0.204546,-2.082641,0.27717600000000003,0.573822,-0.06485
794,7.94,0.208304,0.289865,-1.807638,0.124847,0.475815,-0.028625
795,7.95,0.41147700000000004,0.22664600000000001,-1.363479,-0.032822000000000004,0.35436999999999996,-0.014786
796,7.96,0.535453,0.19209400000000001,-0.8123310000000001,-0.16597,0.21162399999999998,-0.021164
797,7.97,0.67332,0.228294,-0.16150600000000004,-0.250137,0.07633999999999999,-0.040344
798,7.98,0.67888,0.24519699999999997,0.414605,-0.281021,-0.03978000000000001,-0.072296
799,7.99,0.5906640000000001,0.37154299999999996,0.93701,-0.27037,-0.131393,-0.096802
800,8.0,0.370243,0.506668,1.30417,-0.21284499999999998,-0.17613199999999998,-0.108521
801,8.01,0.137346,0.615671,1.4562979999999999,-0.137207,-0.151627,-0.11491400000000002
802,8.02,-0.062140999999999995,0.772816,1.611969,-0.069031,-0.057877,-0.09787
803,8.03,-0.22453800000000002,0.9432440000000001,1.6979939999999998,-0.009384000000000005,0.053970000000000004,-0.07656900000000001
804,8.04,-0.23969899999999997,1.094224,1.7532729999999999,0.052399,0.145584,-0.052063
805,8.05,-0.150332,1.4361270000000002,1.826841,0.102478,0.200974,-0.027556999999999998
806,8.06,-0.11153699999999998,1.9813490000000002,1.734621,0.161057,0.21162399999999998,-0.025436
807,8.07,-0.3901,2.132735,1.407705,0.21006799999999998,0.23294099999999998,-0.013718000000000001
808,8.08,-0.603296,2.358325,1.046581,0.21325700000000003,0.305374,0.0022580000000000005
809,8.09,-0.706012,2.307155,0.65233,0.15998800000000002,0.41082799999999997,0.023575
810,8.1,-0.6761699999999999,1.984173,0.335117,0.007659999999999999,0.507767,0.039550999999999996
811,8.11,-0.627083,1.418583,0.461532,-0.230957,0.52269,0.039550999999999996
812,8.12,-0.53871,0.6506390000000001,0.905176,-0.49940500000000004,0.431076,0.025695999999999997
813,8.13,-0.334694,0.05586699999999999,1.670653,-0.7252350000000001,0.197784,-0.006256000000000001
814,8.14,-0.23423400000000003,-0.263017,2.543404,-0.829636,-0.10795599999999997,-0.043549000000000004
815,8.15,-0.32139,-0.392557,3.1883209999999997,-0.765717,-0.412613,-0.06271399999999999
816,8.16,-0.589639,-0.22525,3.5593190000000003,-0.535629,-0.570282,-0.055251999999999996
817,8.17,-0.9074049999999999,0.054409000000000006,3.1937599999999997,-0.20645100000000002,-0.5638890000000001,-0.028625
818,8.18,-1.471673,0.503039,2.51575,0.10141,-0.41793800000000003,0.035294
819,8.19,-2.0519130000000003,0.612164,1.580067,0.325104,-0.16334500000000002,0.124771
820,8.2,-2.186171,0.501976,0.751441,0.389023,0.159424,0.24726900000000002
821,8.21,-1.966393,0.335129,0.27311199999999997,0.315521,0.509903,0.36659200000000003
822,8.22,-1.717356,-0.0691,0.15127100000000002,0.182358,0.782608,0.45607
823,8.23,-1.623652,-0.494442,0.13037100000000001,0.024704000000000004,0.8571780000000001,0.511459
824,8.24,-1.556115,-0.7843600000000001,0.07919,-0.155319,0.725082,0.557266
825,8.25,-1.436977,-1.0764610000000001,0.086613,-0.355591,0.418289,0.584961
826,8.26,-0.9967280000000001,-1.273444,0.11620599999999999,-0.540955,0.026275999999999997,0.586029
827,8.27,-0.518195,-1.41517,0.159064,-0.6687770000000001,-0.338043,0.562592
828,8.28,-0.005801000000000001,-1.5826790000000002,0.19916199999999998,-0.70607,-0.60437,0.5231779999999999
829,8.29,0.484124,-1.613936,0.162813,-0.660263,-0.788651,0.466721
830,8.3,0.858023,-1.6475520000000001,-0.022913000000000003,-0.540955,-0.890915,0.408127
831,8.31,1.07935,-1.605027,-0.31541399999999997,-0.373703,-0.911163,0.355927
832,8.32,1.283187,-1.512307,-0.772799,-0.1745,-0.847244,0.306931
833,8.33,1.396657,-1.448383,-1.1873,0.028961,-0.700241,0.268585
834,8.34,1.35381,-1.325814,-1.607453,0.226044,-0.501038,0.233429
835,8.35,1.3155709999999998,-1.165741,-2.043571,0.399673,-0.251755,0.20680199999999999
836,8.36,1.217013,-1.060548,-2.432042,0.533905,-0.00036600000000001914,0.172714
837,8.37,1.029143,-0.9025719999999999,-2.69421,0.622314,0.21269200000000002,0.13649
838,8.38,0.787917,-0.812325,-2.863841,0.6596069999999999,0.375671,0.100266
839,8.39,0.549353,-0.665946,-2.8732919999999997,0.657471,0.50032,0.076828
840,8.4,0.293093,-0.603557,-2.861925,0.630844,0.55571,0.067245
841,8.41,0.06911500000000001,-0.498188,-2.746824,0.573318,0.564224,0.067245
842,8.42,-0.151013,-0.400253,-2.600362,0.500885,0.534409,0.075775
843,8.43,-0.37496399999999996,-0.35706,-2.394388,0.41671800000000003,0.46196000000000004,0.09814500000000001
844,8.44,-0.567225,-0.259767,-2.0837689999999998,0.32405100000000003,0.35543800000000003,0.133286
845,8.45,-0.6870069999999999,-0.196188,-1.747454,0.23988299999999999,0.22866799999999998,0.179092
846,8.46,-0.6736770000000001,-0.028058999999999997,-1.489407,0.162125,0.089127,0.22277800000000003
847,8.47,-0.596066,0.044929000000000004,-1.19741,0.097137,-0.044037000000000014,0.253662
848,8.48,-0.48499200000000003,0.13689,-1.009357,0.047073000000000004,-0.132446,0.255798
849,8.49,-0.441341,0.23547300000000002,-0.7138399999999999,0.005538999999999999,-0.172928,0.240891
850,8.5,-0.389881,0.434396,-0.430674,-0.023224,-0.189972,0.22384600000000002
851,8.51,-0.325561,0.552855,-0.10265,-0.038147,-0.197433,0.198273
852,8.52,-0.317769,0.623903,0.244655,-0.050934,-0.179321,0.16951
853,8.53,-0.283179,0.715467,0.5711229999999999,-0.054123000000000004,-0.170807,0.134354
854,8.54,-0.327366,0.788247,0.799456,-0.053055,-0.172928,0.104538
855,8.55,-0.305118,0.729175,0.9881270000000001,-0.063705,-0.186783,0.082153
856,8.56,-0.16454000000000002,0.925992,1.1696819999999999,-0.088211,-0.20808400000000002,0.069382
857,8.57,-0.032335,1.4625,1.362147,-0.10206599999999999,-0.250702,0.056595000000000006
858,8.58,-0.033264,1.916359,1.3229520000000001,-0.086075,-0.286911,0.057663
859,8.59,0.012435999999999996,2.317777,1.015403,-0.07756,-0.264542,0.069382
860,8.6,0.252902,2.657571,0.72675,-0.128693,-0.178253,0.090683
861,8.61,0.523364,2.59536,0.5295529999999999,-0.241608,-0.042968999999999986,0.10347
862,8.62,0.875251,2.087542,0.553412,-0.42057799999999995,0.088058,0.09600800000000001
863,8.63,1.1851120000000002,1.277061,0.8891959999999999,-0.66452,0.155167,0.045944
864,8.64,1.203247,0.46760799999999997,1.7087970000000001,-0.925507,0.10829200000000001,-0.043549000000000004
865,8.65,1.287785,-0.08945299999999999,2.820555,-1.098083,-0.06427000000000001,-0.135147
866,8.66,1.419597,-0.586467,4.097662000000001,-1.114059,-0.339111,-0.229965
867,8.67,1.5007139999999999,-0.700745,5.003938,-0.9244379999999999,-0.656555,-0.303467
868,8.68,1.420664,-0.574198,5.1386330000000005,-0.5622560000000001,-0.909027,-0.368454
869,8.69,1.143268,-0.282991,4.503798000000001,-0.14999399999999996,-0.9899899999999999,-0.392944
870,8.7,0.7317739999999999,0.112648,3.517732,0.198349,-0.887726,-0.374832
871,8.71,0.304347,0.310265,2.3820810000000003,0.44654799999999994,-0.671478,-0.306656
872,8.72,0.15809700000000002,0.289082,1.3994090000000001,0.581833,-0.371078,-0.21611
873,8.73,0.281158,0.13831,0.638551,0.598877,0.016677999999999967,-0.12023900000000001
874,8.74,0.40915799999999997,-0.059541,0.15563899999999994,0.514725,0.403381,-0.059525
875,8.75,0.340725,-0.32752,0.010415,0.362396,0.638794,-0.036087
876,8.76,0.10291900000000001,-0.7206859999999999,0.102125,0.18556199999999998,0.687805,-0.027556999999999998
877,8.77,-0.088181,-1.1384239999999999,0.21207800000000002,0.011917000000000013,0.5588989999999999,-0.036087
878,8.78,-0.17094600000000001,-1.4250559999999999,0.417707,-0.128693,0.319214,-0.06271399999999999
879,8.79,-0.24296399999999999,-1.683024,0.4709,-0.20965599999999998,0.02307100000000004,-0.100006
880,8.8,-0.272836,-1.8944509999999999,0.380838,-0.23095700000000002,-0.26561,-0.14260899999999999
881,8.81,-0.273634,-1.9260810000000002,0.163088,-0.188339,-0.49144,-0.185226
882,8.82,-0.247027,-1.909101,-0.173244,-0.09567300000000001,-0.607559,-0.218246
883,8.83,-0.1699,-1.8263790000000002,-0.519831,0.03749099999999999,-0.602234,-0.24913000000000002
884,8.84,-0.062688,-1.740259,-0.9556049999999999,0.18981900000000002,-0.502106,-0.281097
885,8.85,0.015367999999999996,-1.6376879999999998,-1.336206,0.347488,-0.333786,-0.311981
886,8.86,0.069203,-1.593451,-1.7111349999999999,0.496613,-0.132446,-0.353531
887,8.87,0.069517,-1.491967,-2.017131,0.623383,0.083801,-0.388687
888,8.88,0.035634,-1.4907709999999998,-2.234197,0.74057,0.27873200000000004,-0.41319300000000003
889,8.89,0.07484099999999999,-1.386881,-2.469996,0.84816,0.43640100000000004,-0.43981899999999996
890,8.9,-0.005012999999999997,-1.356127,-2.6089130000000003,0.944031,0.554642,-0.45472700000000005
891,8.91,-0.20422300000000002,-1.17608,-2.7374810000000003,1.0196690000000002,0.6366729999999999,-0.45260600000000006
892,8.92,-0.373821,-0.998767,-3.027348,1.059082,0.67395,-0.421707
893,8.93,-0.6804140000000001,-0.7924359999999999,-3.22399,1.044159,0.709106,-0.362061
894,8.94,-0.8647440000000001,-0.543374,-3.446708,0.972794,0.738937,-0.272568
895,8.95,-0.948262,-0.226483,-3.401013,0.862,0.763428,-0.162857
896,8.96,-0.835743,0.022733000000000003,-3.3015489999999996,0.725647,0.763428,-0.05632
897,8.97,-0.656329,0.103957,-3.044265,0.566925,0.728287,0.041687
898,8.98,-0.448542,0.18692999999999999,-2.800593,0.397552,0.64093,0.10986300000000002
899,8.99,-0.20163299999999998,0.257442,-2.374805,0.226044,0.504578,0.15033
900,9.0,-0.050600000000000006,0.27150599999999997,-1.9544580000000003,0.064117,0.30749499999999996,0.167374
901,9.01,0.14972,0.335629,-1.5195299999999998,-0.082886,0.078476,0.164185
902,9.02,0.316353,0.348164,-1.169371,-0.20858800000000002,-0.14843799999999996,0.143951
903,9.03,0.49582,0.462158,-0.8044100000000001,-0.318314,-0.352966,0.11731
904,9.04,0.45178,0.667738,-0.445846,-0.39926100000000003,-0.487183,0.092819
905,9.05,0.34529299999999996,0.83701,-0.12215299999999997,-0.45573400000000003,-0.537247,0.08429
906,9.06,0.404508,1.0328760000000001,0.23367399999999997,-0.482361,-0.523407,0.086426
907,9.07,0.46938900000000006,1.262326,0.561986,-0.49408,-0.433929,0.082153
908,9.08,0.516229,1.442555,0.844564,-0.500473,-0.301834,0.080032
909,9.09,0.589167,1.664337,1.195017,-0.49940500000000004,-0.179321,0.07470700000000001
910,9.1,0.5830350000000001,1.9517380000000002,1.561851,-0.481293,-0.077057,0.067245
911,9.11,0.359797,2.301598,1.8544439999999998,-0.44081099999999995,-0.007811999999999999,0.059784000000000004
912,9.12,0.016049000000000008,2.452276,1.870639,-0.387558,0.051833999999999984,0.06192
913,9.13,-0.296069,2.450159,1.6589939999999999,-0.356659,0.12428299999999999,0.07257100000000001
914,9.14,-0.5231100000000001,2.284953,1.431792,-0.40033,0.22122199999999997,0.091751
915,9.15,-0.5464289999999999,1.907415,1.3438709999999998,-0.539886,0.301117,0.107727
916,9.16,-0.611332,1.31434,1.558937,-0.748672,0.33413699999999996,0.10240199999999999
917,9.17,-0.611975,0.533977,2.122842,-0.9713129999999999,0.28833000000000003,0.086426
918,9.18,-0.444996,-0.222474,2.9580189999999997,-1.131104,0.17009000000000002,0.050200999999999996
919,9.19,-0.33399,-0.5176689999999999,4.00202,-1.135361,-0.002487000000000003,-0.0073240000000000015
920,9.2,-0.690659,-0.4663,4.797183,-0.9436190000000001,-0.203827,-0.06485
921,9.21,-1.293308,-0.332353,4.971842,-0.5750430000000001,-0.342316,-0.085083
922,9.22,-1.873836,-0.007859000000000005,4.52871,-0.13508599999999998,-0.305023,-0.036087
923,9.23,-2.126145,0.3051,3.688301,0.270782,-0.103683,0.06617700000000001
924,9.24,-2.266079,0.441406,2.698112,0.585037,0.19885300000000009,0.184418
925,9.25,-2.158995,0.267928,1.703326,0.756546,0.552505,0.300537
926,9.26,-1.816905,0.10725699999999999,0.99208,0.7884979999999999,0.8742219999999999,0.400681
927,9.27,-1.542568,-0.17017100000000002,0.46525200000000005,0.7309720000000001,1.077682,0.46565200000000007
928,9.28,-1.396918,-0.422613,0.07078699999999999,0.622314,1.139481,0.5008090000000001
929,9.29,-1.30703,-0.606109,-0.373744,0.474243,1.054245,0.5231779999999999
930,9.3,-1.187274,-0.8620530000000001,-0.9694290000000001,0.161057,0.68248,0.538086
931,9.31,-0.898558,-1.044946,-1.230934,-0.06903100000000001,0.347977,0.53064
932,9.32,-0.494216,-1.175648,-1.3414469999999998,-0.269302,-0.0014190000000000036,0.50827
933,9.33,-0.07900600000000005,-1.332236,-1.394778,-0.392883,-0.282654,0.46991000000000005
934,9.34,0.309123,-1.4388889999999999,-1.497897,-0.426971,-0.46267700000000006,0.427307
935,9.35,0.69529,-1.536346,-1.54498,-0.384354,-0.568146,0.368713
936,9.36,1.0412,-1.497052,-1.790571,-0.298065,-0.6000979999999999,0.312256
937,9.37,1.347178,-1.558726,-1.991475,-0.178757,-0.557495,0.240891
938,9.38,1.453259,-1.5781530000000001,-2.197889,-0.04454,-0.45735200000000004,0.168442
939,9.39,1.552023,-1.532243,-2.434728,0.09287999999999999,-0.329529,0.09814500000000001
940,9.4,1.598583,-1.568448,-2.635195,0.21325700000000003,-0.192108,0.022507
941,9.41,1.563336,-1.507018,-2.779642,0.303802,-0.06640599999999999,-0.053131
942,9.42,1.428898,-1.398259,-2.969096,0.366653,0.040115,-0.122375
943,9.43,1.2000899999999999,-1.2603360000000001,-2.9975490000000002,0.404999,0.12107799999999999,-0.182022
944,9.44,0.869715,-1.0486280000000001,-2.976296,0.417786,0.189255,-0.211853
945,9.45,0.540025,-0.7723439999999999,-2.968459,0.41566499999999995,0.240387,-0.211853
946,9.46,0.204624,-0.6092489999999999,-2.96577,0.387955,0.286194,-0.188416
947,9.47,-0.08831599999999999,-0.35746300000000003,-2.812432,0.31445300000000004,0.33413699999999996,-0.138351
948,9.48,-0.30048800000000003,-0.203915,-2.4952970000000003,0.21858200000000003,0.356506,-0.071243
949,9.49,-0.424451,-0.06385,-2.0890619999999998,0.112061,0.327744,-0.010513000000000002
950,9.5,-0.49143000000000003,0.06236799999999999,-1.604092,0.016190000000000003,0.258499,0.039550999999999996
951,9.51,-0.578335,0.187013,-0.9670790000000001,-0.058379999999999994,0.17541500000000002,0.07896399999999999
952,9.52,-0.573475,0.279364,-0.42173900000000003,-0.100998,0.059296,0.11091600000000001
953,9.53,-0.529725,0.430148,0.08958299999999997,-0.10206599999999999,-0.093033,0.121582
954,9.54,-0.5019100000000001,0.576138,0.463012,-0.07649199999999999,-0.24217199999999997,0.11091600000000001
955,9.55,-0.46841400000000005,0.786895,0.6605310000000001,-0.043472000000000004,-0.348694,0.092819
956,9.56,-0.555509,0.932668,0.7860010000000001,-0.012573,-0.376404,0.077896
957,9.57,-0.532723,1.050073,0.883606,-0.004059,-0.31781,0.077896
958,9.58,-0.47079099999999996,1.193447,1.075806,-0.028564,-0.21234099999999997,0.08429
959,9.59,-0.37130799999999997,1.273906,1.324423,-0.085022,-0.101562,0.09494
960,9.6,-0.30504000000000003,1.541875,1.6784860000000001,-0.14999400000000002,-0.038712,0.11412
961,9.61,-0.29380300000000004,1.899327,2.000685,-0.188339,-0.03978,0.129028
962,9.62,-0.34734,2.2487220000000003,2.010418,-0.20005799999999999,-0.080261,0.14288299999999998
963,9.63,-0.188976,2.647975,1.8150810000000002,-0.22776799999999997,-0.110077,0.160995
964,9.64,0.11067300000000001,2.84353,1.4834200000000002,-0.30127,-0.09196499999999999,0.160995
965,9.65,0.444086,2.604967,1.241225,-0.447205,-0.047226,0.125839
966,9.66,0.737004,1.848672,1.307261,-0.682632,-0.022736000000000003,0.05659500000000001
967,9.67,0.922433,1.0127700000000002,1.8958709999999999,-0.977707,-0.074921,-0.043549000000000004
968,9.68,1.104201,0.07741599999999997,2.956388,-1.2195280000000002,-0.23791500000000002,-0.14260899999999999
969,9.69,1.4166969999999999,-0.661513,4.296631,-1.29303,-0.513824,-0.225708
970,9.7,1.71042,-0.987671,5.177448,-1.137497,-0.813156,-0.31092800000000004
971,9.71,1.727077,-0.991658,5.371593,-0.7816930000000001,-1.047516,-0.385498
972,9.72,1.4782600000000001,-0.697477,4.83518,-0.34494,-1.1039729999999999,-0.432358
973,9.73,1.01722,-0.273404,3.7372419999999997,0.042815999999999986,-0.980408,-0.438751
974,9.74,0.49979300000000004,-0.062062,2.515461,0.3134,-0.752441,-0.394012
975,9.75,0.28634,-0.0018709999999999996,1.425433,0.452942,-0.460556,-0.31304899999999997
976,9.76,0.28060100000000004,-0.12019100000000002,0.538836,0.46785,-0.154816,-0.215042
977,9.77,0.41716400000000003,-0.324741,-0.07979200000000003,0.385834,0.110428,-0.13409400000000002
978,9.78,0.470967,-0.584817,-0.461479,0.24734499999999998,0.295792,-0.07975800000000001
979,9.79,0.466027,-0.865247,-0.673929,0.070511,0.345856,-0.055251999999999996
980,9.8,0.406808,-1.164855,-0.755116,-0.113785,0.251038,-0.055251999999999996
981,9.81,0.42044499999999996,-1.4481110000000001,-0.787517,-0.282089,0.06143200000000001,-0.073364
982,9.82,0.434804,-1.587384,-0.804584,-0.41204799999999997,-0.169739,-0.10105900000000001
983,9.83,0.5434829999999999,-1.7243700000000002,-0.8528379999999999,-0.488754,-0.393448,-0.140488
984,9.84,0.573979,-1.7613830000000001,-0.903924,-0.511124,-0.577728,-0.190552
985,9.85,0.611171,-1.726352,-0.9323389999999999,-0.469574,-0.687454,-0.244873
986,9.86,0.511391,-1.762039,-0.988701,-0.36837800000000004,-0.705566,-0.30027800000000004
987,9.87,0.334086,-1.645189,-1.150773,-0.22244299999999997,-0.6448520000000001,-0.345016
988,9.88,0.224415,-1.5379639999999999,-1.348798,-0.046661000000000015,-0.5180819999999999,-0.382294
989,9.89,0.076124,-1.4165379999999999,-1.6208280000000002,0.135498,-0.328461,-0.41319300000000003
990,9.9,0.070713,-1.285093,-1.879066,0.31445300000000004,-0.120728,-0.441956
991,9.91,0.069838,-1.2461790000000001,-2.149907,0.474243,0.09764099999999999,-0.474976
992,9.92,0.226611,-1.156142,-2.2767009999999996,0.5935520000000001,0.305374,-0.506927
993,9.93,0.28772,-1.045755,-2.326365,0.697952,0.46728500000000006,-0.5410159999999999
994,9.94,0.332293,-0.8956569999999999,-2.405092,0.781036,0.5770109999999999,-0.569778
995,9.95,0.17856,-0.729117,-2.478996,0.8449549999999999,0.657974,-0.580429
996,9.96,-0.093873,-0.517367,-2.552216,0.8683930000000001,0.709106,-0.565521
997,9.97,-0.282675,-0.324806,-2.686185,0.842834,0.752777,-0.512253
998,9.98,-0.517493,-0.191438,-2.6520029999999997,0.768265,0.7900699999999999,-0.42703199999999997
999,9.99,-0.631492,0.020411000000000002,-2.52822,0.65535,0.792191,-0.32264699999999996
1000,10.0,-0.609581,0.07205,-2.257318,0.5211180000000001,0.749588,-0.22676100000000002
1001,10.01,-0.5267270000000001,0.172715,-1.963955,0.370911,0.6611630000000001,-0.135147
1002,10.02,-0.41147799999999995,0.202452,-1.618749,0.221786,0.520554,-0.070175
1003,10.03,-0.267516,0.24381399999999998,-1.217999,0.06411699999999998,0.330933,-0.029693999999999998
1004,10.04,-0.051660000000000005,0.361561,-0.773354,-0.071167,0.09764099999999999,-0.008392
1005,10.05,0.086257,0.41399600000000003,-0.404053,-0.1745,-0.14416500000000002,-0.00412
1006,10.06,0.087001,0.536664,-0.11780699999999998,-0.234146,-0.35083000000000003,0.00013699999999999994
1007,10.07,-0.061621,0.685289,-0.023153999999999997,-0.267181,-0.46801800000000005,0.00972
1008,10.08,-0.222032,0.773046,0.048060000000000005,-0.298065,-0.487183,0.031020999999999996
1009,10.09,-0.300156,0.8320569999999999,0.152841,-0.34387199999999996,-0.415817,0.068314
1010,10.1,-0.279896,0.874969,0.37691399999999997,-0.40565500000000004,-0.294373,0.121582
1011,10.11,-0.108528,0.973578,0.75366,-0.46638500000000005,-0.17613199999999998,0.175903
1012,10.12,0.157858,1.2329940000000001,1.20559,-0.5036619999999999,-0.103683,0.21106
1013,10.13,0.230066,1.72478,1.671772,-0.49408,-0.08238200000000001,0.217453
1014,10.14,0.017290000000000028,1.899444,1.817048,-0.43974300000000005,-0.088776,0.208923
1015,10.15,-0.298041,2.002266,1.769066,-0.38221700000000003,-0.063217,0.20573400000000003
1016,10.16,-0.622679,2.01858,1.611164,-0.356659,0.046508999999999995,0.21424899999999997
1017,10.17,-0.7902100000000001,1.714853,1.3758780000000002,-0.392883,0.195648,0.233429
1018,10.18,-0.774565,1.034041,1.334746,-0.526031,0.298981,0.250473
1019,10.19,-0.637707,0.195715,1.7478479999999998,-0.748672,0.32453899999999997,0.238754
1020,10.2,-0.473861,-0.339277,2.507177,-0.9553379999999999,0.200974,0.201477
1021,10.21,-0.309242,-0.5349119999999999,3.4336010000000003,-1.041626,-0.054688,0.149277
1022,10.22,-0.697615,-0.296283,4.401887,-0.8466799999999999,-0.473343,0.071503
1023,10.23,-1.201783,0.0025630000000000093,4.448042,-0.530304,-0.591583,0.056595000000000006
1024,10.24,-1.624787,0.384843,3.9817669999999996,-0.173431,-0.534058,0.086426
1025,10.25,-1.9690869999999998,0.709025,3.206188,0.135498,-0.354034,0.156723
1026,10.26,-2.0996759999999997,0.562534,2.257749,0.341095,-0.07492100000000003,0.236618
1027,10.27,-1.866644,0.36598600000000003,1.536553,0.397552,0.267029,0.32611100000000004
1028,10.28,-1.570387,0.06270499999999997,1.111391,0.359192,0.619629,0.394287
1029,10.29,-1.299596,-0.291019,0.945157,0.272919,0.8475950000000001,0.425171
1030,10.3,-1.140119,-0.6559729999999999,0.828609,0.16745,0.8529209999999999,0.43263199999999996
1031,10.31,-0.953625,-0.957953,0.712651,0.046005000000000004,0.67395,0.42198199999999997
1032,10.32,-0.667773,-1.259799,0.6250600000000001,-0.067978,0.40657,0.39534
1033,10.33,-0.29281599999999997,-1.402452,0.499508,-0.147873,0.10723900000000001,0.350601
1034,10.34,0.075695,-1.478086,0.36146999999999996,-0.16171300000000002,-0.16015600000000002,0.293076
1035,10.35,0.400192,-1.487926,0.04585899999999998,-0.10418699999999999,-0.367874,0.236618
1036,10.36,0.707059,-1.564997,-0.28732399999999997,0.009795999999999992,-0.494644,0.181229
1037,10.37,0.929306,-1.622092,-0.6896,0.15466300000000002,-0.555359,0.13755799999999999
1038,10.38,1.227443,-1.653086,-1.176302,0.316589,-0.54364,0.09814500000000001
1039,10.39,1.318086,-1.6438409999999999,-1.671242,0.474243,-0.454163,0.057663
1040,10.4,1.348539,-1.542166,-2.103928,0.623383,-0.313553,0.02037
1041,10.41,1.289684,-1.489663,-2.577353,0.744827,-0.145233,-0.013718
1042,10.42,1.25809,-1.397033,-2.957437,0.8279110000000001,0.02520799999999998,-0.049927
1043,10.43,1.103057,-1.387186,-3.2680439999999997,0.8588100000000001,0.167953,-0.091476
1044,10.44,0.898708,-1.272127,-3.4270769999999997,0.850281,0.272354,-0.118103
1045,10.45,0.655559,-1.093759,-3.4681550000000003,0.8236540000000001,0.336258,-0.125565
1046,10.46,0.355646,-0.9436690000000001,-3.449035,0.7884979999999999,0.368225,-0.11598199999999999
1047,10.47,0.074938,-0.6965859999999999,-3.3870699999999996,0.75441,0.37674,-0.090408
1048,10.48,-0.25501399999999996,-0.504559,-3.3789309999999997,0.702209,0.38845799999999997,-0.050995
1049,10.49,-0.6159789999999999,-0.310793,-3.30827,0.626587,0.386337,0.0043950000000000005
1050,10.5,-0.799235,-0.09996100000000001,-3.171954,0.523254,0.35436999999999996,0.07789600000000002
1051,10.51,-0.7428020000000001,0.0034320000000000045,-2.9323669999999997,0.40713499999999997,0.298981,0.151398
1052,10.52,-0.49153199999999997,0.174037,-2.5462119999999997,0.27717600000000003,0.222275,0.19401600000000002
1053,10.53,-0.330276,0.242798,-2.074033,0.161057,0.136002,0.20680199999999999
1054,10.54,-0.19408399999999998,0.37754899999999997,-1.674411,0.06732200000000002,0.034789999999999995,0.186554
1055,10.55,-0.161644,0.5154489999999999,-1.251865,-0.017899,-0.052551,0.151398
1056,10.56,-0.125807,0.689934,-0.787391,-0.09353600000000001,-0.142044,0.11198399999999999
1057,10.57,-0.144156,0.86261,-0.38759899999999997,-0.146805,-0.204895,0.066177
1058,10.58,-0.259685,0.892287,-0.05274399999999999,-0.199005,-0.211288,0.020370000000000003
1059,10.59,-0.367263,1.008688,0.36091100000000004,-0.25758400000000004,-0.18571500000000002,-0.007324
1060,10.6,-0.49851999999999996,1.111063,0.873527,-0.309784,-0.16334500000000002,-0.022232
1061,10.61,-0.567472,1.117609,1.381364,-0.333221,-0.159088,-0.011581000000000001
1062,10.62,-0.436226,1.344653,1.820595,-0.335358,-0.182526,-0.0030669999999999994
1063,10.63,-0.44628500000000004,1.748025,2.0475060000000003,-0.30339099999999997,-0.24217199999999997,0.013977000000000002
1064,10.64,-0.5294770000000001,2.0391529999999998,1.948534,-0.25972,-0.28584299999999996,0.04274
1065,10.65,-0.389424,2.3155360000000003,1.634786,-0.241608,-0.26561,0.083221
1066,10.66,0.012432,2.609061,1.320129,-0.286346,-0.187851,0.118378
1067,10.67,0.405263,2.4964869999999997,1.060913,-0.413116,-0.06214900000000001,0.11944600000000001
1068,10.68,0.668879,2.100367,1.091076,-0.641083,0.050766000000000006,0.09494
1069,10.69,0.818504,1.31794,1.505863,-0.9340360000000001,0.122147,0.045944
1070,10.7,0.925686,0.347487,2.482587,-1.213135,0.126404,-0.011581
1071,10.71,1.147948,-0.48961899999999997,3.910309,-1.387833,-0.014205999999999996,-0.07869
1072,10.72,1.38121,-0.992778,5.276038,-1.361206,-0.269867,-0.169235
1073,10.73,1.470364,-1.112273,6.14035,-1.077835,-0.6427149999999999,-0.26617399999999997
1074,10.74,1.352273,-0.999452,6.036226999999999,-0.629364,-0.9356690000000001,-0.357788
1075,10.75,1.105313,-0.708699,5.177582,-0.134018,-1.025146,-0.41745
1076,10.76,0.679416,-0.244759,4.070602,0.298477,-0.906906,-0.415314
1077,10.77,0.31907800000000003,-0.05941100000000001,2.832513,0.6138,-0.638458,-0.364182
1078,10.78,0.261755,0.016939000000000003,1.7154759999999998,0.799149,-0.294373,-0.27684000000000003
1079,10.79,0.349165,0.040316000000000005,0.900277,0.8705290000000001,0.075272,-0.196945
1080,10.8,0.34181100000000003,-0.135482,0.215435,0.8588100000000001,0.411896,-0.136215
1081,10.81,0.267445,-0.358157,-0.272007,0.7789149999999999,0.641998,-0.091476
1082,10.82,0.19369,-0.752321,-0.6235890000000001,0.631912,0.730408,-0.073364
1083,10.83,0.10275799999999999,-1.041243,-0.700176,0.44654799999999994,0.668625,-0.069107
1084,10.84,0.08404500000000001,-1.3173030000000001,-0.645957,0.265457,0.471558,-0.08934
1085,10.85,0.031444,-1.6007,-0.712076,0.121643,0.195648,-0.118103
1086,10.86,0.05197,-1.702043,-0.755233,0.015121000000000002,-0.10795600000000002,-0.16178900000000002
1087,10.87,0.093039,-1.785522,-0.9377780000000001,-0.045609,-0.37959299999999996,-0.20013399999999998
1088,10.88,0.160395,-1.7450869999999998,-1.133456,-0.057312,-0.5638890000000001,-0.250198
1089,10.89,0.198102,-1.747439,-1.322214,-0.023224,-0.6288600000000001,-0.29281599999999997
1090,10.9,0.20638499999999999,-1.689488,-1.5136370000000001,0.052399,-0.5979770000000001,-0.346069
1091,10.91,0.176558,-1.620916,-1.762766,0.145081,-0.483994,-0.397202
1092,10.92,0.22291,-1.5351110000000001,-2.0311310000000002,0.289963,-0.216614,-0.46965
1093,10.93,0.24725999999999998,-1.466236,-2.19596,0.384766,-0.026993000000000003,-0.5154569999999999
1094,10.94,0.256178,-1.350473,-2.270018,0.468918,0.147705,-0.546341
1095,10.95,0.246783,-1.245434,-2.33758,0.544556,0.280869,-0.567657
1096,10.96,0.115128,-0.9905299999999999,-2.418656,0.6074069999999999,0.357574,-0.583633
1097,10.97,-0.171496,-0.8601479999999999,-2.5540439999999998,0.6532140000000001,0.432144,-0.56871
1098,10.98,-0.336337,-0.607891,-2.620413,0.670258,0.49925200000000003,-0.520782
1099,10.99,-0.44338599999999995,-0.423353,-2.5557119999999998,0.678772,0.557846,-0.46751400000000004
1100,11.0,-0.6676979999999999,-0.216038,-2.543318,0.671326,0.603653,-0.395081
1101,11.01,-0.804215,0.0044179999999999974,-2.504869,0.626587,0.6057739999999999,-0.314117
1102,11.02,-0.8404149999999999,0.14988900000000002,-2.485875,0.542419,0.578079,-0.219315
1103,11.03,-0.688472,0.227543,-2.323766,0.42099,0.509903,-0.129822
1104,11.04,-0.361693,0.265878,-2.14795,0.282501,0.400177,-0.057388
1105,11.05,0.0012719999999999956,0.312544,-1.890898,0.121643,0.240387,-0.008392000000000005
1106,11.06,0.22386799999999998,0.306398,-1.264718,-0.11271700000000001,-0.028061000000000016,0.01825
1107,11.07,0.33550399999999997,0.370743,-0.666351,-0.232025,-0.19104000000000002,0.037415
1108,11.08,0.32694,0.48516899999999996,-0.08190300000000006,-0.28741500000000003,-0.31567399999999995,0.053390999999999994
1109,11.09,0.232839,0.685976,0.36585,-0.28741500000000003,-0.398773,0.069382
1110,11.1,0.143556,0.766444,0.701608,-0.256531,-0.40303,0.092819
1111,11.11,0.005610999999999998,0.8428979999999999,0.930174,-0.21284499999999998,-0.34976199999999996,0.122635
1112,11.12,0.073288,1.0399969999999998,1.087331,-0.16703800000000002,-0.26879899999999995,0.15033
1113,11.13,0.20511500000000002,1.169812,1.165804,-0.154251,-0.17185999999999998,0.162048
1114,11.14,0.23845300000000003,1.3235729999999999,1.395961,-0.17236300000000002,-0.110077,0.160995
1115,11.15,0.301556,1.6747150000000002,1.604351,-0.18515,-0.099426,0.151398
1116,11.16,0.301369,2.109543,1.804232,-0.186218,-0.13458299999999998,0.13542200000000001
1117,11.17,0.076455,2.4419939999999998,1.6787599999999998,-0.180893,-0.155884,0.131165
1118,11.18,-0.189822,2.3803669999999997,1.298458,-0.20539899999999997,-0.125,0.138626
1119,11.19,-0.300136,2.210546,0.938116,-0.32150300000000004,-0.045105,0.151398
1120,11.2,-0.322245,1.948157,0.815753,-0.53775,0.0017700000000000007,0.163116
1121,11.21,-0.329928,1.279361,1.0531979999999999,-0.8168489999999999,-0.006744,0.165253
1122,11.22,-0.479048,0.2815070000000001,1.557107,-1.103409,-0.065338,0.154602
1123,11.23,-0.341804,-0.407265,2.433036,-1.320724,-0.22512800000000002,0.121582
1124,11.24,-0.169547,-0.663888,3.499693,-1.39209,-0.46588100000000005,0.068314
1125,11.25,-0.46553500000000003,-0.7227210000000001,4.37024,-1.2717129999999999,-0.721542,-0.0030670000000000003
1126,11.26,-0.9723700000000001,-0.4182830000000001,4.722672,-0.938293,-0.88559,-0.068039
1127,11.27,-1.454653,-0.11907600000000003,4.431871,-0.495148,-0.873871,-0.10105900000000001
1128,11.28,-1.740298,0.287172,3.7217919999999998,-0.06370500000000001,-0.6938479999999999,-0.074432
1129,11.29,-1.802157,0.374603,2.6720029999999997,0.299545,-0.414749,-0.024368
1130,11.3,-1.7430439999999998,0.25296399999999997,1.740594,0.541367,-0.075989,0.044876
1131,11.31,-1.627726,-0.010170000000000012,0.8067770000000001,0.6542819999999999,0.326675,0.12051400000000001
1132,11.32,-1.4579870000000001,-0.258286,0.16708300000000004,0.64682,0.705917,0.20253
1133,11.33,-1.350278,-0.536537,-0.190021,0.585037,0.959442,0.273911
1134,11.34,-1.246858,-0.796239,-0.518497,0.494492,1.060638,0.330368
1135,11.35,-1.072602,-1.022778,-0.809212,0.381577,1.027618,0.36552399999999996
1136,11.36,-0.7957609999999999,-1.169676,-1.207853,0.240952,0.891266,0.38363600000000003
1137,11.37,-0.579162,-1.2944870000000002,-1.5917219999999999,0.079041,0.683533,0.380432
1138,11.38,-0.43287299999999995,-1.430532,-1.784746,-0.094604,0.422546,0.379364
1139,11.39,-0.152256,-1.535234,-1.7689970000000002,-0.234146,0.174347,0.3815
1140,11.4,0.086766,-1.638074,-1.633284,-0.302338,-0.04510499999999998,0.372971
1141,11.41,0.309674,-1.609425,-1.627289,-0.28527800000000003,-0.202759,0.36232
1142,11.42,0.412522,-1.5836620000000001,-1.756837,-0.22349499999999997,-0.27413899999999997,0.34315500000000004
1143,11.43,0.528734,-1.574667,-1.9418900000000001,-0.131882,-0.267746,0.31971700000000003
1144,11.44,0.673323,-1.5723040000000001,-2.0954040000000003,-0.042404000000000004,-0.189972,0.28988600000000003
1145,11.45,0.758549,-1.567369,-2.18109,0.037491000000000003,-0.095169,0.24940500000000002
1146,11.46,0.8558399999999999,-1.533493,-2.213317,0.097137,-0.032318,0.19613599999999998
1147,11.47,0.754948,-1.4309020000000001,-2.150857,0.135498,-0.026993,0.140747
1148,11.48,0.5570229999999999,-1.277606,-2.106637,0.163193,-0.040833,0.09814500000000001
1149,11.49,0.35951700000000003,-1.102518,-2.1129849999999997,0.202606,-0.060013,0.080032
1150,11.5,0.038357,-0.772161,-2.1708529999999997,0.254807,-0.032318,0.075775
1151,11.51,-0.300551,-0.543316,-2.304345,0.292084,0.042252,0.086426
1152,11.52,-0.522694,-0.269255,-2.375283,0.296356,0.12428299999999999,0.12051400000000001
1153,11.53,-0.662133,-0.03151000000000001,-2.278203,0.28036500000000003,0.207367,0.165253
1154,11.54,-0.5936100000000001,-0.026385000000000002,-2.121109,0.24201999999999999,0.265961,0.20466600000000001
1155,11.55,-0.432204,0.09689199999999999,-1.8390400000000002,0.18449400000000002,0.283005,0.225967
1156,11.56,-0.370628,0.164347,-1.509863,0.124847,0.244644,0.22277800000000003
1157,11.57,-0.283381,0.203683,-1.105855,0.06944299999999999,0.17114300000000002,0.198273
1158,11.58,-0.284992,0.3492,-0.694154,0.027908,0.077408,0.164185
1159,11.59,-0.314691,0.480239,-0.40260300000000004,0.006591999999999999,-0.030182,0.125839
1160,11.6,-0.324614,0.727713,-0.052680000000000005,-0.0008539999999999999,-0.09196499999999999,0.10240199999999999
1161,11.61,-0.289672,0.929126,0.252673,0.010864,-0.086639,0.088547
1162,11.62,-0.26981,1.049333,0.502548,0.02684,-0.01846300000000001,0.080032
1163,11.63,-0.208513,1.171502,0.784446,0.043884,0.079529,0.075775
1164,11.64,-0.24434899999999998,1.280292,0.997775,0.046005000000000004,0.169022,0.067245
1165,11.65,-0.314107,1.276628,1.24538,0.024704,0.2276,0.067245
1166,11.66,-0.322263,1.203953,1.47831,-0.0051270000000000005,0.231873,0.07257100000000001
1167,11.67,-0.28594899999999995,1.373745,1.6510259999999999,-0.029617,0.198853,0.080032
1168,11.68,-0.409822,1.78856,1.692318,-0.040268,0.127472,0.087479
1169,11.69,-0.47704799999999997,2.098938,1.5055020000000001,-0.047729,0.068878,0.100266
1170,11.7,-0.201904,2.539024,1.189768,-0.083954,0.064621,0.104538
1171,11.71,0.07421699999999999,2.705788,0.937232,-0.158524,0.137054,0.088547
1172,11.72,0.34015300000000004,2.520425,0.8565799999999999,-0.30445900000000004,0.237198,0.054459
1173,11.73,0.538208,1.9488509999999999,1.036733,-0.5281680000000001,0.289398,0.0043950000000000005
1174,11.74,0.6663020000000001,1.1164209999999999,1.7950840000000001,-0.796616,0.248917,-0.05525200000000001
1175,11.75,0.833541,0.2743479999999999,2.884792,-1.0032809999999999,0.101913,-0.11705
1176,11.76,1.013688,-0.368899,4.154649,-1.060791,-0.14416500000000002,-0.175629
1177,11.77,1.149451,-0.533137,5.148425,-0.9031370000000001,-0.42965699999999996,-0.23848000000000003
1178,11.78,1.0537860000000001,-0.553312,5.442399,-0.5622560000000001,-0.6341859999999999,-0.288559
1179,11.79,0.74852,-0.381419,4.910906,-0.129761,-0.677872,-0.31092800000000004
1180,11.8,0.423763,0.028912000000000018,3.8984989999999997,0.2846369999999999,-0.556427,-0.29281599999999997
1181,11.81,0.006981999999999961,0.2355,2.69225,0.579712,-0.310349,-0.23208600000000001
1182,11.82,-0.169703,0.27316,1.59628,0.757614,-0.03978000000000001,-0.143677
1183,11.83,-0.10436,0.099842,0.632362,0.814072,0.24678000000000003,-0.036087
1184,11.84,0.18493199999999999,-0.120656,-0.114301,0.745895,0.48327600000000004,0.045944
1185,11.85,0.289152,-0.391899,-0.612904,0.591431,0.581268,0.0811
1186,11.86,0.200693,-0.683661,-0.914383,0.37304699999999996,0.5429229999999999,0.082153
1187,11.87,0.02982,-0.923841,-1.097258,0.14721700000000001,0.393784,0.0811
1188,11.88,0.024864,-1.289294,-1.113544,-0.061583999999999986,0.17114300000000002,0.065109
1189,11.89,0.144335,-1.5071809999999999,-1.093076,-0.22563200000000003,-0.080261,0.023574999999999995
1190,11.9,0.191802,-1.676175,-1.056975,-0.330032,-0.282654,-0.028625
1191,11.91,0.163984,-1.864264,-1.0197829999999999,-0.36837800000000004,-0.390244,-0.07656900000000001
1192,11.92,0.223638,-1.8341049999999999,-0.9088709999999999,-0.339615,-0.415817,-0.12344400000000001
1193,11.93,0.340833,-1.815522,-0.8888809999999999,-0.23735,-0.358292,-0.170303
1194,11.94,0.390807,-1.761534,-0.9565020000000001,-0.086075,-0.253891,-0.219315
1195,11.95,0.414468,-1.692714,-1.090228,0.099274,-0.126068,-0.268311
1196,11.96,0.39268200000000003,-1.583832,-1.352614,0.293152,-0.003555000000000002,-0.326904
1197,11.97,0.41279499999999997,-1.471859,-1.707495,0.46359300000000003,0.114685,-0.372711
1198,11.98,0.426882,-1.3995950000000001,-2.1042509999999996,0.6020810000000001,0.21589699999999998,-0.416382
1199,11.99,0.383812,-1.3134649999999999,-2.4628650000000003,0.7000890000000001,0.31495700000000004,-0.435562
1200,12.0,0.295042,-1.189108,-2.698048,0.761871,0.411896,-0.43981899999999996
1201,12.01,0.180004,-0.956053,-2.842551,0.7906340000000001,0.479004,-0.421707
1202,12.02,-0.047681,-0.760882,-3.003028,0.784241,0.525879,-0.370575
1203,12.03,-0.144518,-0.4955620000000001,-3.12709,0.729904,0.541855,-0.315186
1204,12.04,-0.171515,-0.279508,-3.1636279999999997,0.6404270000000001,0.5429229999999999,-0.237427
1205,12.05,-0.20745,-0.133918,-3.06791,0.5083310000000001,0.517365,-0.16391
1206,12.06,-0.262875,0.029061000000000007,-2.79675,0.35281399999999996,0.45983900000000005,-0.091476
1207,12.07,-0.226688,0.008925000000000002,-2.376938,0.188751,0.379944,-0.024368
1208,12.08,-0.09525499999999999,0.012120999999999998,-1.808485,0.04068,0.27873200000000004,0.023575
1209,12.09,0.005224,0.046004,-1.271406,-0.07649199999999999,0.136002,0.053390999999999994
1210,12.1,0.122623,0.035126,-0.76173,-0.169174,-0.036575,0.06405599999999999
1211,12.11,0.200224,0.0048850000000000005,-0.338354,-0.241608,-0.204895,0.066177
1212,12.12,0.285401,0.116672,0.136897,-0.283157,-0.334854,0.073639
1213,12.13,0.349829,0.251809,0.519069,-0.28741500000000003,-0.42326400000000003,0.080032
1214,12.14,0.385949,0.378768,0.732301,-0.262909,-0.45842,0.086426
1215,12.15,0.336292,0.520692,0.8591790000000001,-0.23628200000000002,-0.415817,0.09919700000000001
1216,12.16,0.31821,0.676413,1.009549,-0.221375,-0.307159,0.11198399999999999
1217,12.17,0.233871,0.801502,1.2518639999999999,-0.21923800000000002,-0.155884,0.122635
1218,12.18,0.16580699999999998,0.954347,1.707832,-0.20432999999999998,-0.013137999999999995,0.131165
1219,12.19,0.15323,1.091582,2.1339490000000003,-0.15213,0.080597,0.126907
1220,12.2,0.15828499999999998,1.537128,2.418926,-0.058379999999999994,0.102966,0.10240199999999999
1221,12.21,-0.08441599999999999,2.1228599999999997,2.3669,0.07157899999999999,0.082733,0.068314
1222,12.22,-0.630788,2.370004,1.8324610000000001,0.181305,0.10723900000000001,0.047012
1223,12.23,-1.151324,2.37569,1.124322,0.226044,0.24678000000000003,0.068314
1224,12.24,-1.316182,2.227713,0.532717,0.168518,0.46090699999999996,0.11731
1225,12.25,-1.1131280000000001,1.626111,0.178652,-0.021103,0.647324,0.162048
1226,12.26,-0.876074,1.001744,0.43959,-0.34387199999999996,0.672882,0.172714
1227,12.27,-0.797963,0.447931,1.0907200000000001,-0.676239,0.50032,0.149277
1228,12.28,-0.781854,-0.06512300000000001,1.927748,-0.925507,0.188187,0.11091600000000001
1229,12.29,-0.96462,-0.34419299999999997,2.8057090000000002,-1.049088,-0.13032499999999994,0.06192
1230,12.3,-1.224111,-0.41118699999999997,3.5733449999999998,-1.011795,-0.364685,0.041687
1231,12.31,-1.4061860000000002,-0.309673,4.019841,-0.8264469999999999,-0.46907,0.032089
1232,12.32,-1.5914059999999999,-0.192868,3.988293,-0.538818,-0.46374499999999996,0.049132999999999996
1233,12.33,-1.752759,-0.252048,3.547125,-0.249069,-0.327393,0.089615
1234,12.34,-1.7695009999999998,-0.429429,2.8993290000000003,-0.03282199999999999,-0.101562,0.13755799999999999
1235,12.35,-1.6440689999999998,-0.63769,2.3881259999999997,0.086487,0.151978,0.19401600000000002
1236,12.36,-1.479248,-0.932066,1.958757,0.126968,0.379944,0.240891
1237,12.37,-1.452293,-1.211998,1.7747080000000002,0.12271099999999999,0.52269,0.268585
1238,12.38,-1.483667,-1.4548510000000001,1.6012389999999999,0.104599,0.552505,0.29841599999999996
1239,12.39,-1.423173,-1.623979,1.41861,0.084366,0.466232,0.32290599999999997
1240,12.4,-1.228543,-1.789775,1.1759620000000002,0.061996,0.295792,0.334625
1241,12.41,-0.947298,-1.806266,0.908092,0.056671000000000006,0.098709,0.338882
1242,12.42,-0.688846,-1.8310689999999998,0.565619,0.079041,-0.077057,0.338882
1243,12.43,-0.382999,-1.802388,0.158296,0.139755,-0.195297,0.339951
1244,12.44,-0.05750599999999996,-1.799493,-0.34645,0.207932,-0.264542,0.341019
1245,12.45,0.276611,-1.8059479999999999,-0.864452,0.264389,-0.30395500000000003,0.339951
1246,12.46,0.53966,-1.7974849999999998,-1.300059,0.309128,-0.319946,0.331436
1247,12.47,0.767319,-1.7397509999999998,-1.7065119999999998,0.342148,-0.292236,0.320786
1248,12.48,0.913538,-1.669472,-2.09056,0.364532,-0.226196,0.31012
1249,12.49,0.9406709999999999,-1.614427,-2.3225860000000003,0.37411500000000003,-0.125,0.293076
1250,12.5,0.9655389999999999,-1.487535,-2.559978,0.376236,-0.019531,0.270706
1251,12.51,0.896874,-1.370563,-2.72019,0.362396,0.07633999999999999,0.246216
1252,12.52,0.695236,-1.160919,-2.817075,0.310196,0.19458,0.20999099999999998
1253,12.53,0.5452319999999999,-1.0329059999999999,-2.767616,0.266525,0.242523,0.19081099999999998
1254,12.54,0.478605,-0.887983,-2.633341,0.21325700000000003,0.24359099999999997,0.181229
1255,12.55,0.375821,-0.759691,-2.584419,0.162125,0.20629899999999998,0.167374
1256,12.56,0.229731,-0.637796,-2.501591,0.097137,0.158371,0.158859
1257,12.57,0.18928,-0.540626,-2.3491009999999997,0.015121000000000002,0.100845,0.156723
1258,12.58,0.124708,-0.428079,-2.1639180000000002,-0.07223500000000001,0.056107000000000004,0.14714100000000002
1259,12.59,0.093895,-0.305163,-1.871552,-0.175568,0.033722,0.13755799999999999
1260,12.6,0.055682,-0.212527,-1.4473340000000001,-0.27037,0.023071,0.126907
1261,12.61,-0.054185000000000004,-0.163821,-0.8297829999999999,-0.330032,0.007095000000000001,0.10665899999999999
1262,12.62,-0.19333,-0.07977200000000001,-0.283125,-0.352402,-0.016342,0.083221
1263,12.63,-0.2472,-0.008576,0.249965,-0.35133400000000004,-0.05043,0.06192
1264,12.64,-0.286191,0.055714,0.762999,-0.318314,-0.094101,0.040619
1265,12.65,-0.339501,0.181175,1.226137,-0.250137,-0.146301,0.016113
1266,12.66,-0.40422600000000003,0.236223,1.549104,-0.148926,-0.201691,-0.014786
1267,12.67,-0.40555599999999997,0.367384,1.7472880000000002,-0.025359999999999997,-0.22833299999999998,-0.040344
1268,12.68,-0.384562,0.48589399999999994,1.815551,0.10141,-0.22833299999999998,-0.060592999999999994
1269,12.69,-0.358088,0.60339,1.6740169999999999,0.221786,-0.197433,-0.073364
1270,12.7,-0.371656,0.8180890000000001,1.5416530000000002,0.31445300000000004,-0.128189,-0.070175
1271,12.71,-0.363175,1.011473,1.399266,0.383698,-0.049362,-0.050995
1272,12.72,-0.350589,1.352554,1.236623,0.433762,0.029465000000000005,-0.025436
1273,12.73,-0.44291899999999995,1.705314,0.932441,0.45719899999999997,0.096573,0.012923999999999998
1274,12.74,-0.48281899999999994,1.78765,0.527354,0.440155,0.16581700000000002,0.057663
1275,12.75,-0.283561,1.843389,0.13216199999999995,0.34321599999999997,0.231873,0.092819
1276,12.76,-0.00947300000000001,1.9688970000000001,0.016888,0.161057,0.256363,0.09814500000000001
1277,12.77,0.128246,2.0100599999999997,0.098855,-0.06691,0.220154,0.07470700000000001
1278,12.78,0.234141,1.90888,0.332696,-0.299133,0.140259,0.023575
1279,12.79,0.20272300000000001,1.6534520000000001,0.7867970000000001,-0.49726899999999996,0.061432,-0.04567
1280,12.8,0.13861199999999999,0.935433,1.310697,-0.65387,0.003906,-0.12023900000000001
1281,12.81,0.07937000000000001,0.25706300000000004,2.068538,-0.7731779999999999,-0.074921,-0.18948399999999999
1282,12.82,0.051396000000000004,-0.542275,2.9205419999999997,-0.820053,-0.21554600000000002,-0.25766
1283,12.83,0.162406,-1.1819389999999999,3.8275080000000004,-0.7263029999999999,-0.4254,-0.319443
1284,12.84,0.32213,-1.42567,4.465065,-0.46211199999999997,-0.661896,-0.370575
1285,12.85,0.48266000000000003,-1.430324,4.409982,-0.056258999999999976,-0.839783,-0.416382
1286,12.86,0.401226,-1.1743430000000001,3.746842,0.402878,-0.8845209999999999,-0.428101
1287,12.87,0.253349,-0.898431,2.659266,0.8097989999999999,-0.724747,-0.399338
1288,12.88,-0.041294,-0.515079,1.544988,1.104889,-0.439255,-0.335419
1289,12.89,-0.202194,-0.22237600000000002,0.48891999999999997,1.281723,-0.09196500000000002,-0.23848000000000003
1290,12.9,-0.289445,-0.114918,-0.31474499999999994,1.325394,0.289398,-0.11705
1291,12.91,-0.318958,-0.144761,-0.9848959999999999,1.2753299999999999,0.624954,-0.00732399999999999
1292,12.92,-0.539738,-0.269545,-1.4954479999999999,1.0431059999999999,0.969025,0.104538
1293,12.93,-0.8045899999999999,-0.477733,-1.659705,0.830048,1.091537,0.151398
1294,12.94,-1.1896799999999998,-0.720121,-1.613847,0.598877,1.114975,0.179092
1295,12.95,-1.457956,-0.9344709999999999,-1.6130799999999998,0.345352,1.003113,0.215317
1296,12.96,-1.7339240000000002,-1.175975,-1.392724,0.06732199999999999,0.730408,0.238754
1297,12.97,-1.8599119999999998,-1.460668,-1.07349,-0.179825,0.3618319999999999,0.262192
1298,12.98,-1.6541279999999998,-1.668996,-0.753707,-0.35347,-0.01741000000000001,0.281357
1299,12.99,-1.279336,-1.831678,-0.53468,-0.423767,-0.323135,0.281357
1300,13.0,-0.916533,-1.865888,-0.394377,-0.37902800000000003,-0.487183,0.26112399999999997
1301,13.01,-0.675933,-1.807639,-0.43350200000000005,-0.25972,-0.51062,0.230225
1302,13.02,-0.571245,-1.629909,-0.6645909999999999,-0.086075,-0.42753599999999997,0.19934100000000002
1303,13.03,-0.425814,-1.375858,-0.935377,0.11525,-0.256027,0.171646
1304,13.04,-0.271852,-1.1114030000000001,-1.295412,0.310196,-0.025925000000000004,0.14714100000000002
1305,13.05,-0.060152,-0.867684,-1.730911,0.475311,0.228668,0.11518900000000001
1306,13.06,0.08695599999999999,-0.707018,-2.099036,0.597824,0.477951,0.0811
1307,13.07,0.143755,-0.534679,-2.404507,0.664932,0.703781,0.043808
1308,13.08,0.067052,-0.497909,-2.6296619999999997,0.6851649999999999,0.891266,0.013977000000000002
1309,13.09,-0.07048600000000001,-0.35993600000000003,-2.6423900000000002,0.6596069999999999,1.037201,0.00972
1310,13.1,-0.07412200000000001,-0.22299899999999998,-2.530128,0.630844,1.118164,0.033157
1311,13.11,-0.10116599999999999,-0.05823400000000002,-2.513415,0.588226,1.102188,0.070435
1312,13.12,-0.077434,0.067819,-2.517239,0.5093989999999999,1.013779,0.11624100000000001
1313,13.13,-0.016703999999999997,0.235571,-2.53695,0.39328,0.8784790000000001,0.17697100000000002
1314,13.14,0.10355,0.381777,-2.5064319999999998,0.23988299999999999,0.716568,0.224899
1315,13.15,0.219363,0.38513800000000004,-2.484773,0.053466999999999994,0.534409,0.265381
1316,13.16,0.332731,0.411203,-2.3132349999999997,-0.163849,0.365021,0.292023
1317,13.17,0.44076400000000004,0.306502,-1.906316,-0.375839,0.193512,0.312256
1318,13.18,0.592213,0.246725,-1.31728,-0.547348,0.008163000000000005,0.316513
1319,13.19,0.802966,0.272848,-0.695004,-0.6570590000000001,-0.18038900000000002,0.312256
1320,13.2,0.991142,0.247031,-0.15028800000000006,-0.694351,-0.354034,0.300537
1321,13.21,1.161306,0.306859,0.26518200000000003,-0.660263,-0.48611499999999996,0.27923600000000004
1322,13.22,1.1914799999999999,0.447438,0.50329,-0.561188,-0.538315,0.256866
1323,13.23,1.086532,0.545128,0.5736680000000001,-0.431229,-0.485062,0.241943
1324,13.24,0.945213,0.7082470000000001,0.586069,-0.293808,-0.351898,0.229172
1325,13.25,0.7244189999999999,0.8537309999999999,0.49725600000000003,-0.1745,-0.167603,0.224899
1326,13.26,0.631266,0.979504,0.498529,-0.090347,0.019882,0.22171
1327,13.27,0.542266,1.059441,0.59377,-0.038147,0.184998,0.212128
1328,13.28,0.597804,1.1070280000000001,0.747919,0.00019800000000000023,0.309631,0.18869
1329,13.29,0.599358,1.1775879999999999,0.9282799999999999,0.036423000000000004,0.379944,0.156723
1330,13.3,0.604043,1.3036159999999999,1.108118,0.058792,0.390594,0.11624100000000001
1331,13.31,0.43792200000000003,1.60818,1.114563,0.068375,0.34265100000000004,0.085358
1332,13.32,0.16660800000000006,2.0123889999999998,1.005023,0.054535,0.28512600000000005,0.0811
1333,13.33,-0.294954,2.156637,0.787284,0.016190000000000003,0.2798,0.105591
1334,13.34,-0.812487,1.9945709999999999,0.5380550000000001,-0.060515999999999986,0.359695,0.143951
1335,13.35,-0.9862,1.8170979999999999,0.353271,-0.20005799999999999,0.46196000000000004,0.197205
1336,13.36,-0.987708,1.6040370000000002,0.44213500000000006,-0.414185,0.476883,0.236618
1337,13.37,-1.0271780000000001,1.146724,0.763777,-0.65387,0.360764,0.25260900000000003
1338,13.38,-0.9142239999999999,0.743262,1.228774,-0.862656,0.188187,0.241943
1339,13.39,-0.731453,0.25248699999999996,1.784784,-1.004333,0.002837999999999993,0.19401600000000002
1340,13.4,-0.619975,-0.174405,2.41951,-1.046951,-0.162277,0.134354
1341,13.41,-0.5046430000000001,-0.69398,2.975032,-0.979843,-0.281586,0.073639
1342,13.42,-0.504301,-0.9856030000000001,3.3965,-0.798737,-0.326324,0.021439
1343,13.43,-0.586653,-1.005358,3.7820370000000003,-0.49726899999999996,-0.283722,-0.0030669999999999994
1344,13.44,-0.861326,-0.945441,3.649782,-0.09886200000000003,-0.165482,-0.001999
1345,13.45,-1.059057,-0.8042229999999999,3.096425,0.312332,0.030533000000000005,0.038482999999999996
1346,13.46,-1.137186,-0.6174649999999999,2.325324,0.6542819999999999,0.296844,0.10240199999999999
1347,13.47,-1.105416,-0.558447,1.435527,0.8865049999999999,0.553574,0.17804
1348,13.48,-0.9894700000000001,-0.578574,0.572959,0.993027,0.774094,0.24408000000000002
1349,13.49,-0.835361,-0.6164390000000001,-0.14630700000000002,0.9738620000000001,0.9530489999999999,0.28988600000000003
1350,13.5,-0.774185,-0.643021,-0.66892,0.8492280000000001,1.077682,0.320786
1351,13.51,-0.8706139999999999,-0.629618,-1.0441200000000002,0.637238,1.097931,0.346344
1352,13.52,-1.053383,-0.667759,-1.190714,0.380508,0.9924620000000001,0.37085
1353,13.53,-1.140758,-0.740309,-1.168225,0.105667,0.780472,0.402802
1354,13.54,-1.164376,-0.8642989999999999,-1.061992,-0.16171300000000002,0.48860200000000004,0.437958
1355,13.55,-0.9132309999999999,-1.096247,-0.97155,-0.393936,0.187134,0.472046
1356,13.56,-0.610542,-1.266593,-0.8408030000000001,-0.564392,-0.06640600000000002,0.49441499999999994
1357,13.57,-0.26607600000000003,-1.3618190000000001,-0.706343,-0.667709,-0.234711,0.521042
1358,13.58,0.057209,-1.462373,-0.6221220000000001,-0.70607,-0.345505,0.545547
1359,13.59,0.506901,-1.4612610000000001,-0.5751189999999999,-0.683701,-0.430725,0.553009
1360,13.6,0.8795129999999999,-1.368687,-0.562872,-0.6038060000000001,-0.482925,0.538086
1361,13.61,1.192172,-1.278277,-0.682234,-0.493011,-0.49038699999999996,0.498672
1362,13.62,1.257507,-1.155101,-0.9375879999999999,-0.366241,-0.445633,0.439026
1363,13.63,1.3784319999999999,-0.94344,-1.2286489999999999,-0.25119,-0.352966,0.37191799999999997
1364,13.64,1.3870209999999998,-0.787902,-1.43403,-0.164917,-0.22512800000000002,0.297348
1365,13.65,1.306509,-0.571589,-1.4987270000000001,-0.088211,-0.098358,0.23449699999999998
1366,13.66,1.306717,-0.38813600000000004,-1.539936,-0.026427999999999997,0.02095000000000001,0.187622
1367,13.67,1.178713,-0.241267,-1.54085,0.030029,0.10935999999999997,0.154602
1368,13.68,0.9881040000000001,-0.14063499999999998,-1.6565729999999999,0.07157899999999999,0.160492,0.138626
1369,13.69,0.708411,-0.03655,-1.7668669999999997,0.075836,0.191391,0.138626
1370,13.7,0.43003100000000005,0.026561,-1.8024529999999999,0.057724,0.20310999999999998,0.163116
1371,13.71,0.290238,0.064265,-1.7190889999999999,0.022583000000000002,0.202042,0.198273
1372,13.72,0.20788,0.013152,-1.5508979999999999,-0.01152,0.174347,0.235565
1373,13.73,0.180606,0.034171,-1.417246,-0.040268,0.114685,0.241943
1374,13.74,0.098958,0.05276,-1.313421,-0.071167,0.047577,0.237686
1375,13.75,-0.014186000000000002,0.097768,-1.189152,-0.115906,-0.035507,0.212128
1376,13.76,-0.049799,0.232004,-0.9812280000000001,-0.153198,-0.101562,0.187622
1377,13.77,-0.11638599999999999,0.225194,-0.663834,-0.16597,-0.14949,0.160995
1378,13.78,-0.12347799999999999,0.32269699999999996,-0.345945,-0.1436,-0.155884,0.139679
1379,13.79,-0.07414,0.407231,-0.014248000000000009,-0.094604,-0.14949,0.12051400000000001
1380,13.8,-0.00868,0.537149,0.224068,-0.033889999999999997,-0.140976,0.108795
1381,13.81,-0.011768,0.63662,0.46158599999999994,0.033234,-0.13458299999999998,0.093872
1382,13.82,-0.027857999999999997,0.733139,0.613513,0.099274,-0.11860699999999999,0.077896
1383,13.83,-0.07753399999999999,0.820924,0.748677,0.162125,-0.088776,0.067245
1384,13.84,-0.21352600000000002,0.851849,0.7911600000000001,0.212189,-0.06640599999999999,0.068314
1385,13.85,-0.367239,0.890432,0.775137,0.238831,-0.048294,0.076828
1386,13.86,-0.416166,0.922467,0.8158310000000001,0.240952,-0.035507,0.100266
1387,13.87,-0.490202,1.004688,0.856009,0.228165,-0.029129000000000002,0.132233
1388,13.88,-0.591577,1.221231,0.8358040000000001,0.22071799999999997,-0.0003659999999999983,0.173767
1389,13.89,-0.585259,1.462726,0.8273510000000001,0.22071799999999997,0.065689,0.22703600000000002
1390,13.9,-0.610305,1.7198630000000001,0.6633979999999999,0.224976,0.163696,0.270706
1391,13.91,-0.619951,2.048827,0.462983,0.199417,0.248917,0.303741
1392,13.92,-0.41416000000000003,2.2953900000000003,0.26832,0.13868699999999998,0.322418,0.346344
1393,13.93,-0.06294500000000003,2.3321080000000003,0.044531,0.032166,0.37248200000000004,0.351669
1394,13.94,0.3858320000000001,2.312322,-0.11193,-0.127625,0.404434,0.33676100000000003
1395,13.95,0.779937,1.971298,-0.10531099999999999,-0.341751,0.40870700000000004,0.292023
1396,13.96,1.10845,1.496159,0.124509,-0.615524,0.322418,0.217453
1397,13.97,1.31936,0.8714270000000001,0.707708,-0.921249,0.141327,0.13009600000000002
1398,13.98,1.459335,0.10729699999999998,1.644036,-1.1726530000000002,-0.137772,0.038483
1399,13.99,1.744631,-0.43282600000000004,2.830598,-1.2781069999999999,-0.47866800000000004,-0.044601
1400,14.0,2.0654619999999997,-0.740293,3.7891440000000003,-1.175842,-0.81102,-0.127701
1401,14.01,2.291977,-0.791489,4.204919,-0.876511,-1.059235,-0.220383
1402,14.02,2.254166,-0.593548,4.0050040000000005,-0.459991,-1.1380620000000001,-0.305603
1403,14.03,1.9982,-0.281853,3.2732069999999998,-0.029617000000000032,-1.032608,-0.370575
1404,14.04,1.6094700000000002,0.015361000000000001,2.343607,0.32617199999999996,-0.7865300000000001,-0.41105699999999995
1405,14.05,1.398867,0.177522,1.460164,0.5967560000000001,-0.433929,-0.40679899999999997
1406,14.06,1.401618,0.150064,0.7035559999999998,0.785309,-0.04936200000000002,-0.38655100000000003
1407,14.07,1.623051,-0.022929,0.14757900000000002,0.898224,0.30004899999999995,-0.379105
1408,14.08,1.616401,-0.29637600000000003,-0.296556,0.934448,0.591934,-0.390823
1409,14.09,1.512353,-0.6437229999999999,-0.70304,0.9099430000000001,0.778351,-0.416382
1410,14.1,1.307966,-0.922876,-0.9336040000000001,0.813004,0.825226,-0.448349
1411,14.11,0.945816,-1.088439,-1.05971,0.660675,0.73468,-0.48669399999999996
1412,14.12,0.542605,-1.301344,-1.1053870000000001,0.47956800000000005,0.517365,-0.526108
