,ts,ax,ay,az,wx,wy,wz
0,0.0,0.21102158120610862,0.13078033114304588,6.5916445750269945,-0.003938383357934549,-0.0028835791816521532,-0.0028835791816521532
1,0.01,0.03667923215437005,0.0828812973636619,1.234162041456596,-0.002915632221117506,-0.0034263844630920515,-0.0034263844630920515
2,0.02,-0.05161307913542869,-0.028847461061528357,-1.865295412425823,-0.0021674464272405346,-0.0029174993063492394,-0.0029174993063492394
3,0.03,-0.09335206358257647,-0.12083117123370113,-3.379781144531112,-0.0015825055605461391,-0.002687711917319858,-0.002687711917319858
4,0.04,-0.13653432511445535,-0.13417373825432471,-3.838410267832433,-0.003902021227208196,-0.002223581133286084,-0.002223581133286084
5,0.05,-0.13116815826030992,-0.09530619586604373,-3.6565124174282406,-0.004582343704733728,-0.0015253495571089125,-0.0015253495571089125
6,0.06,-0.10947769005697462,-0.002675808347713332,-2.974182900008507,-0.004384161841208625,-0.0011798443535901198,-0.0011798443535901198
7,0.07,-0.04656815610278445,-0.02054810645089171,-1.984724490299667,-0.0028988653641123232,-0.0007011237354402915,-0.0007011237354402915
8,0.08,-0.020683280191146028,-0.05076924413661127,-0.8463106228596224,-0.0021910770081576512,-0.004777465548573401,-0.004777465548573401
9,0.09,0.0025717258222749603,-0.0570067485239137,0.17370069094963525,-0.003985658948312618,-0.003742971513124283,-0.003742971513124283
10,0.1,0.022450473630726227,0.029117257884181888,0.9622614437205409,-0.007119645629536399,-0.0016291131904246096,-0.0016291131904246096
11,0.11,0.05430081228348747,0.09558854686894461,1.6484872030430462,-0.003570617364438388,-0.002640421140959073,-0.002640421140959073
12,0.12,0.08917525592212136,0.08109319941333318,2.198075335441602,-0.0018878435342313282,-0.0005713032547812592,-0.0005713032547812592
13,0.13,0.0850614863729106,0.022536352483382906,2.650814629267696,-0.0020562803657978,-0.0037254498517841415,-0.0037254498517841415
14,0.14,0.08225698313786893,-0.006442895812122453,2.8066691978179983,-0.004510114201453802,-0.001946888505730784,-0.001946888505730784
15,0.15,0.06691714743397,0.08524583099596478,2.7028138764916956,-0.004472998393481419,-0.0011834232198477586,-0.0011834232198477586
16,0.16,0.08824684046960722,0.12397424630958272,2.4700303341963368,-0.005952329540900767,-0.0015822356545309936,-0.0015822356545309936
17,0.17,0.07715180131856447,0.09766039765923461,2.221507298639037,-0.0014360487632047445,-0.003298247011802661,-0.003298247011802661
18,0.18,0.0674153166953626,-0.0022374834389983847,1.9262832831183343,-0.0012075238700432046,-0.0041163322056578895,-0.0041163322056578895
19,0.19,0.04337304600485927,-0.011045546909201343,1.470440280654289,-0.002131925460554337,0.001050955401939877,0.001050955401939877
20,0.2,0.026206740895493137,0.039812022619607694,0.9061253220290284,-0.0040402067960756,-0.00033595509413597465,-0.00033595509413597465
21,0.21,0.008371831738738091,0.06396707498212621,0.3381374758940392,-0.004375322048081222,-0.0008507157834334265,-0.0008507157834334265
22,0.22,-6.072068070287623e-05,0.02687343320153702,-0.1059775149065656,-0.0025097254237613467,-0.0023640345252329193,-0.0023640345252329193
23,0.23,-0.0027572714420265564,-0.06610090698199014,-0.4894480482943203,-0.00138857713727418,-0.0035979540058523633,-0.0035979540058523633
24,0.24,-0.03923011813168774,-0.0701579427152215,-0.8961225842238563,-0.002656262456271667,-0.0006107918360028287,-0.0006107918360028287
25,0.25,-0.0459716240571328,-0.03656752029542448,-1.346257731587262,-0.005657924884622268,-0.0019389664237040945,-0.0019389664237040945
26,0.26,-0.05689561659206896,0.02506299814641475,-1.7052930758919982,-0.005349967356452515,-0.002764922464433983,-0.002764922464433983
27,0.27,-0.04877828048363523,-0.04411094289170281,-1.8875949015703184,-0.0015189591219260336,-0.001980719982232962,-0.001980719982232962
28,0.28,-0.05595338862743666,-0.08451131292970501,-1.9542644245582381,-0.0009892711602407245,-0.002599143873351625,-0.002599143873351625
29,0.29,-0.06488223863910259,-0.09939580209166232,-2.003644206189775,-0.002347737595044111,-0.0024992596237308315,-0.0024992596237308315
30,0.3,-0.07582319670100299,-0.042290851300155065,-2.103533890211741,-0.0021996701263468,0.0011278804280831604,0.0011278804280831604
31,0.31,-0.06885192180736348,0.009549484203991078,-2.088284613840736,-0.0050533128162428475,0.0009863667827209653,0.0009863667827209653
32,0.32,-0.04708378392760643,-0.020225249264139794,-1.9392465550456084,-0.002759833848043577,-0.0036757107255072407,-0.0036757107255072407
33,0.33,-0.047149826882132914,-0.06452986732840621,-1.6624341828322855,-0.0016401467552438025,-0.0025991047019979945,-0.0025991047019979945
34,0.34,-0.05202594559574332,-0.09116129539283312,-1.4506852696715438,-0.00309182911147749,-0.002997251652590412,-0.002997251652590412
35,0.35,-0.05811644686017817,-0.018355541478723335,-1.2734074165403797,-0.003749547082493515,-0.0017265207985770502,-0.0017265207985770502
36,0.36,-0.03432958373248845,0.02230828334048008,-1.0461313123542064,-0.004106175472738041,-0.0013509043784136149,-0.0013509043784136149
37,0.37,-0.017887414945657612,0.023219248770322876,-0.7144809813491984,-0.0018503841971600683,-0.0014870335387244145,-0.0014870335387244145
38,0.38,0.0017233793621714497,-0.05541623795602507,-0.3150873715919408,-0.0005232319122236912,0.0009532893390371236,0.0009532893390371236
39,0.39,-0.013871022627457767,-0.047231681567525066,-0.011750502370314164,-0.002249807132305204,-0.0008890192181296027,-0.0008890192181296027
40,0.4,-0.022673332560669012,0.015300332610204623,0.20044482460086555,-0.00410203275677513,-0.0005210647671333147,-0.0005210647671333147
41,0.41,0.009418034143833447,0.07230065051104412,0.4097176662649172,-0.001292662696234246,-0.00039245145330077706,-0.00039245145330077706
42,0.42,0.030100413467860986,0.05556179074261387,0.7141655198172656,-0.0018701852272740968,-0.001849298181957421,-0.001849298181957421
43,0.43,0.052214076836565815,-0.03346565988678037,1.0302138569406285,-0.002503505427628603,-0.0004450676561687373,-0.0004450676561687373
44,0.44,0.028445058055971594,-0.025996077855469035,1.2423853880824924,-0.002220180933282071,-0.0013724124630968895,-0.0013724124630968895
45,0.45,0.03285408126271692,0.03002984319973268,1.3173939265435588,-0.004993394001606208,-0.0013151997980638108,-0.0013151997980638108
46,0.46,0.042443514846345384,0.10192486331841305,1.3790129252860732,-0.0018916913022408968,-0.004950004839466438,-0.004950004839466438
47,0.47,0.05817021438445157,0.05387842217821921,1.50810579144727,0.00025751089795331584,-0.004317505069507789,-0.004317505069507789
48,0.48,0.06012857392673561,-0.005713545821318902,1.638744721106542,8.713010878692374e-05,-0.0037670710616275562,-0.0037670710616275562
49,0.49,0.04154464320954544,-0.006135370035248316,1.6647370252198854,-0.0015897886767853866,-0.0016007040511199619,-0.0016007040511199619
50,0.5,0.04285564854272574,0.04668676098501916,1.5445115002216825,-0.0037255335296895523,-0.0007934764133185245,-0.0007934764133185245
51,0.51,0.04154088359487694,0.11247719524265742,1.4304426344846,-0.0021624495154945,-0.0012922786879605744,-0.0012922786879605744
52,0.52,0.056735415451515864,0.04229490338063305,1.3838389120003134,-0.0004389265142357973,-7.314892259471838e-05,-7.314892259471838e-05
53,0.53,0.051281242748877104,-0.007496358828596023,1.3392066801820521,0.0006151186720141338,-0.001893163032413252,-0.001893163032413252
54,0.54,0.044898879066675966,-0.017645530960167466,1.2068658316643615,-0.002356615798723097,-0.0008385874795645468,-0.0008385874795645468
55,0.55,0.03233631460755766,0.038737692444044645,0.9368425830412952,-0.004421821510659582,-0.0007011507574875898,-0.0007011507574875898
56,0.56,0.019536236283842403,0.0672715090105002,0.7249661328568491,-0.0043852452906419466,5.437918838951234e-05,5.437918838951234e-05
57,0.57,0.04189876516566927,0.02313051140202096,0.5654013157832292,-0.0019695308490304654,-0.001736460998783626,-0.001736460998783626
58,0.58,0.026778537397974575,-0.024305676968007287,0.47691557293666426,0.00042268527514556606,-0.001372891912157564,-0.001372891912157564
59,0.59,0.006364779414686269,-0.033290002781879324,0.2711634226935566,-0.0026141596124564623,-0.0026925926621141987,-0.0026925926621141987
60,0.6,-0.01282911495772498,0.00955178477747521,-0.015530871676444707,-0.0031351824353781205,-0.0016023322375718786,-0.0016023322375718786
61,0.61,-0.011232472522864849,0.03733714466436969,-0.2652343559764658,-0.004304834543808365,-0.0013015364045791994,-0.0013015364045791994
62,0.62,0.0020239232676182994,0.013144654580529179,-0.4036103713377803,-0.0022341831375144888,0.0004220140883435051,0.0004220140883435051
63,0.63,-3.1371319545552e-05,-0.05811944045168277,-0.4831861893025969,0.00013000703731023315,-0.002731326425980586,-0.002731326425980586
64,0.64,-0.03137406890492862,-0.05533525659714734,-0.614686180155972,-0.0032043505136060387,-0.0029662289713374393,-0.0029662289713374393
65,0.65,-0.040973086987892864,-0.027946666208593703,-0.8446593458831749,-0.0052724168906380575,-0.00029178230795527953,-0.00029178230795527953
66,0.66,-0.03406600590426969,0.039936693158658096,-1.0154583134530553,-0.003332715905514813,-0.0018059815335513387,-0.0018059815335513387
67,0.67,-0.021723540278960757,0.004506034283953596,-1.0615057781431718,-0.0012180482657978954,-0.0021658552378255253,-0.0021658552378255253
68,0.68,-0.03320885674999806,-0.055920196958397214,-1.0623836343632769,-0.00021191868462705162,0.0005915744469392032,0.0005915744469392032
69,0.69,-0.05533095140084683,-0.05393989241261064,-1.0941765546037978,-0.0026103798031197885,-0.00266568256930062,-0.00266568256930062
70,0.7,-0.05108630201447685,-0.024105702502972,-1.186925131690633,-0.004195064762841721,-0.003628523001061552,-0.003628523001061552
71,0.71,-0.050189507881615976,0.029706358616558515,-1.2430163330058543,-0.0027803828185263327,-0.0024752887247412713,-0.0024752887247412713
72,0.72,-0.02647165455945454,-0.006787374478357814,-1.1888968868274241,-0.0014276941426882262,-0.0038217044678737436,-0.0038217044678737436
73,0.73,-0.033312692332402555,-0.05572779591330701,-1.062236230221378,-0.0029324790664394824,-0.002880158556649159,-0.002880158556649159
74,0.74,-0.03720654103623518,-0.08052027450842239,-0.9864092407228884,-0.0019996485271283307,-0.0018904072019520657,-0.0018904072019520657
75,0.75,-0.0411288689898727,-0.018815615207762412,-0.9987155888488144,-0.0006265692109908822,-0.00160085904090408,-0.00160085904090408
76,0.76,-0.03367725981932408,0.03599968583627055,-0.9526590707617371,-0.004447160361694051,-0.001129421477855076,-0.001129421477855076
77,0.77,-0.016647608294368788,-0.0026419722877514176,-0.804974023321557,-0.0014073001917108753,-0.001709398463056902,-0.001709398463056902
78,0.78,-0.01651110824488475,-0.054497022571834794,-0.5952628318013128,-0.001060226837443866,-0.0005643818193309838,-0.0005643818193309838
79,0.79,-0.0143232412463934,-0.0656367002656046,-0.4698106688818817,-0.004322734621065347,-0.0007812422599982068,-0.0007812422599982068
80,0.8,-0.03293762607760392,0.008685351358107277,-0.4305276461006564,-0.003115293152271475,7.947321212490427e-05,7.947321212490427e-05
81,0.81,-0.01572332454396183,0.032934532324796345,-0.3557049190327487,-0.0022184164824885014,2.025859157178282e-05,2.025859157178282e-05
82,0.82,0.003945708183861873,0.013348146898459654,-0.16861799211556225,-0.002265611893660193,-0.0015495827428955956,-0.0015495827428955956
83,0.83,0.008745746034796907,-0.03830407044150093,0.05385748965096371,6.336759700203748e-06,-0.0005743400875106988,-0.0005743400875106988
84,0.84,0.0035049868233213615,-0.04077830759178307,0.19260436457076793,-0.0026934258960810164,-0.003607854514687168,-0.003607854514687168
85,0.85,-0.007689806315833445,0.020297944130956293,0.23829024384497297,-0.005449059731864667,-0.001590787441278975,-0.001590787441278975
86,0.86,0.020332063911544098,0.046801735014229615,0.2868279973698835,-0.003492884284529902,-0.002440722497653845,-0.002440722497653845
87,0.87,0.029515119021059348,0.02899052506006179,0.4258760985005038,-0.0019993316489784287,-0.0024404609901158484,-0.0024404609901158484
88,0.88,0.0342237796994692,-0.027420317751591372,0.6116192766078371,-0.0010729447195706736,-0.0023333622726026872,-0.0023333622726026872
89,0.89,0.014516671163300313,-0.026069953203622903,0.7159391609044397,-0.0023905561447848107,-0.0029250843983120753,-0.0029250843983120753
90,0.9,0.016055753197924922,0.00830276683672388,0.69576957471212,-0.0031626153494734464,-0.0011569816431465714,-0.0011569816431465714
91,0.91,0.025529707571492012,0.05766978552955919,0.6954828223265493,-0.004627422689895053,-0.0009307866026466916,-0.0009307866026466916
92,0.92,0.04505790091729868,0.030049251702866528,0.7571218578165984,-0.002531118502804516,-0.0006316509674562965,-0.0006316509674562965
93,0.93,0.04036574792130591,-0.007727688818513143,0.8610892368451069,-0.0017872716614248734,-0.003476771840390136,-0.003476771840390136
94,0.94,0.016300436983402694,-0.019433196266984844,0.9010665330705502,-0.0013253924615031275,-0.002785453210618118,-0.002785453210618118
95,0.95,0.01759154558482761,0.02166834139422239,0.805753508858386,-0.0035327872535637563,-0.0007581407622122152,-0.0007581407622122152
96,0.96,0.009977089734810953,0.07611675204250544,0.7395626797400233,-0.006814916531483384,0.0001819596489848965,0.0001819596489848965
97,0.97,0.03615155541595591,0.05894605445494799,0.7293675387687728,-0.004170318871204196,-0.0017887885981526003,-0.0017887885981526003
98,0.98,0.026169438036723964,-0.006199739282388445,0.778005058176502,-0.0009919956806784833,-0.0036739114330769655,-0.0036739114330769655
99,0.99,0.019713213407657873,-0.028644995132077862,0.7385385872170023,-0.004962879579888446,-0.0018442906307722844,-0.0018442906307722844
100,1.0,0.00646309911613425,0.04556962471894781,0.5987765686851242,-0.004491732720795207,-0.0021059730139456976,-0.0021059730139456976
101,1.01,0.015410828569870525,0.07256466390190272,0.47039480512237847,-0.006373190694013583,-0.002429150218343649,-0.002429150218343649
102,1.02,0.0254351624751544,0.03951625181490001,0.4267332729069767,-0.003306827927359917,-0.0016935084442305046,-0.0016935084442305046
103,1.03,0.020439704933640297,-0.023712894316534054,0.43410401883216987,-0.0029331198524417306,-0.00029397474344725484,-0.00029397474344725484
104,1.04,0.0031813258495588526,-0.041908041640146096,0.36120290458612336,-0.003573129468314889,0.0005484740086587444,0.0005484740086587444
105,1.05,-0.00673050823629801,0.007644657205548008,0.1992157677811184,-0.004845927067889229,-0.001966425461264412,-0.001966425461264412
106,1.06,0.00369503140062106,0.06506381550390893,0.04418998931424663,-0.005952586918663644,-0.0014126042319283325,-0.0014126042319283325
107,1.07,0.008751783285778574,0.03130067894014656,0.0018820056188151094,-0.001921769714342027,-0.0043510964730286055,-0.0043510964730286055
108,1.08,0.012859536680886569,-0.04279528765535168,-0.005004195341486245,-0.0017402009620590855,-0.001562738838144685,-0.001562738838144685
109,1.09,-0.016561335065675985,-0.035043829474616435,-0.08100704521374952,-0.002675998589648805,-0.002043533236959654,-0.002043533236959654
110,1.1,-0.014463615174791954,0.0052500961695924366,-0.22540990326862995,-0.006591866001881247,-0.00012995230610655766,-0.00012995230610655766
111,1.11,-0.02002371324685182,0.03451094103398483,-0.35133438548480617,-0.002834875532012949,-0.0023413752729686326,-0.0023413752729686326
112,1.12,-0.00680371830748516,-0.0021010123983736025,-0.36165351358042824,-0.002219912571518914,-0.002784293740900195,-0.002784293740900195
113,1.13,0.004524626310710468,-0.045985173731097596,-0.3536804311407579,-0.0012229123280858548,-0.0019620009414528248,-0.0019620009414528248
114,1.14,-0.014508015762277594,-0.05733792070491636,-0.3766274076146477,-0.002150985044897013,-0.0029022032832065467,-0.0029022032832065467
115,1.15,-0.021789920146992228,-0.012181852496878559,-0.5104471426006908,-0.0020837962430554696,0.0005962584731494751,0.0005962584731494751
116,1.16,-0.02225241577644162,0.02747955009491765,-0.5800587673564814,-0.003777901645720832,0.00014699256839863196,0.00014699256839863196
117,1.17,-0.010442180421509333,0.001138918597756066,-0.5728594338580346,-0.0016509980485386508,-0.002590306526186969,-0.002590306526186969
118,1.18,-0.00373926983311592,-0.047314938644387634,-0.48240585573457007,-0.0011047408232002878,-0.002035643483754103,-0.002035643483754103
119,1.19,-0.015793322349154336,-0.05546977257101963,-0.4869410331821902,-0.0008184095595937485,-0.0015290389157869126,-0.0015290389157869126
120,1.2,-0.030527872614522458,-0.009195243056998158,-0.5623030638829607,-0.0059488793248657825,-0.0004069022155567012,-0.0004069022155567012
121,1.21,-0.02981334153155634,0.02148094137355001,-0.5823092926139468,-0.00597091524476008,-0.004416853706729331,-0.004416853706729331
122,1.22,-0.004356623897200398,0.01223029277179884,-0.5406615325392936,-0.00413861485967705,-0.002209774222500034,-0.002209774222500034
123,1.23,-0.003197561186945093,-0.04288192111345154,-0.41632092379099084,-0.0009654602344422106,-0.002956906777969301,-0.002956906777969301
124,1.24,-0.017582388461299208,-0.050882999564665944,-0.3750168447493448,-0.001559631654342551,-0.0004983074824686729,-0.0004983074824686729
125,1.25,-0.03931591608655802,-0.015155853903644241,-0.41409699174144105,-0.0038767762521724897,8.117517061391412e-05,8.117517061391412e-05
126,1.26,-0.02346446464850228,0.03794250774302897,-0.4295041934970927,-0.002930057466912709,-0.002344878121428006,-0.002344878121428006
127,1.27,0.010431764140709239,0.02104333681153011,-0.3343786886158974,-0.00219258611332907,-0.0030510316757369443,-0.0030510316757369443
128,1.28,0.013732685316564533,-0.030765671295128187,-0.19605014521033598,-0.0028366536239587572,-0.002466298438168867,-0.002466298438168867
129,1.29,-0.024673653851654556,-0.04498632053321412,-0.13635709177055533,-0.0017370461027040314,0.0010812678757740435,0.0010812678757740435
130,1.3,-0.02437974309949382,-0.004054417616639154,-0.15005664330836518,-0.0012491189991131425,0.0005665157231819604,0.0005665157231819604
131,1.31,-0.006770273935279623,0.0454739729967041,-0.1544266158948936,-0.0036965535506378743,-0.001759451791999831,-0.001759451791999831
132,1.32,0.016748272338099723,0.005345183390440966,-0.046117354223693396,-0.004924485637468199,-0.00015646327639499822,-0.00015646327639499822
133,1.33,0.014914870375201367,-0.02584474334795929,0.07094982359436836,-0.002654536597526698,-0.0011213701252730886,-0.0011213701252730886
134,1.34,0.0012936550785743453,-0.03802322048224311,0.16166107152778927,-0.0015830752636949454,-0.0006925952675372592,-0.0006925952675372592
135,1.35,0.008882713265590089,0.0053285722611756195,0.11370795471652542,-0.003433212072142152,-0.0017142245983467492,-0.0017142245983467492
136,1.36,0.004260371817499092,0.050308679194866146,0.11302460442882789,-0.003301628018369754,-8.51581360461368e-05,-8.51581360461368e-05
137,1.37,0.014843850012244537,0.019827802140902955,0.19383689214074218,-0.0018316961704997136,-0.002383016978179909,-0.002383016978179909
138,1.38,0.01136498411071146,-0.02450898055127059,0.302840851581845,-0.0014712384115943677,-0.002516852381391331,-0.002516852381391331
139,1.39,0.011063256229514087,-0.031588626327372235,0.34706268336128077,-0.002677294698132689,-0.0022956846931310518,-0.0022956846931310518
140,1.4,-0.004369097168580178,0.024874710855254403,0.3088027245989925,-0.003618377589730357,-0.0007516522713432747,-0.0007516522713432747
141,1.41,0.007513992435014407,0.041883676844819556,0.26604880012501053,-0.004491431520353515,-0.0015815861566036862,-0.0015815861566036862
142,1.42,0.025019334336209183,0.022889847086639027,0.3063258283363322,-0.003930006437763578,-0.0029322720685108967,-0.0029322720685108967
143,1.43,0.03291955336662686,-0.025805815690822947,0.4039575355666182,-0.0038778603312232492,-0.0025684971347382578,-0.0025684971347382578
144,1.44,0.009798798068310997,-0.011700019419294305,0.41450224533653335,-0.0014371636397713019,-0.00018462468106001192,-0.00018462468106001192
145,1.45,-0.012387938680710989,0.02931719239923251,0.3319388854217086,-0.0026420719258095577,0.00011277041029917595,0.00011277041029917595
146,1.46,-0.00213771845426451,0.05350250916036339,0.2657587632854994,-0.0013007323279705667,0.00012070893175966333,0.00012070893175966333
147,1.47,0.00937394745203146,0.03830820021806497,0.2990719122595734,-0.0007298010429330128,-0.0026165117053382485,-0.0026165117053382485
148,1.48,0.02365784480072844,-0.011560783245342234,0.35958433628009295,-0.0006135909569183588,-0.0011727973876674938,-0.0011727973876674938
149,1.49,-0.002705221222243143,-0.0013125372309770282,0.3472546379683395,-0.003308295277833868,-0.0013172908936759599,-0.0013172908936759599
150,1.5,-0.008925012677573056,0.018310433037710766,0.2425476418373385,-0.0032032895567505747,-0.002378213040671031,-0.002378213040671031
151,1.51,0.0036712766313762805,0.04059343140779062,0.1472436582913801,-0.0023935231034274422,-0.0016320037676637606,-0.0016320037676637606
152,1.52,0.01701039364979786,0.026441200584864346,0.16144160981181915,-0.0018370097362249715,0.0002217601009930937,0.0002217601009930937
153,1.53,0.02549016010844165,-0.012803273419678976,0.19798436485671844,-0.00048560406144658566,-0.0005738520232604628,-0.0005738520232604628
154,1.54,0.004579866295188126,-0.03638267493551117,0.1992838354905086,-0.0019401668431791785,-0.0004336187229441805,-0.0004336187229441805
155,1.55,-0.018853340994552298,0.009167311164479604,0.08598327794984258,-0.002338800493673125,-0.0013548241167637607,-0.0013548241167637607
156,1.56,-0.010271617521777132,0.037020716437461285,-0.014869159690753697,-0.0006335776975753866,-0.0006299866867119153,-0.0006299866867119153
157,1.57,0.012655649640821236,-0.002225895413980509,-0.01579489106982982,-0.0010427659429988532,-0.003896916720985039,-0.003896916720985039
158,1.58,0.014549294513485743,-0.03581759764633817,0.03167938077613089,-0.001492998480457609,-0.002005250707279886,-0.002005250707279886
159,1.59,-0.012614619438880993,-0.04273191352790662,0.03324810386366984,-0.003697078655702236,-3.428606420207117e-05,-3.428606420207117e-05
160,1.6,-0.007886047506292373,0.00035015704957419916,-0.09450527865498322,-0.005418658515868756,-0.0012753050116961324,-0.0012753050116961324
161,1.61,-0.0064589847687424335,0.03831544758633779,-0.1658193302876105,-0.004283829952700151,-0.00193310234799465,-0.00193310234799465
162,1.62,-2.424419611513247e-05,0.01927671963698674,-0.1696309113677647,-0.0024044696065453077,-0.0038906305830626016,-0.0038906305830626016
163,1.63,-0.0003464797484841577,-0.04252047382101829,-0.09297553102405091,-0.0010909161791267568,-0.00455216188588885,-0.00455216188588885
164,1.64,-0.005681239361959418,-0.046310901780303115,-0.09290386047825155,-0.0006601449293337433,-7.027481217788693e-05,-7.027481217788693e-05
165,1.65,-0.012518158853376381,-0.009338129847110565,-0.1915281425122186,-0.003771750160569803,-0.0005870094972620432,-0.0005870094972620432
166,1.66,-0.01687977006821163,0.02460175815945132,-0.26752197253790644,-0.00537618239313006,-0.0027787020582104673,-0.0027787020582104673
167,1.67,0.010928798093998347,-0.0016349294983164665,-0.24998827502083737,-0.003449598638364018,0.0008469473872975258,0.0008469473872975258
168,1.68,0.020610003130882418,-0.05203513760153902,-0.17477892799183042,-0.0033950049820420138,-0.0011813674507317015,-0.0011813674507317015
169,1.69,-0.0057918283908904526,-0.02275540841082708,-0.16786092085881274,-0.0038234736791519907,-0.0006412116415893921,-0.0006412116415893921
170,1.7,-0.014710623521157998,-0.005832334866708953,-0.22779840007820454,-0.004984087076542251,0.0009398087358858114,0.0009398087358858114
171,1.71,-0.016764075389910964,0.032117217364339166,-0.28786832224865383,-0.004455533453963704,-0.0004916364883524835,-0.0004916364883524835
172,1.72,-0.0035732926080514977,0.013267017134722026,-0.2253768225680506,0.0001520540715716206,-0.002584333745268561,-0.002584333745268561
173,1.73,0.018687703890020783,-0.03660882292462156,-0.15349821371197733,-0.0012365241949001849,-0.00011658026633476311,-0.00011658026633476311
174,1.74,-0.006032815571128858,-0.033346151870349575,-0.12614401829391472,-0.0034050946269595264,-0.0014178925260009507,-0.0014178925260009507
175,1.75,-0.016294601531576254,0.002354330980061454,-0.18063365592837274,-0.0034468524318072014,0.0002579309894666081,0.0002579309894666081
176,1.76,-0.015753430492732406,0.03749274331978073,-0.21554015970738846,-0.0031791907151253536,-0.002057075731734527,-0.002057075731734527
177,1.77,0.008341766316982791,0.002766958745462072,-0.15427515248396811,-0.002434895692205593,-0.002012435117654925,-0.002012435117654925
178,1.78,0.017593963500014586,-0.020083806303410556,-0.0640221878677488,-0.0013471970145277163,-0.00441374131224449,-0.00441374131224449
179,1.79,-0.006482082924133337,-0.028356594513085892,-0.014646385125684114,-0.0037376424008694494,-0.0031821212262591013,-0.0031821212262591013
180,1.8,-0.03306678184947076,0.0023374640157303762,-0.0770819133338007,-0.00509305245349484,-0.000181053901799486,-0.000181053901799486
181,1.81,-0.013444913771631636,0.02774841700773027,-0.10494670902745072,-0.0056253013959895685,-0.0013764781680834955,-0.0013764781680834955
182,1.82,0.011093496169757012,0.022962351849571325,-0.05815003105009838,-0.0016270405271508355,-0.004038585304183565,-0.004038585304183565
183,1.83,0.011126334554169096,-0.006149131062425248,0.05888624162308839,-0.00014319299689994052,-0.0018600804571355,-0.0018600804571355
184,1.84,-0.004135403726093537,-0.022801197879577007,0.09288944078800226,-0.0016673904995993562,-0.0017755700708142355,-0.0017755700708142355
185,1.85,-0.01950577541257311,0.005238178577957233,0.034934826685196846,-0.004081882624283154,9.886927730907226e-05,9.886927730907226e-05
186,1.86,-0.008323054217272703,0.023456854596646766,-0.003654759909225695,-0.003218550245905013,0.0009272866606404033,0.0009272866606404033
187,1.87,0.010487622824718008,0.029993437113902427,0.04126073292003801,-0.0011570017119881793,-0.00018169195822306998,-0.00018169195822306998
188,1.88,0.015054913824029495,-0.020097542225003297,0.14575927794825938,-0.0020125116206060664,-0.001227191351785802,-0.001227191351785802
189,1.89,0.0004096505197309719,-0.020117803836957396,0.16253736276889044,-0.003976190914966358,-0.0018706069352701425,-0.0018706069352701425
190,1.9,-0.014470928269464655,0.007691329940198641,0.10784532198819204,-0.004647095733594126,-0.0025249245593410518,-0.0025249245593410518
191,1.91,6.144005212324654e-05,0.04633005704107288,0.04087773753382791,-0.0057023737959294605,-0.003480779550201591,-0.003480779550201591
192,1.92,0.004640945833681484,0.039926536123329734,0.09150611283224247,-0.003377401383792455,-0.0018227163516283524,-0.0018227163516283524
193,1.93,0.011987906216040584,-0.019649172491320255,0.1874362543279942,-3.089692784939425e-05,-0.0021176334347205784,-0.0021176334347205784
194,1.94,0.004690543501054528,-0.02713552919960677,0.1881188255885639,-0.001919791363305474,-0.0015255419539160593,-0.0015255419539160593
195,1.95,-0.015096854471760264,0.005555132581543876,0.11523981255708149,-0.003798335440375106,-0.0028941882523495412,-0.0028941882523495412
196,1.96,-0.0038919007735324952,0.06096472639506919,0.05946111242428889,-0.0039986175613687105,-0.0007885836619969497,-0.0007885836619969497
197,1.97,0.010947226514732235,0.017513018065307976,0.10166788567527443,-0.003137915397531347,-0.0016314780437148724,-0.0016314780437148724
198,1.98,0.027198124155085796,-0.02385783288122455,0.1654915091510185,-0.0037072328688694508,-0.002349808102234284,-0.002349808102234284
199,1.99,0.014938752356217505,-0.03904347862207541,0.16695298170343598,-0.003910058701867663,-0.0032644682000208865,-0.0032644682000208865
200,2.0,0.0009446200656044804,0.001619149146363269,0.08164134195502412,-0.0025449591801922637,-0.0011067771306399903,-0.0011067771306399903
201,2.01,-0.0031795568178782808,0.03798405693303033,0.03998780848617282,-0.0009035255316656104,-0.003721422260627865,-0.003721422260627865
202,2.02,0.013397670830688754,-0.001512955201140657,0.05432698824526127,0.0002665060112404723,-0.0031159322550313,-0.0031159322550313
203,2.03,0.012608192642118321,-0.01465451686450892,0.12437872148915169,5.1984184731791335e-05,-0.0048740016871755614,-0.0048740016871755614
204,2.04,0.0048498846247614896,-0.037996780380944645,0.1209234715801262,0.0002992138597317131,-0.004494176114753922,-0.004494176114753922
205,2.05,-0.0076349860746098164,-0.00014268034601938855,0.02943566509956307,-0.0015837706919816805,-0.0041467816526099465,-0.0041467816526099465
206,2.06,-0.011934749797693212,0.015372264139931407,-0.035689755878915194,-0.003848887735975128,-0.0032963593857822785,-0.0032963593857822785
207,2.07,0.011526169377287995,0.010194498325988784,-0.021588836965336103,-0.0029528802173288808,-0.002240559518127327,-0.002240559518127327
208,2.08,0.016308779427035444,-0.025692238488087243,0.058087078598390365,-0.00169280506098671,-0.0015419681344128234,-0.0015419681344128234
209,2.09,0.009394496723943779,-0.03275529050035721,0.05052587508932917,-0.0007582184265446113,-0.0009563157501812283,-0.0009563157501812283
210,2.1,-0.02395077130035769,0.00015330382530342503,-0.02987249867048121,-0.0029465036947082038,-0.001912420705209664,-0.001912420705209664
211,2.11,-0.012164565724388047,0.017296945163864964,-0.0926328793651878,-0.003423769309633522,-0.0017541358592822866,-0.0017541358592822866
212,2.12,0.0077029399245467575,0.011469579869285963,-0.07639687275939278,-0.00436692779404536,-0.0021987982702977114,-0.0021987982702977114
213,2.13,0.014134722415223969,-0.027416746549828997,-0.013119627290583906,-0.0030614970648093452,-0.0021316757418693454,-0.0021316757418693454
214,2.14,-0.0017421261322704087,-0.02465770500033473,-0.0029988409335993324,-0.0036669592332439532,-0.0010622166600775939,-0.0010622166600775939
215,2.15,-0.013288301278133286,-0.013865653624538593,-0.08171174029445553,-0.004086808104879474,0.00034579719971774604,0.00034579719971774604
216,2.16,-0.013468143267055524,0.04739015013947101,-0.14880335507459294,-0.0042807205818183045,-0.0030065975862630673,-0.0030065975862630673
217,2.17,0.008075179119360173,0.017208486919415164,-0.10963331741726473,-0.0036950702402018154,-0.003495098340368873,-0.003495098340368873
218,2.18,0.01816829702547898,-0.016624033114584387,-0.043254418982738005,-0.000270104015287248,-0.0003697869618646583,-0.0003697869618646583
219,2.19,-0.014072806266191161,-0.02113142285972915,-0.02464884292776187,-0.0011964505778320846,0.001371719032334795,0.001371719032334795
220,2.2,-0.018323830645464882,-0.0034791430895001587,-0.08514692435535819,-0.004596373471193743,-8.489330768745279e-05,-8.489330768745279e-05
221,2.21,-0.01779306581852346,0.04230022391746256,-0.13772932665670717,-0.003383483077145867,-0.0015497018803156276,-0.0015497018803156276
222,2.22,0.005878644099609634,-5.104565315954034e-05,-0.10006227739473952,-0.0012125007971584907,-0.0017647652985022645,-0.0017647652985022645
223,2.23,0.006487175141829756,-0.016717941211664776,-0.032846685105460106,-0.0014001316975799135,-0.0022174582448080326,-0.0022174582448080326
224,2.24,-0.004266982753435184,-0.030701711284684376,0.008243099386954847,-0.0035883500007685407,0.0018269614134994124,0.0018269614134994124
225,2.25,-0.005742150504191319,0.0034003843945339873,-0.07378678503605672,-0.004446699550873495,7.352738306970648e-05,7.352738306970648e-05
226,2.26,-0.015203918933535301,0.03406474985538014,-0.12219285834824076,-0.0047679597070661465,-0.0029070059473078323,-0.0029070059473078323
227,2.27,-0.002020771681448421,0.01503389187930267,-0.08220352591272827,0.0001555715761581769,-0.002905406469474881,-0.002905406469474881
228,2.28,0.004107519959355777,-0.021879964048537075,0.004699968504369462,-0.0019194077365960133,-0.002400108280649793,-0.002400108280649793
229,2.29,0.016438584666866138,-0.01913978869846912,0.01940370898510186,-0.0001264573387557507,-0.0025798531467541423,-0.0025798531467541423
230,2.3,-0.014711182526892484,0.014443522487852717,-0.03412578047157168,-0.0038118614458673844,-0.0006364718932382117,-0.0006364718932382117
231,2.31,-0.008991130293913855,0.013684410094312156,-0.08370754170333357,-0.0030165621264745864,-0.002143124961562689,-0.002143124961562689
232,2.32,0.005421041197190439,0.014262260430772836,-0.06031608121135326,-0.0008115808708985984,-0.0042202782080816926,-0.0042202782080816926
233,2.33,0.0230102702749203,-0.023665095045762363,0.03908734646930607,0.001227475800519543,-0.001364071891131598,-0.001364071891131598
234,2.34,0.0035889900512367226,-0.012313610943391557,0.06677234914728214,-0.00020461361178514343,-0.0038931240609148977,-0.0038931240609148977
235,2.35,-0.019767316295776403,0.0033275052566396554,0.009782831262799944,-0.002965869352645754,-0.0024013544963817747,-0.0024013544963817747
236,2.36,-0.015309858323598938,0.03406850945749722,-0.05431883496886,-0.005351025347138749,-0.0037627877544556,-0.0037627877544556
237,2.37,0.008686829817982286,0.014240675948149553,-0.015685912463410792,-0.003013916121245414,-0.00117726883038901,-0.00117726883038901
238,2.38,0.020570412323311547,-0.01592419106910802,0.07042529280716897,-0.0033479017907297407,-0.00026202603622251143,-0.00026202603622251143
239,2.39,-0.006292248108016776,-0.011573267171316586,0.0977210224063276,-0.0022301487538064933,-0.0018750846289244665,-0.0018750846289244665
240,2.4,-0.0018746082588726948,-0.0035826059410022128,0.030891011718105404,-0.0020748073345538327,-0.0020981160069064447,-0.0020981160069064447
241,2.41,-0.010934834372489708,0.034745862975273115,-0.012871809942808295,-0.003035768847344025,-0.0026849364859402487,-0.0026849364859402487
242,2.42,0.017782485239928408,0.004382569354387667,0.009167423461015733,-0.0005961627769096074,-0.0016299140713127035,-0.0016299140713127035
243,2.43,0.01621794830034474,0.0014471645683814763,0.08779879331633962,0.0001431893688546905,-0.004625976734213714,-0.004625976734213714
244,2.44,-0.0005623774944272276,-0.03333062680777011,0.11753864432959434,-0.0012345262301768482,-0.002951503467787369,-0.002951503467787369
245,2.45,-0.01745448807935659,-0.006993367934568889,0.03720522507141043,-0.0035464382934524124,-0.0005655011746140932,-0.0005655011746140932
246,2.46,-0.020884951746088225,0.03240460598544383,-0.010057576042998652,-0.002439992371835011,-0.0023557152982170712,-0.0023557152982170712
247,2.47,0.012691066315743443,0.012881586582323492,0.017450680701858366,-0.0003118292081559459,-0.002185054095753902,-0.002185054095753902
248,2.48,0.009399408987882989,-0.025493002628292592,0.0928318603787183,-0.0016457991255650318,-0.0010876256784102146,-0.0010876256784102146
249,2.49,-0.0071062799152748785,-0.03316188913467633,0.10303905403931912,-0.001896515114733787,-0.0032223874217139656,-0.0032223874217139656
250,2.5,-0.01648245248263413,0.002539304680961786,0.03384103001878373,-0.0037071558365016416,-0.0026841053951426213,-0.0026841053951426213
251,2.51,0.00785252321208699,0.007395808455649711,-0.009522297133242888,-0.004017942395549807,-0.0012441820104635538,-0.0012441820104635538
252,2.52,0.01392462395204049,0.010028154526517027,-0.001630012558667418,-0.0023382171206988767,-0.0015328838829712867,-0.0015328838829712867
253,2.53,0.010236902468505588,-0.023143201347318135,0.08026016042352391,-0.001906398037035934,-0.0010372338339647424,-0.0010372338339647424
254,2.54,0.0003852579701033093,-0.009735976966432539,0.07533335423714121,-0.0012681249078599394,-0.0021953647378382788,-0.0021953647378382788
255,2.55,-0.012667771461092759,0.014227545260068976,-1.7651306929458016e-05,-0.0032112299218653713,-0.0008665939286058284,-0.0008665939286058284
256,2.56,-0.004111552348422302,0.02802268077662652,-0.04608596717728253,-0.0037066362249360907,-0.001748167247479892,-0.001748167247479892
257,2.57,0.012654315602853558,-0.005218110894198435,-0.021666667652797893,-0.003982696838131943,-0.003363826257633211,-0.003363826257633211
258,2.58,0.023213817827871037,-0.03114914076165983,0.05619396028390729,-0.0026992034634598728,-0.003085270183895229,-0.003085270183895229
259,2.59,0.010230037935623777,-0.008766131900878939,0.051004759174221814,-0.00440867588698167,-0.00233697190836797,-0.00233697190836797
260,2.6,-0.001913196135817639,-0.0006220262743947963,-0.025194135280373377,-0.003048842268146565,-0.001912966099599884,-0.001912966099599884
261,2.61,-0.007742145110751285,0.032159416609962674,-0.08709485909731848,-0.002345424127407193,-0.0019535125429328685,-0.0019535125429328685
262,2.62,-0.003768260761180048,0.005270977481316804,-0.050012338396827116,-0.002410360004899869,-0.001319151924919125,-0.001319151924919125
263,2.63,0.012584041449921823,-0.013894571543261442,0.013095180899549863,-0.002980952680666799,-0.0018081878161871614,-0.0018081878161871614
264,2.64,0.004127581887547032,-0.018168958004807972,0.05564707615801717,-0.0019277389593324434,-0.001413380002186509,-0.001413380002186509
265,2.65,-0.013037078472947146,0.00371731991066323,-0.03649290524160338,-0.003317103348071875,-0.000749658626722954,-0.000749658626722954
266,2.66,-0.018962218602337908,0.03659717107860516,-0.0921798222248841,-0.0033508203107364388,-0.0016672409186828186,-0.0016672409186828186
267,2.67,-0.000858859210535262,-0.0009912888676923037,-0.06206821281809287,-0.0034869889784604788,-0.0031189312214983398,-0.0031189312214983398
268,2.68,0.012530239575195709,-0.006275902762423839,0.019200517907075172,-0.0027616965831266825,-0.003593804800687235,-0.003593804800687235
269,2.69,0.003562907223633383,-0.02219915810705502,0.04027223082988079,-0.0022583394997487466,0.0001317121922871075,0.0001317121922871075
270,2.7,-0.014107938785123033,0.0018436411534056593,-0.02963013354351497,-0.003549086861312389,-0.0005174551042728127,-0.0005174551042728127
271,2.71,-0.007234714760226869,0.01047595800460932,-0.06483524062813362,-0.002774313478954573,-0.001204986284557307,-0.001204986284557307
272,2.72,0.00023309306398617332,0.01897476063050717,-0.0953615922250739,-0.0011233279887855024,-0.002381519313093046,-0.002381519313093046
273,2.73,0.009118911599433994,-0.0087090780074856,0.004808620870151811,-0.0022322046149685164,-0.0006180881854191124,-0.0006180881854191124
274,2.74,-0.001705568974407953,-0.014134465853755654,0.009392867155209567,-0.002885743491936193,-0.0020592272857963578,-0.0020592272857963578
275,2.75,-0.016347902151265307,-0.00023408044562321303,-0.03186866182426301,-0.003776931595413815,-0.0017664871350139399,-0.0017664871350139399
276,2.76,-0.009698925457655817,0.012729330123263157,-0.0840904358172613,-0.005687628943331419,-0.001864853403759972,-0.001864853403759972
277,2.77,0.008470054773969938,0.012248415282947468,-0.0472714669880767,-0.003906421671937884,-0.00024198495783975165,-0.00024198495783975165
278,2.78,0.019008818396485085,-0.0198952880851768,0.05952385712756999,-0.0008789650868294816,-0.000789530829952925,-0.000789530829952925
279,2.79,-0.005790519579050617,-0.011880738880995459,0.05643493793712943,-0.0015818884459308747,-0.003528258888447868,-0.003528258888447868
280,2.8,-0.012774498178139228,0.0008296487102923186,-0.003373922032409965,-0.004256758038495842,-0.0004917363650289466,-0.0004917363650289466
281,2.81,-0.0021575982435542668,0.03036637409827527,-0.06677305589153507,-0.0049397119188292725,-0.003149374823188244,-0.003149374823188244
282,2.82,-0.0032833063624331743,0.0013492687932357163,-0.03921225394818903,-0.003922494117723288,-0.002636635189272682,-0.002636635189272682
283,2.83,0.013355524830606931,-0.017770482922086515,0.04699276053801841,-0.0017328665958278651,-0.001612992689789834,-0.001612992689789834
284,2.84,0.003748512588350885,-0.012503604942676036,0.063785277623091,-0.0035814382227084053,-0.0033632724238965407,-0.0033632724238965407
285,2.85,0.0002638163603041477,-0.003930672567901503,-0.005868703856428528,-0.0041300760876105975,-0.0009444793501176006,-0.0009444793501176006
286,2.86,-0.009006791747037775,0.02943956487803834,-0.05093039726900355,-0.004194933154037505,-0.00039928925702175457,-0.00039928925702175457
287,2.87,0.008014021876345598,-0.004225419646884936,-0.03536165634610527,-0.0025730454395174085,-0.0020900958411828718,-0.0020900958411828718
288,2.88,0.011764895236269689,-0.006985301277066214,0.04889499177542049,-0.0026404735573426078,-0.0019971544508570545,-0.0019971544508570545
289,2.89,-0.007572903339360138,-0.014638162331570467,0.05222348943737346,-0.0021840014984225555,-0.00017928678723516165,-0.00017928678723516165
290,2.9,-0.02139058434657087,0.022613141886050375,-0.015652746561741277,-0.002221502932327708,0.00021014059361618823,0.00021014059361618823
291,2.91,-0.006883601745304944,0.020751375892911896,-0.049729006449727386,-0.002746005307244164,-0.0018324695475760476,-0.0018324695475760476
292,2.92,-0.0030430569205254516,-0.002989649334120619,-0.019992054086406048,-0.002314359865614931,-0.0018012063027667907,-0.0018012063027667907
293,2.93,0.0032095789246939658,-0.022468248871843885,0.06699954126515724,-0.000925525911601332,-0.0021260114189777754,-0.0021260114189777754
294,2.94,0.017858748378237237,-0.0170972520821672,0.07112405963897714,-0.004262944536280038,-0.0010063945483913858,-0.0010063945483913858
295,2.95,-0.0033188075168505606,0.01990793097621773,0.0007692919757135153,-0.004790562586985643,-0.0013600087514213626,-0.0013600087514213626
296,2.96,-0.012900490253278891,0.011083625838368546,-0.0399837799136027,-0.0046894811139845324,-0.0023918130801500468,-0.0023918130801500468
297,2.97,0.008496148625439048,-0.004665778840561395,-0.030503255560890376,-0.0023075875694666056,-0.0049339124684252824,-0.0049339124684252824
298,2.98,0.026240649255476648,-0.03152497986309116,0.05803791557106416,-0.00274342364448589,-0.0029267394049912,-0.0029267394049912
299,2.99,0.006732658164921613,-0.0040708003876668165,0.07712228304190065,-0.0036609692920297303,-0.001898430247491016,-0.001898430247491016
300,3.0,-0.014577758503517363,-0.0006910598454494795,0.014733629494846735,-0.003268681715024148,-0.0022483125530709785,-0.0022483125530709785
301,3.01,-0.02026147886138587,0.01490481309153579,-0.05091167750150315,-0.0028819355544161553,-0.002697130823514597,-0.002697130823514597
302,3.02,0.011227941572155089,-0.00022187828032856842,-0.024131393423218087,-0.0026737315421143325,-0.0008218820909280245,-0.0008218820909280245
303,3.03,0.021783109676809895,-0.011482025387179287,0.05513578789163925,-0.0021482079969343754,0.00021675880984305343,0.00021675880984305343
304,3.04,0.001968635716793751,-0.005235623805446038,0.05334303304434737,-0.0034447814910811858,-0.0012248699434290464,-0.0012248699434290464
305,3.05,-0.01664621993636408,0.008032784565551511,0.01096332179152968,-0.002464028035156264,-0.0023642846671939385,-0.0023642846671939385
306,3.06,-0.015308490887706699,0.021817483935692467,-0.04549362231769808,-0.002581195727034185,-0.0014043988999792936,-0.0014043988999792936
307,3.07,0.00802718954435473,-0.001870179203093824,-0.025318885919320425,-0.003438264441163662,-0.003320045633719448,-0.003320045633719448
308,3.08,0.013045884403810677,-0.00023509965408530752,0.046022322504474376,-0.0014277531285635911,-0.0014204786636445744,-0.0014204786636445744
309,3.09,0.002621300911237072,-0.005680757651800032,0.0797529324032074,-0.0039832084697840435,-0.0017835391150838765,-0.0017835391150838765
310,3.1,-0.01863424432132688,0.012119143438064564,0.001801590926135039,-0.002908638398127004,-0.0024614238029717897,-0.0024614238029717897
311,3.11,-0.01183499337573273,0.019909395331358923,-0.05653893769927674,-0.003595080870586742,-0.0028011618047545307,-0.0028011618047545307
312,3.12,0.006951275106241149,-0.010304976885319101,-0.03799407060008165,-0.0023679062564409678,-0.002648551561026709,-0.002648551561026709
313,3.13,0.02205196620276174,-0.025878306515890414,0.054466545799505,-0.0010290422670204704,-0.0033703123797065586,-0.0033703123797065586
314,3.14,0.01697115802279172,-0.019996352047841448,0.055197020852234276,-0.001724615910643666,-0.0018896809070179231,-0.0018896809070179231
315,3.15,-0.009355166133505961,0.016676448633808526,-0.013592547984871316,-0.00359684084958566,-0.0014605562993716572,-0.0014605562993716572
316,3.16,-0.012586025670481874,0.010859106416803358,-0.06277329935641023,-0.0029916179473547517,0.0009240250601206063,0.0009240250601206063
317,3.17,-0.013044853270919811,0.0071492600759773105,-0.042721597236838445,-0.001162690732836491,-0.0008207790243798071,-0.0008207790243798071
318,3.18,0.01013280005058421,-0.03466613067736306,0.045645584247373756,-0.0049685970492099685,-0.0036190854430681947,-0.0036190854430681947
319,3.19,0.011413428656959771,0.0019125453153736567,0.039132917880142254,-0.003122186226350717,-0.0011627230436913074,-0.0011627230436913074
320,3.2,-0.009877263591878228,0.019553789727587378,-0.02982181331859219,-0.003327004781755228,-0.0009487598162998684,-0.0009487598162998684
321,3.21,-0.01901182911007348,0.02301837129507512,-0.08671580224178226,-0.0025338228063499987,-0.003881024835208968,-0.003881024835208968
322,3.22,0.007152457138817073,-0.01953131365617972,-0.0642898901442783,-0.0018766965671709415,-0.001492990271621615,-0.001492990271621615
323,3.23,0.02381876064301139,-0.030744806091961875,0.020578016650572677,-0.0021221012190772125,-0.002984216226269813,-0.002984216226269813
324,3.24,0.014702239160335149,0.011991586047275243,0.03436090616615559,-0.0025048767786469963,-0.0020996237186038133,-0.0020996237186038133
325,3.25,-0.022169480771245916,0.02389669461812707,-0.021136558358923,-0.0018517421990198527,-0.0011970732412843752,-0.0011970732412843752
326,3.26,-0.022325898869312286,0.018511609677990423,-0.07156832447215886,-0.004102310968824822,-0.0034036730066583907,-0.0034036730066583907
327,3.27,0.0036744973113404106,-0.024649992805869582,-0.0342042396401076,-0.0017640269515823298,-0.0012897936911516828,-0.0012897936911516828
328,3.28,0.024753304872677174,-0.022672788394801066,0.038474983126145126,-0.0007804547456088973,-0.0038277056524499533,-0.0038277056524499533
329,3.29,0.009564478005310401,0.00014119104432083057,0.047690470186748934,-0.0029551277878862698,-0.00271248948267995,-0.00271248948267995
330,3.3,-0.01422100962791895,0.013940430527556226,0.0045958418879693645,-0.004149475819500813,-0.0016596993176336869,-0.0016596993176336869
331,3.31,-0.012130085919598152,0.025846952931912207,-0.06080969424387006,-0.0007379706320291457,-0.002536183117331973,-0.002536183117331973
332,3.32,0.006390229763018838,-0.01279734446305068,-0.03035326700715575,-0.0010549679437138447,-0.001791569932970163,-0.001791569932970163
333,3.33,0.017324256869376203,-0.008832015493743128,0.052895784207928405,-0.002405880049980133,7.589435236877239e-05,7.589435236877239e-05
334,3.34,0.0036854456735426824,-0.010242580726125947,0.0578735911516525,-0.0030274582031606127,-0.001149859032246749,-0.001149859032246749
335,3.35,-0.01587505391771127,0.025729992721020542,-0.008427455059510262,-0.00526148279100269,-0.0022281382128884566,-0.0022281382128884566
336,3.36,-0.012120950229511929,0.009557251917110354,-0.04686135627432375,-0.004824871926206867,-0.001207154493066517,-0.001207154493066517
337,3.37,-0.006255150000196875,-0.003766412160009263,-0.0366061716871228,-0.0025578680373252462,-0.0018954083311538664,-0.0018954083311538664
338,3.38,0.015872337788839987,-0.030219904236729506,0.04542050949549771,-0.0007433364161443536,-0.003302910163516843,-0.003302910163516843
339,3.39,0.002269681815011978,0.0008286244080553044,0.044518586379064286,-0.002535875061241893,-0.0014847791017543574,-0.0014847791017543574
340,3.4,-0.017288369983917078,0.03215644500801752,-0.01198610999323724,-0.00472648839729359,0.00019612152821718115,0.00019612152821718115
341,3.41,-0.01296594326150942,0.023359866580058546,-0.05669439046620456,-0.0040438506611358855,0.0008353618337694403,0.0008353618337694403
342,3.42,-0.004060263935896469,0.0013215980820979398,-0.040323513517616774,-0.0037920145298395843,-0.0017532734143622976,-0.0017532734143622976
343,3.43,0.005770897465738053,-0.04045012458089986,0.048550436279862275,-0.004172631378332542,-0.0035228668286169814,-0.0035228668286169814
344,3.44,0.004028615232869593,-0.005700089621671907,0.06447339319283257,-0.0020763848525174817,-0.0007201063623694477,-0.0007201063623694477
345,3.45,-0.0012036310105635927,0.01742686955144915,-0.0005145584631468213,-0.0008325680059193554,-0.0003827274502659946,-0.0003827274502659946
346,3.46,-0.00944607872377087,0.031349398049322505,-0.04821052412888032,-0.004308358320223535,5.794100449441671e-05,5.794100449441671e-05
347,3.47,0.008865221284907647,-0.02879397042928497,-0.02042481799437914,-0.00098705509208279,-0.0031507538594749557,-0.0031507538594749557
348,3.48,0.015980738280664486,-0.03682877512669668,0.03689962919764559,-0.0020365358454859745,-0.002715513710236457,-0.002715513710236457
349,3.49,0.007245061031096064,0.009941600262078297,0.06560685758059442,-0.0041466768054197745,-0.0012090114413855426,-0.0012090114413855426
350,3.5,0.00559502422285834,0.014679192211443249,-0.015265395223444406,-0.005994841713959365,-0.0017877220437475328,-0.0017877220437475328
351,3.51,-0.011228256634064657,0.02182777069272422,-0.042512689670641604,-0.0018051083631274941,-0.002657116790348957,-0.002657116790348957
352,3.52,-0.0067943306716718825,-0.02780581751186071,-0.011209497274644941,-0.0015383380093359168,-0.0007812985936887411,-0.0007812985936887411
353,3.53,0.007023405921816821,-0.02719724871357297,0.054331373587137397,-0.0007709421475719599,-0.0018845157851327132,-0.0018845157851327132
354,3.54,0.00257690773948502,-0.011198862086501234,0.0590639130557057,-0.004335557069365347,-0.0025502351870880747,-0.0025502351870880747
355,3.55,-0.006421423927607661,0.02508129565663125,-0.008012363033611327,-0.004783701256836297,-0.002268453805120788,-0.002268453805120788
356,3.56,-0.01158735722384008,0.00591560089113489,-0.05826160253536293,-0.002993602098692377,-0.0008081663428513563,-0.0008081663428513563
357,3.57,0.002906664748881891,-0.026110026309064706,-0.01657608147838534,-0.0004934982956893131,-0.0024152625498558393,-0.0024152625498558393
358,3.58,0.015102030248932152,-0.012201128573880763,0.05468039125948841,-0.0021610759087146523,-0.0003455963786558471,-0.0003455963786558471
359,3.59,0.009863443118346655,0.012632166238494717,0.058980801879191545,-0.0035638683837919687,-2.149160385506079e-05,-2.149160385506079e-05
360,3.6,-0.010835271071833798,0.0386925294058533,-0.012149941517324948,-0.004872086881791241,-0.0018576786621456824,-0.0018576786621456824
361,3.61,-0.0162889064279916,-0.00036165161381911115,-0.05888754422496707,-0.002289521718257019,-0.002720137316741125,-0.002720137316741125
362,3.62,-0.004391549560780609,-0.0046675520553948295,-0.026811036516863812,-0.0019998957359645114,-0.00022699012129306256,-0.00022699012129306256
363,3.63,0.02483308124518249,-0.03848775168174883,0.03977209802864289,-0.0035555865081587797,-0.002367981916905983,-0.002367981916905983
364,3.64,0.013440340194185059,0.008387022402794944,0.04322719655425518,-0.0018556148855254995,-0.002427057205382388,-0.002427057205382388
365,3.65,-0.009583104364580783,0.02216137448214298,-0.009398768051612872,-0.004244940932512042,-0.0018518285549314949,-0.0018518285549314949
366,3.66,-0.016610647491023565,0.0317351986784076,-0.05863547197276418,-0.002092208054523132,-0.00046544649410291467,-0.00046544649410291467
367,3.67,0.00022335025353114896,-0.004835483365659735,-0.02993474037753433,-0.001937731594245547,-0.0009011933335312789,-0.0009011933335312789
368,3.68,0.02492735241157098,-0.032500520972010366,0.039524816773242974,-0.0035752326517809506,-0.0018712888455900078,-0.0018712888455900078
369,3.69,-0.0015450457732181719,0.00449976249636944,0.060837600014763314,-0.005933312009482823,-0.0027632766416855023,-0.0027632766416855023
370,3.7,0.00039817052221963536,0.016365576141079814,-0.022703608084469667,-0.004111413011397885,-0.0017334313971618706,-0.0017334313971618706
371,3.71,-0.0037929245983881,0.046328246306954854,-0.06987338616752983,-0.002029683428595868,-0.0004469124345279498,-0.0004469124345279498
372,3.72,0.005931428055915494,-0.013040298000265993,-0.044877319114986006,-0.0007534421862472997,-0.0016351116727865306,-0.0016351116727865306
373,3.73,0.004672743840995822,-0.02813114159525627,0.03063759572849309,-0.002034929369951841,-0.003059834719296096,-0.003059834719296096
374,3.74,0.0006517077020569218,-0.020767742783830784,0.0542626256343384,-0.004605779216355176,-0.0007239937516226733,-0.0007239937516226733
375,3.75,-0.011987108941995783,0.02309901524064485,-0.011367819301201485,-0.0036693791231577296,-0.0026521194809530995,-0.0026521194809530995
376,3.76,-0.018498733162164868,0.026149333058185793,-0.053951840129812745,-0.002917141769615905,-0.0024760237764876684,-0.0024760237764876684
377,3.77,0.0033643876142143182,-0.019307840105722934,-0.03526408094531204,0.00133179645126718,-0.002553002690655667,-0.002553002690655667
378,3.78,0.009726029518124627,-0.023369131415318555,0.04095844361846119,-0.002921743665742849,-0.003424520620683697,-0.003424520620683697
379,3.79,0.005043500356659578,-0.008850399215045443,0.04845860547339667,-0.005948065913579393,-0.0030930517694538018,-0.0030930517694538018
380,3.8,-0.01598881561736721,0.034471668373779886,-0.0056174715006590825,-0.004024166925942574,-0.0007889644703467409,-0.0007889644703467409
381,3.81,-0.010291604652534186,0.0035330884097213733,-0.0624577712335804,-0.0016878927355577545,-0.0023734571890001925,-0.0023734571890001925
382,3.82,0.002955154233706266,-0.029566491957129355,-0.0415394032479174,-0.003001928653179444,-0.0016174453148579257,-0.0016174453148579257
383,3.83,0.008501366293943971,-0.04780366669384277,0.033654167075947504,-0.003301310166445025,-0.0022583343587362515,-0.0022583343587362515
384,3.84,0.005174895297905961,0.005968242572316075,0.04164332578564326,-0.005625794717550505,-0.00279288715027734,-0.00279288715027734
385,3.85,-0.009623244096581437,0.046881353949676734,-0.01825423350832458,-0.0049862726325899396,-0.0019476248914564805,-0.0019476248914564805
386,3.86,-0.019024391310970765,0.036950223736897186,-0.06801780812022629,-0.005266272220107141,-0.0021581039973901494,-0.0021581039973901494
387,3.87,-0.005853095114984879,-0.01881069343212889,-0.017553381515042144,-0.0022266855294478024,-0.0027917664482849623,-0.0027917664482849623
388,3.88,0.009732895093913903,-0.04532845588075156,0.03441146946725366,-0.0018573379176015183,-0.0013488245667922995,-0.0013488245667922995
389,3.89,0.0006471077123242283,0.022365837185153812,0.05022804645697009,-0.003985201682459968,-0.00170941763393301,-0.00170941763393301
390,3.9,-0.007409299226472221,0.023819176270133177,-0.012226144612227732,-0.003940350730857966,-0.0012405489779295509,-0.0012405489779295509
391,3.91,-0.00983391778548515,0.04659704443356385,-0.035894430076613595,-0.0038635889868332295,-0.0012601261700250618,-0.0012601261700250618
392,3.92,0.025714952636329624,-0.02654193515433491,0.009264596650079787,-0.0041863625270072095,-0.0013577779427400875,-0.0013577779427400875
393,3.93,0.03701409174108148,-0.03532467134796635,0.05901717406700278,-0.003930143644131891,-0.0023292787598747067,-0.0023292787598747067
394,3.94,0.012283474217633667,-0.026374141894243246,0.06299902170921096,-0.005982544564813689,-0.0015830001423261248,-0.0015830001423261248
395,3.95,-0.013993194429960772,0.030817659409906138,-0.036703291768189206,-0.004177944339565712,-0.0013419631186839262,-0.0013419631186839262
396,3.96,-0.009335069117978552,0.04303798761452145,-0.05960484433991776,-0.0028221498030428422,-0.0010789566113267176,-0.0010789566113267176
397,3.97,0.012476466840356125,-0.028822827515170322,-0.020987623079165657,-0.0011974557479071464,-0.0026941988754312684,-0.0026941988754312684
398,3.98,0.009162828853976313,-0.04374470362564254,0.07459119684832935,-0.001690817554791947,-0.0017628342671342195,-0.0017628342671342195
399,3.99,0.0009946646284250986,-0.03951029112190058,0.06596800015229597,-0.004307686179841799,0.00047981548132653036,0.00047981548132653036
400,4.0,-0.019368279123356823,0.025248006931736292,-0.0260359484958851,-0.003372778562539013,-0.001138684212120706,-0.001138684212120706
401,4.01,-0.0019013427467133707,0.021608439798161266,-0.07194238627956906,-0.0014054972397235838,0.0006858064716619741,0.0006858064716619741
402,4.02,0.011261011572186029,-0.01931194335498409,-0.0149828243702016,-0.0008462986999010736,-0.0021630529955397877,-0.0021630529955397877
403,4.03,-0.0036484425211335907,-0.06249641507280326,0.06693710629938977,-0.0016146142908093901,-0.0014448467418628234,-0.0014448467418628234
404,4.04,-0.006496419531649273,-0.029235017104873282,0.0774909247181724,-0.0055021305300384715,-0.0015209144813596595,-0.0015209144813596595
405,4.05,-0.014813910860834853,0.04835365175051259,-0.020163468512086814,-0.0067340791548802644,-0.0037041700228108367,-0.0037041700228108367
406,4.06,-0.00525896300536402,0.02280592322342219,-0.08572779854094012,-0.005354661075710991,-0.004026860151266081,-0.004026860151266081
407,4.07,-0.027580172224290246,-0.018074422426645233,-0.03214687593525202,-0.0015151614967965164,-0.002205990524472375,-0.002205990524472375
408,4.08,0.005003061664101862,-0.06040116736941338,0.05728045425939283,-0.0031295340242867265,-0.0025898617923838826,-0.0025898617923838826
409,4.09,0.004913360543576996,0.022651584609849944,0.08460867541903346,-0.005884037921045791,-0.0017957805744917526,-0.0017957805744917526
410,4.1,0.002320557065519548,0.041818116936962454,-0.008574164984068999,-0.00517158987343997,-0.002365542413950413,-0.002365542413950413
411,4.11,-0.009276307531779717,0.06003934284422592,-0.06631679298459217,-0.004468652321779192,-0.0006452221078080764,-0.0006452221078080764
412,4.12,-0.0005218905704259475,-0.012280298864801628,-0.03889464296153949,-0.004205347991271115,-0.002555166486606172,-0.002555166486606172
413,4.13,0.0007792232906477532,-0.019624431651171007,0.032093043834954246,-0.00597953590892861,-0.0017468284609051176,-0.0017468284609051176
414,4.14,0.0014575866549338442,0.025954601218727717,0.05705033159434133,-0.006753408281607737,-0.0009823317067576168,-0.0009823317067576168
415,4.15,0.006679172105351303,0.0634729638741259,-0.040308877289138005,-0.00506041782374478,-0.0001283632963308975,-0.0001283632963308975
416,4.16,-0.006013784880787814,0.08284539842823575,-0.0772837726901245,-0.004502289636745396,-0.0020404918659141604,-0.0020404918659141604
417,4.17,-0.0004544035630240483,-0.011722923564223001,-0.05305235836878783,-0.004460437115265714,-0.00160720773739365,-0.00160720773739365
418,4.18,0.006170988738311923,-0.01282508871595493,0.02957127180857517,-0.004383476775467945,-0.0015372848151276482,-0.0015372848151276482
419,4.19,0.0175021718366918,-0.005991989611946904,0.02632200752111695,-0.005704848814807829,0.00010824661989029474,0.00010824661989029474
420,4.2,-0.0023126174748297713,0.058468482771985256,-0.03551199096940198,-0.0052044175422801655,-0.001079633846579333,-0.001079633846579333
421,4.21,-0.0098415574536322,0.03646413670329124,-0.07074199435426046,-0.001106700645110877,-0.0002379243941022193,-0.0002379243941022193
422,4.22,-0.01434522293802989,-3.225651598181764e-05,-0.05208714091338526,-0.0004851181761038002,0.0008049198086100537,0.0008049198086100537
423,4.23,-0.004674395221584629,-0.021430837894722016,0.03503604654472152,-0.0018182221220521305,-0.0002685333318547337,-0.0002685333318547337
424,4.24,0.011874646953520784,-0.030150454469372284,0.021761075145468906,-0.004460406639800926,0.0013758454370719313,0.0013758454370719313
425,4.25,0.007885254749081977,0.013811267234992416,-0.011101266862755976,-0.005098215940048022,0.0016636388274109508,0.0016636388274109508
426,4.26,0.02004056177533938,-0.02155734315322913,-0.023692475485077,-0.003142675790213427,0.002253168263888666,0.002253168263888666
427,4.27,0.024062019866665323,-0.04925695482467095,0.029554500641846733,-0.0004821934922149508,0.0005107792789000845,0.0005107792789000845
428,4.28,0.02875388879185848,-0.09596598307872539,0.09417718425721128,-0.002045560812381232,-0.00030379600765564663,-0.00030379600765564663
429,4.29,0.007042211477189352,-0.039718619577415556,0.07954977534649876,-0.0034838436288572605,0.0016728366017591438,0.0016728366017591438
430,4.3,0.0007656645091053283,-0.009201206858921573,0.001157770659508093,-0.00470536936938727,0.00142069252862255,0.00142069252862255
431,4.31,0.011256044539271629,0.012515434085934692,-0.026524309678666827,-0.0036932320831351744,0.0007676980648865336,0.0007676980648865336
432,4.32,0.01263221571774576,-0.04522676228906841,0.02615676535632607,-0.002560097287128897,-0.0021803164138669198,-0.0021803164138669198
433,4.33,0.02472560834888026,-0.08306396418760031,0.1136988451665856,-0.0026805216338587788,-0.002462819061061381,-0.002462819061061381
434,4.34,0.0020677773672295972,-0.0393245086158497,0.0818363640498318,-0.0016995227319625214,-0.003022799889356862,-0.003022799889356862
435,4.35,-0.016183468378412426,0.010421096274311255,-0.02194533708716278,-0.0034513608322962485,-0.0014353751000020756,-0.0014353751000020756
436,4.36,-0.010722537769824717,0.05002031115754721,-0.07427374775811522,0.00020276128523977557,-0.0015684984573981994,-0.0015684984573981994
437,4.37,-0.013732267806703828,-0.02010872705423189,-0.030563936101821117,-0.00016350325593863607,-0.0013140505920701238,-0.0013140505920701238
438,4.38,-0.02319201960455685,-0.04363119879469771,0.051005701980431466,-0.0015706658686564126,-0.00028883030540994414,-0.00028883030540994414
439,4.39,-0.01397113946606904,-0.02068870003836446,0.061271706608167296,-0.0008212967479020348,-0.0023127874737786307,-0.0023127874737786307
440,4.4,-0.02251056529503595,0.05503985311096921,-0.03864960564073438,-0.002855446024650432,-0.0015528199156736265,-0.0015528199156736265
441,4.41,-0.03260559797363715,0.0711126398138005,-0.09748670031704086,-0.0013589785614244706,-0.0035279721540743,-0.0035279721540743
442,4.42,-0.028996817970154052,0.006856890005835982,-0.06938954933904229,-0.001000337920330339,-0.0031157305666880703,-0.0031157305666880703
443,4.43,-0.02721255554990361,-0.0212410795176243,0.02363974454433173,-0.002899158974172791,-0.003298531071136948,-0.003298531071136948
444,4.44,-0.013722732655928296,-0.02054422633964148,0.02869649977921232,-0.004098398140169884,-0.004117752318668318,-0.004117752318668318
445,4.45,-0.02571779175501429,0.06982845616534195,-0.04099646663292533,-0.004803555429420331,-0.0034403066791269888,-0.0034403066791269888
446,4.46,-0.017293493300835877,0.0629315788282863,-0.09483040656714042,-0.003878529819537678,-0.00299278749780986,-0.00299278749780986
447,4.47,-0.010752600799160825,0.017687405787943807,-0.07977006701359905,-0.0013204058293249175,-0.004566177126067239,-0.004566177126067239
448,4.48,-0.014564909803798959,-0.022322493267392884,0.011975607551917587,-0.002863011283983461,-0.0026863948702997914,-0.0026863948702997914
449,4.49,-0.008791568817877033,0.013618236983208513,0.017847997780322377,-0.006473844533904075,-0.004176290657660206,-0.004176290657660206
450,4.5,-0.016152872583183542,0.04561311680419145,-0.03843995279934373,-0.0074546335072883906,-0.0024425432399430985,-0.0024425432399430985
451,4.51,-0.014476464490076581,0.054567509091049245,-0.08821606628556117,-0.0061158127825958995,-0.0030300604879602896,-0.0030300604879602896
452,4.52,0.00632419988380941,0.008287334138059075,-0.03546993595048328,-0.0038005274009629353,-0.004151114090452806,-0.004151114090452806
453,4.53,0.034905056031491515,-0.04113914083630035,0.04943116121570281,-0.0039069506275526324,-0.0033236686852075696,-0.0033236686852075696
454,4.54,0.022600585185560143,0.021661041746623737,0.06379962389358301,-0.007326763604688841,-0.0023074353455299593,-0.0023074353455299593
455,4.55,0.033013652334378016,0.035876957928334154,-0.0101081870815346,-0.0069013428138569475,-0.00027496751182248065,-0.00027496751182248065
456,4.56,0.03082264353156249,0.08335663736950602,-0.049248192692703335,-0.008218272669749416,0.0008841174867298,0.0008841174867298
457,4.57,0.06287012512674514,0.0044177507590050236,-0.009890968635622999,-0.0064059654258979,-0.0021488237671875585,-0.0021488237671875585
458,4.58,0.06348174474833747,-0.02008149234370909,0.07726571166793739,-0.0054841205421852345,-0.0012145810138042305,-0.0012145810138042305
459,4.59,0.05293371168643803,0.0006586969267401831,0.08294899183165702,-0.006074104291275372,-0.0005898837745124133,-0.0005898837745124133
460,4.6,0.04151004058505476,0.047503560319452756,-0.0014824547110115494,-0.00724538164793065,-0.00031327694426674224,-0.00031327694426674224
461,4.61,0.0384522209182728,0.08771398143043159,-0.03291892500041375,-0.00716529991807969,-1.532806721606019e-05,-1.532806721606019e-05
462,4.62,0.03827580164049178,-0.010239715618874469,-0.009823125091706505,-0.005845334780765833,-0.0006765558700463293,-0.0006765558700463293
463,4.63,0.015431662320368824,-0.047067984205872763,0.0989248060173215,-0.007997571921404455,1.41994090166338e-05,1.41994090166338e-05
464,4.64,0.01459232839594438,-0.06507129299519526,0.10343636507539815,-0.00865380772931342,0.00021623985078243364,0.00021623985078243364
465,4.65,-0.004922296121325016,0.004365747563966842,0.021391472037285877,-0.008675574386268408,9.761668308128387e-05,9.761668308128387e-05
466,4.66,-0.009948405296686868,0.010488854982398849,-0.031068144624060212,-0.004767798209957117,-0.0008056557679316216,-0.0008056557679316216
467,4.67,-0.012395312433244321,-0.04577678442356837,0.010445281499274577,-0.00314621221721295,0.002127824206441132,0.002127824206441132
468,4.68,-0.01604046851638009,-0.12044930641121747,0.10906162004312983,-0.006199740557501585,0.000780422570877611,0.000780422570877611
469,4.69,-0.03686410614767453,-0.10524110422098355,0.08833607782910116,-0.004366836724665345,0.0006669491113998813,0.0006669491113998813
470,4.7,-0.04600734107521415,-0.034198114167679955,0.0301511615895438,-0.005526494629385496,0.00015321925165755977,0.00015321925165755977
471,4.71,-0.0514741901810479,-0.02709648424482565,-0.04461802738311291,-0.003323059479462609,0.0006875073345814178,0.0006875073345814178
472,4.72,-0.053930159537319396,-0.054569739146532605,-0.01943837643566269,-0.0001891764534708572,-0.0009089568900473348,-0.0009089568900473348
473,4.73,-0.037297937118604726,-0.11063979594459676,0.05611228614842282,0.00011855536603181596,0.0010850418212653293,0.0010850418212653293
474,4.74,-0.05136812504126717,-0.06454315754419111,0.048919551836638125,-0.0034253857200354245,0.000556859401196532,0.000556859401196532
475,4.75,-0.043056124723253694,-0.01752267187542409,-0.016692183017028676,-0.005462979517617329,-0.0016976897436840107,-0.0016976897436840107
476,4.76,-0.030374655331953448,0.02068899484799569,-0.08837221632745756,-0.002901681976024068,-0.00102947114911486,-0.00102947114911486
477,4.77,-0.030258400970519107,-0.022871352911805563,-0.033394294923766596,0.0006272878853317272,-4.4016289499199935e-05,-4.4016289499199935e-05
478,4.78,-0.016452570532781388,-0.05740495348754325,0.00022542202154132718,0.0014437994633015238,-0.0005010575446456985,-0.0005010575446456985
479,4.79,-0.008241925092567784,0.00047911477807361866,0.0078696018951957,-0.00017724297359406356,-7.0966304182304e-05,-7.0966304182304e-05
480,4.8,0.011471903566001886,0.04548174202444871,-0.08520960816841769,-0.0011214537396806242,-0.00026167391553101545,-0.00026167391553101545
481,4.81,-0.003354196527663794,0.09639022052675292,-0.11062094129127736,-0.0021224976059395283,-0.0006245644614650775,-0.0006245644614650775
482,4.82,0.006117931929664409,0.02876684306111741,-0.08115212380000061,0.0007941022641527098,-0.00047792844589304647,-0.00047792844589304647
483,4.83,0.017722005921150384,-0.00028814472109726236,-0.00792058104353209,0.00283589330795045,-0.003084557834375541,-0.003084557834375541
484,4.84,0.011634509807959714,0.012276068218813677,-0.002073782026029973,-0.00020809675715338004,-0.003680214557673439,-0.003680214557673439
485,4.85,-0.015938549714687535,0.0988339983801354,-0.08581781049463333,-0.0009463201942727487,-0.0034582934508830005,-0.0034582934508830005
486,4.86,0.0014347440390352541,0.10948630395731637,-0.11858404177996591,0.00049748418091759,-0.003468849742152637,-0.003468849742152637
487,4.87,0.024801724038807312,0.06321356986562046,-0.07460749969484068,-0.00017394640734072494,-0.004559473290689204,-0.004559473290689204
488,4.88,0.03743637709659463,0.01494721605535906,0.02264325910275549,0.00044356026807787323,-0.004476650889439261,-0.004476650889439261
489,4.89,0.022849300110757927,-0.004668513424434459,0.011638063422584027,0.0002546359346329468,-0.004414834066960743,-0.004414834066960743
490,4.9,0.010057845067894098,0.0537385018570158,-0.04333310841264245,-0.0004518445932813008,-0.003225305158575384,-0.003225305158575384
491,4.91,0.024604551388647797,0.049528610407896814,-0.08272719744403315,-0.001403124977716857,-0.0032913480793779807,-0.0032913480793779807
492,4.92,0.027677320246109346,0.040159817154690906,-0.03057636129051202,0.0007035252531030517,-0.0050079028069097385,-0.0050079028069097385
493,4.93,0.03418376208029263,-0.027855467346084774,0.06815456442883819,-0.0006859324918448975,-0.003833661670427876,-0.003833661670427876
494,4.94,0.01374588350383708,-0.011916314498885423,0.07277380834934882,9.24583863498486e-05,-0.004161011131743072,-0.004161011131743072
495,4.95,0.016037951966173466,0.04060166390112688,0.006997387760343164,-0.0029746380627628877,-0.004431478819979256,-0.004431478819979256
496,4.96,0.02419621640117419,0.06578600101861787,-0.03699031420928168,-0.0020457996514581423,-0.0018086379570386641,-0.0018086379570386641
497,4.97,0.011923230123283203,0.024169124974773488,0.02461829257010307,-0.0001816662840963231,-0.0027520676278282308,-0.0027520676278282308
498,4.98,0.012124598896723635,-0.04731430488338125,0.10925894898696259,0.0006258999615247872,-0.002611821112726693,-0.002611821112726693
499,4.99,-0.010061108624671912,-0.0009721402695837301,0.13821873984592073,-0.0005280125786892423,-0.002887726709304142,-0.002887726709304142
500,5.0,-0.000746380022192134,0.03740059871902967,0.0352797625639532,-0.0025372707434777285,-0.0017580521987290787,-0.0017580521987290787
501,5.01,-0.015163750660670688,0.08736332315498621,-0.008663487452484367,-0.0019533580940436493,-0.002405779176240518,-0.002405779176240518
502,5.02,0.002920046905483617,0.0029843518800181552,0.03803547709823072,-0.0007626373721216098,0.0015105059402148158,0.0015105059402148158
503,5.03,0.0037894234276225703,-0.059675540049245586,0.1114723176482027,-0.0011914383958877644,-0.001483223892441758,-0.001483223892441758
504,5.04,-0.012195097683460353,-0.04465080423527883,0.13058519962455659,-0.004685526954362932,-0.0006209233856978951,-0.0006209233856978951
505,5.05,-0.007359701205488296,0.012410630198489626,0.025073537469032823,-0.00505227741331885,-0.0024628567332318947,-0.0024628567332318947
506,5.06,0.00021476629116075688,0.0387326119344563,-0.019352452914256316,-0.003183651416240144,-0.0019711939004059134,-0.0019711939004059134
507,5.07,0.016160756178570816,-0.041866029281278506,0.00547724481183938,0.00034111211234764087,-0.0009900150676558986,-0.0009900150676558986
508,5.08,0.007251052625117022,-0.07584896343239418,0.10400258507527313,-0.003327660461024098,-0.0013471890583772956,-0.0013471890583772956
509,5.09,-7.421952401595773e-05,-0.08222254914511726,0.08123822721278995,-0.005353523493538875,-0.0017068147215406255,-0.0017068147215406255
510,5.1,-0.0008711264802851049,-0.01030465125703936,-0.0028143847636109415,-0.003853174719918789,-0.0005855914135824666,-0.0005855914135824666
511,5.11,0.009053524427131688,0.00326692281478487,-0.07039469019965883,-0.003425878090730478,-0.0009330944668224167,-0.0009330944668224167
512,5.12,0.009592427264966447,-0.04551226406843125,-0.03611777320843968,6.618745758805151e-05,-0.003936071816858978,-0.003936071816858978
513,5.13,0.016667800671898506,-0.11887107341179413,0.05296740480319519,-0.0008946898458589473,-0.002172394861698876,-0.002172394861698876
514,5.14,-0.010272088613210629,-0.0933385304630274,0.05231398040936065,-0.001910780177697138,-0.0015252635716506546,-0.0015252635716506546
515,5.15,-0.01556847356052663,-0.028938963322860924,-0.030023878689204076,-0.004707566013247975,0.0002975356997117792,0.0002975356997117792
516,5.16,-0.02040131441722952,0.003969732803884962,-0.12120817157402286,-0.0034600280959995785,-0.0005960617384248535,-0.0005960617384248535
517,5.17,-0.023186664179291744,-0.02650634931292943,-0.07577009391143422,-0.0012662233411981265,-0.0014443453670959982,-0.0014443453670959982
518,5.18,-0.00047867915037874686,-0.11482527428096403,0.0035943446137471635,0.0006404157761423585,-0.001944924717086861,-0.001944924717086861
519,5.19,-0.025530688596475875,-0.06843143931204186,0.011968940840669386,-0.0026999755570540885,-0.0001904056431221988,-0.0001904056431221988
520,5.2,-0.02842045696268237,-0.008102583067110994,-0.05442313959355966,-0.003784857463416236,-0.002860475595792178,-0.002860475595792178
521,5.21,-0.02588229711556957,0.05351734791079592,-0.1188416030529492,-0.0018070113827511878,-0.0024726109060929148,-0.0024726109060929148
522,5.22,-0.011086092194812639,-0.016492184261808054,-0.07649338039176523,-0.0021037543089378282,-0.0025520311395475837,-0.0025520311395475837
523,5.23,-0.015085543618400234,-0.06629856424501507,-0.0027106118043820904,-0.002762602789293057,-0.0033867723490548967,-0.0033867723490548967
524,5.24,-0.019991880849509584,-0.04434791823437165,0.017802940565246825,-0.0049027817651373035,-0.003372508926398916,-0.003372508926398916
525,5.25,-0.034926073713060335,0.037314177971186184,-0.06250581570719702,-0.004277724163060172,-0.0019505545629825696,-0.0019505545629825696
526,5.26,-0.01868395133981129,0.11681028913685425,-0.11124440986348029,-0.0030811717862882877,-0.0026609206583714496,-0.0026609206583714496
527,5.27,-0.010510925409990504,0.03722940078383364,-0.08047338247454433,0.0004510148847626243,-0.0028362888398386567,-0.0028362888398386567
528,5.28,-0.0036511748641141987,-0.010524834766582503,0.023902081448192745,-0.0013447171856214573,-0.00273550173953849,-0.00273550173953849
529,5.29,-0.010855441148163305,-0.01653164271838107,0.02247804434933757,-0.0034248691282329088,-0.0015203410848147554,-0.0015203410848147554
530,5.3,-0.006774929893564652,0.08665068283444802,-0.04833465214331131,-0.002517998735267212,0.0008020895804169233,0.0008020895804169233
531,5.31,0.0010812640099732672,0.1301886134790627,-0.08161926112561013,-0.00457232019365634,-0.002635444251238002,-0.002635444251238002
532,5.32,0.007583327471767822,0.0676424269459487,-0.04983987685029382,0.00010279171334306716,-0.0037627356804130242,-0.0037627356804130242
533,5.33,-0.0018036669901233399,0.010048401232258933,0.05726398301489066,-0.0018690173679492801,-0.0020522839148464167,-0.0020522839148464167
534,5.34,0.009317892315643294,0.019776175308433484,0.05991881593586735,-0.002719343452544147,-0.0025058348624317447,-0.0025058348624317447
535,5.35,0.0015419461535271153,0.09742549371953732,-0.01079144402626283,-0.005064044416146616,-0.0021560771651616428,-0.0021560771651616428
536,5.36,0.025314132417668014,0.0920556013977552,-0.05407447328890022,-0.0038941700559092384,-0.0018500792860017727,-0.0018500792860017727
537,5.37,0.02179663609036519,0.053345579304376264,-0.014466367012635817,0.00018169256674568232,-0.0030938857490538482,-0.0030938857490538482
538,5.38,0.0234439036129701,-0.02478937835455912,0.0855058629572662,-0.0005864353625264678,-0.002701087542965204,-0.002701087542965204
539,5.39,0.01721221566955933,0.008638437103486978,0.08646775223835734,-0.002336870176666153,-0.000804408797818861,-0.000804408797818861
540,5.4,0.01875121548185365,0.049166151741729724,0.024951452922587717,-0.004183895125958068,-0.001420695394930698,-0.001420695394930698
541,5.41,0.017323839072767425,0.0755892571693079,-0.026700893403800656,-0.003703448910283957,-0.0016015050335036595,-0.0016015050335036595
542,5.42,0.037748662302614505,0.005506135536602449,0.035046651409173596,-1.0530871438675477e-05,-0.0012491887367614446,-0.0012491887367614446
543,5.43,0.0338575467169028,-0.053903814713778184,0.1137339953117634,0.00013262250075714006,-0.00037984698459378084,-0.00037984698459378084
544,5.44,0.015425896040407484,-0.025910935536293988,0.1313332355648447,-0.002480194523227083,-0.0019092093902500055,-0.0019092093902500055
545,5.45,0.017203063485021177,0.013452370411454286,0.025345069814808396,-0.0036766815457620994,-0.0019767850995841157,-0.0019767850995841157
546,5.46,0.014586168684007896,0.05025516012994577,-0.02592887462837276,-0.003934606329962764,-0.0019880059153133227,-0.0019880059153133227
547,5.47,0.04063450557196753,-0.023810263824476284,0.016782022295524526,-0.001901542785463,-0.0015348025994421787,-0.0015348025994421787
548,5.48,0.0213360606534387,-0.0639343261440923,0.10750063213927291,-0.002187252958891916,-0.0024451706624468487,-0.0024451706624468487
549,5.49,0.009859446475824502,-0.06568817749563596,0.10116572222350025,-0.0036016240454725405,-0.0024386894744066736,-0.0024386894744066736
550,5.5,-0.001675345313316516,0.01637129430746643,0.011152822736619869,-0.004570053657722355,-0.00010338745829470852,-0.00010338745829470852
551,5.51,0.0027589021671403525,0.039909111265048536,-0.03438653787756738,-0.0033861386887446485,-0.0018214356579326558,-0.0018214356579326558
552,5.52,0.007666365156738339,-0.01561435931135944,-0.012182056841047423,-0.0020481941778333025,-0.0010424307901335144,-0.0010424307901335144
553,5.53,0.00413760815824471,-0.08217832299297595,0.07394900991363665,-0.0012786096824088911,-0.0017138333780560382,-0.0017138333780560382
554,5.54,-0.016280926995942142,-0.08828878374133788,0.06092599237179984,-0.0022353498888571877,-0.0016733500284609845,-0.0016733500284609845
555,5.55,-0.03328810998293561,-0.01637535912022954,-0.028914260447073917,-0.006739228873083314,4.0120673455195705e-05,4.0120673455195705e-05
556,5.56,-0.016167462452548482,0.00667804436122018,-0.09253653353819649,-0.005021658568807967,-0.0005503167842731247,-0.0005503167842731247
557,5.57,-0.013150968198457855,-0.022344598709472512,-0.06375350630347337,-0.0018890026089951354,-0.0008652128542483905,-0.0008652128542483905
558,5.58,-0.012706411550963439,-0.10261151296048424,0.029662304541676288,-0.0009503697494661098,-0.002690147981312819,-0.002690147981312819
559,5.59,-0.03668058567490458,-0.07697952848866904,0.025574117174853153,-0.0032133461221439358,-0.0001398139110679362,-0.0001398139110679362
560,5.6,-0.0465264974883563,-0.003428827374426853,-0.06070818302642256,-0.004544478402443797,-0.0009632547426187839,-0.0009632547426187839
561,5.61,-0.02398816204762791,0.04578894617215884,-0.11378402934769641,-0.005532881597566387,0.0011865574119402072,0.0011865574119402072
562,5.62,-0.015459733509382173,-0.0003778294253593134,-0.07322432519230279,-0.001436437078981335,-0.0017018588547342251,-0.0017018588547342251
563,5.63,-0.018368302474623045,-0.0727194524590278,0.007218296682725049,-0.0032771019920596056,-0.0012326156811032346,-0.0012326156811032346
564,5.64,-0.033991034709218555,-0.0508189554351033,0.03010642295103754,-0.005640045899323904,-0.0014224849092949199,-0.0014224849092949199
565,5.65,-0.016115950590708243,0.005550591169180885,-0.06250923082114987,-0.005375195094639182,-0.0026540305111555588,-0.0026540305111555588
566,5.66,-0.015578470737147515,0.07062805942764142,-0.10267548357852532,-0.004235929557352265,-0.0018525711799118856,-0.0018525711799118856
567,5.67,0.005140519841974906,-0.002928713297145759,-0.04914673903247724,-0.0010231809423032552,-0.003070899953937589,-0.003070899953937589
568,5.68,-0.004574395929739147,-0.05991327294312407,0.04087612827286407,-0.002939353371544541,-0.0025853727623153635,-0.0025853727623153635
569,5.69,-0.006787194034981843,-0.04567240431508554,0.04313188554128834,-0.0060066877173343,-0.001255990911387648,-0.001255990911387648
570,5.7,0.002286739394150512,0.020025607109626288,-0.04696355021161998,-0.006380600759956852,-0.0012237518400686318,-0.0012237518400686318
571,5.71,0.0028924245030897853,0.07248759686606143,-0.07596724276684216,-0.005913660199925478,-0.0028706842145402485,-0.0028706842145402485
572,5.72,0.025494303249056546,0.009782827442323394,-0.03993380069387959,-0.0038622064793857732,-0.0011550898307778248,-0.0011550898307778248
573,5.73,0.016887488739205474,-0.03565521310013891,0.061308837597467865,-0.003524990649060401,-0.002639981747717245,-0.002639981747717245
574,5.74,0.015511784821771754,-0.03892699135827569,0.06202330112014747,-0.005195074817182693,-0.00417060202956879,-0.00417060202956879
575,5.75,-0.0053311837126052,0.04094695658320052,-0.032033705680752984,-0.006892078453582575,-0.0034318816528567764,-0.0034318816528567764
576,5.76,0.009995641728942824,0.04951611890697356,-0.08627666900976268,-0.0062240282969422064,-0.003174466342901059,-0.003174466342901059
577,5.77,0.01964580215480108,0.020188846654496353,-0.01423501972413797,-0.0016214295892061964,-0.0022496593425363007,-0.0022496593425363007
578,5.78,0.028544970599959807,-0.030246146357527037,0.08351728353021327,-0.0020783003452787075,-0.0028056344563504127,-0.0028056344563504127
579,5.79,0.005279383259585784,-0.016585845763447998,0.07462642510944548,-0.002221564918425322,-0.0019629725031368645,-0.0019629725031368645
580,5.8,-0.001982210270098014,0.053876312948215904,0.0026197150910892836,-0.002510276883128321,0.00039471817467544746,0.00039471817467544746
581,5.81,0.00905799623234471,0.07917054585355392,-0.07143824294575889,-0.00288215884968114,0.002020549267971354,0.002020549267971354
582,5.82,0.007220078643395858,0.05497852504823322,-0.0010552392175141659,-0.002343110442475843,-0.0013024177171662304,-0.0013024177171662304
583,5.83,0.010169668480071305,-0.02117715574572887,0.08113122841969564,-0.00043094390066464333,-0.0027755430999909553,-0.0027755430999909553
584,5.84,-0.006206578680766899,-0.007301582791635557,0.08705644750824446,-0.0014528993794603868,-0.0006489167681392757,-0.0006489167681392757
585,5.85,-0.014446555552472283,0.037643595523322054,0.0018530867270207876,-0.0010949894299481539,-5.602940462927223e-05,-5.602940462927223e-05
586,5.86,-0.0065675087535957116,0.08959680687912785,-0.05608275266730173,-0.0014830547217749544,0.0006754908562422871,0.0006754908562422871
587,5.87,0.008616019391164473,0.03248814532154477,-0.0011557581887682508,-0.0022597368938817174,-0.0029244718168237763,-0.0029244718168237763
588,5.88,0.0009962437117168035,-0.029682103661039162,0.06017365408448408,-0.0019847084654380986,-0.004068243265730582,-0.004068243265730582
589,5.89,-0.013500761083713344,-0.02103350393255716,0.07362872603938607,-0.001972604184422302,-0.002705483969448967,-0.002705483969448967
590,5.9,-0.011460276149755755,0.04781378841193897,-0.01892356788111621,-0.005320976390828228,-0.0019716036500582517,-0.0019716036500582517
591,5.91,0.0020006800810915912,0.07273659690264625,-0.07080340486803416,-0.0048706373138978866,-0.0011186404572176543,-0.0011186404572176543
592,5.92,0.01719137905547757,0.0013669994734248018,-0.03895317280425808,-0.0017974594032206552,-0.0030458151055343355,-0.0030458151055343355
593,5.93,0.009771029360779787,-0.0347240654238309,0.06751548339565921,-0.001937410653042548,-0.002849628387748281,-0.002849628387748281
594,5.94,0.00908823128342188,-0.03950438834154392,0.07193266222036564,-0.003468553263701045,-0.0012201057814245787,-0.0012201057814245787
595,5.95,-0.0024936513693737446,0.034027868389464824,-0.017391622137905134,-0.005402020542886555,-0.0019125724299879352,-0.0019125724299879352
596,5.96,0.01002180798596975,0.06697542315295563,-0.04800648438271414,-0.005113487682184064,-0.0027677179276451138,-0.0027677179276451138
597,5.97,0.014684499155611243,0.01715585067735683,-0.028794973825855382,-0.0023793066824385647,-0.001513585694905947,-0.001513585694905947
598,5.98,0.003435111031776467,-0.04040581333128671,0.07567348672811468,-0.0006685577769732629,-0.0026354248954555885,-0.0026354248954555885
599,5.99,0.006118874676780588,-0.04492550740381439,0.07003585587826013,-0.00430418243751084,-0.0014882548020640936,-0.0014882548020640936
600,6.0,-0.0016396136559053156,0.013289211276277236,-0.010490921006728972,-0.005649358669280767,-0.0011207293568099887,-0.0011207293568099887
601,6.01,-0.003158905151674022,0.04076642864844965,-0.06391864143658356,-0.0042743163614678645,-0.0019422790536532375,-0.0019422790536532375
602,6.02,0.00035263700376058976,0.00018354570767054046,-0.022840530171343604,-0.002206176443284988,-0.002924450921407633,-0.002924450921407633
603,6.03,-0.0011783964988864783,-0.07816559480727667,0.039886569206413,-0.0008754827393284574,-0.000906685670462834,-0.000906685670462834
604,6.04,-0.015675985372176363,-0.059337890191456355,0.04858509338936774,-0.0015471559439137095,0.0018377709360979254,0.0018377709360979254
605,6.05,-0.016195283703830797,-0.023791018277751815,-0.02202315103624832,-0.0032059045268771377,-0.0007993271770990031,-0.0007993271770990031
606,6.06,-0.004066716180725001,0.01597280586344523,-0.08515111686824328,-0.00499090401807854,-0.003478832721063755,-0.003478832721063755
607,6.07,0.014619362798127285,-0.033940217775310734,-0.043124107788663,-0.0014748105981167556,-0.003522483906209119,-0.003522483906209119
608,6.08,0.004120538215454033,-0.07267346850486163,0.03304615693970129,1.700232143519618e-06,-0.003858018802410754,-0.003858018802410754
609,6.09,-0.011768832037930093,-0.06663926970966569,0.05138239254077249,-0.0018590211087118388,-0.0017526758448638759,-0.0017526758448638759
610,6.1,-0.025086117036678304,-0.023656697122153708,-0.03815146939862792,-0.004877933191381481,-0.0009046181524146498,-0.0009046181524146498
611,6.11,-0.008431885431372067,0.02311900883049784,-0.09224540611071767,-0.006841061570665543,-0.0017394739547619267,-0.0017394739547619267
612,6.12,0.022472199522418856,-0.022119056522300343,-0.045261943891944954,-0.002075386512066304,-0.002721848760983551,-0.002721848760983551
613,6.13,0.02101491179607103,-0.06345761531134447,0.056225027949524164,-0.0005340830991781352,-0.0009577073043235498,-0.0009577073043235498
614,6.14,-0.003807025682194388,-0.07497330766658582,0.0706613084094443,-0.0025934332664212588,-0.0009727963634714023,-0.0009727963634714023
615,6.15,-0.011199830745564845,-0.013335384518389344,-0.03368592973876494,-0.00478446025381475,-0.0004353140203264456,-0.0004353140203264456
616,6.16,-0.0033288256773089785,0.03794666090104696,-0.06778752198713041,-0.004187484787449331,-0.0007121849090811669,-0.0007121849090811669
617,6.17,0.0029993162721413252,0.01586564773601372,-0.03362824437957911,-0.003054200051127178,-0.0009975265143862117,-0.0009975265143862117
618,6.18,-0.0007435403335723546,-0.04292583753254507,0.06240967517581615,-0.0015074380047923634,-0.004312873203936025,-0.004312873203936025
619,6.19,-0.008098981833582243,-0.03962886569229814,0.06596605216150801,-0.0021523363004312575,-0.002148130217695937,-0.002148130217695937
620,6.2,-0.03108051263829295,0.03422011326274543,-0.0013577107532652087,-0.0052856064447543046,-0.0007582062579357287,-0.0007582062579357287
621,6.21,0.007849653387689351,0.05982165215657827,-0.06757471755679467,-0.0072703843304462185,-0.0035918316812856405,-0.0035918316812856405
622,6.22,0.007259360242628712,0.04682503746216675,-0.020873296594305556,-0.003690500202148338,-0.0041096527275551785,-0.0041096527275551785
623,6.23,-0.002285552863903198,-0.020343347483604064,0.0734679637591884,-0.004208490458202686,-0.0017030940708242337,-0.0017030940708242337
624,6.24,-0.020961464843401376,-0.003472989836459408,0.07231609692815115,-0.002171204299976321,-0.003247050267820327,-0.003247050267820327
625,6.25,-0.024272471976943676,0.05719432590391492,-0.01116362834784073,-0.0025352451330369315,-0.001456067111803123,-0.001456067111803123
626,6.26,-0.0033910775248155722,0.0959033693426933,-0.09443044879639942,-0.00585615377654247,-0.0017504396493133259,-0.0017504396493133259
627,6.27,0.002101671839983813,0.04458590340096948,-0.03790415327821232,-0.003393911275474123,-8.383046573803691e-05,-8.383046573803691e-05
628,6.28,-0.0035798517903717713,-0.013146367735955906,0.0399359213777319,-0.002476778062346327,-0.004316154287095176,-0.004316154287095176
629,6.29,-0.018077265475845206,0.001198915983589923,0.06306271577898104,-0.004276386558355133,-0.0004237208187522269,-0.0004237208187522269
630,6.3,-0.00720980506184697,0.04516859111878302,-0.028895077553256904,-0.0021560489016352307,0.00028559286738301,0.00028559286738301
631,6.31,0.007961475826277776,0.07714687546538734,-0.09927521591568889,-0.0023877718076849696,-0.00023180851928165166,-0.00023180851928165166
632,6.32,0.01265006676356997,0.025541320083038055,-0.05325626426778497,0.0015898591054759586,-0.0014330890531403413,-0.0014330890531403413
633,6.33,0.01603781950559532,-0.019233563590725176,0.042238356614160165,-0.001604597743913038,0.0006522708170028023,0.0006522708170028023
634,6.34,0.010366838726154019,-0.03378737037533333,0.06308287100055335,-0.00325304742827123,-0.0006188745013122937,-0.0006188745013122937
635,6.35,0.003926777010915153,0.012059817303402292,-0.010767818171517715,-0.00501156505724239,-0.00014552499879046942,-0.00014552499879046942
636,6.36,0.0064085793811117855,0.03621278936419016,-0.055626514412166296,-0.0038995534442346344,-0.0011149603942633374,-0.0011149603942633374
637,6.37,0.027004332988579485,0.009826083557954146,-0.03276555438404072,-0.0023122146269586147,-0.002475586051152849,-0.002475586051152849
638,6.38,0.03732127475877268,-0.0542780615990625,0.06808353447164552,-0.00040180231377486713,-0.0031727231435248154,-0.0031727231435248154
639,6.39,0.015119288793751651,-0.061276572727382884,0.07354886861807744,-0.002875086013904025,-0.003418243262837975,-0.003418243262837975
640,6.4,0.0016368488514529583,0.020564220053468984,0.006726126721200338,-0.0040068802718018865,-0.00019416333843419437,-0.00019416333843419437
641,6.41,0.009896342377930054,0.04098516826577632,-0.04388986616720605,-0.003479329243622009,-0.0015620743794280047,-0.0015620743794280047
642,6.42,0.025597167478432846,0.01212706250663647,-0.03060251310348296,-0.0024814737255473888,-0.0031809725035651572,-0.0031809725035651572
643,6.43,0.03457007686759056,-0.04682556855419499,0.07750631764649331,-0.0021761666356396913,-0.0030967568899133873,-0.0030967568899133873
644,6.44,0.005579660160716633,-0.0546558801550307,0.07273038864535389,-0.0018188946332495255,-0.0020006710130707423,-0.0020006710130707423
645,6.45,-0.020143697628656185,-0.004601158196662876,0.005773745195924065,-0.0014580472560956788,-0.00026493846455224936,-0.00026493846455224936
646,6.46,-0.007054472659767122,0.040307303510826425,-0.06762127298988625,-0.003376072265525825,0.00014353394743735082,0.00014353394743735082
647,6.47,0.004030967474025796,0.01061780713527526,-0.030332690681350687,-0.0009712500934777279,-0.002244855914517399,-0.002244855914517399
648,6.48,-0.005780604708785655,-0.056756356885881536,0.05392958109422621,0.00031219563410848027,-0.0013789286029120846,-0.0013789286029120846
649,6.49,-0.032517279987935195,-0.036548690367283865,0.06884774404732066,-0.0021925405590832773,-0.0008577735037558378,-0.0008577735037558378
650,6.5,-0.02801216877576209,-0.008946702104508656,-0.014330070506498298,-0.0031990794812477713,-0.0029633314834456555,-0.0029633314834456555
651,6.51,-0.018909062887487026,0.03764926969327111,-0.06453450829622769,-0.004384862688691375,-0.004425770596541238,-0.004425770596541238
652,6.52,-0.01656777597522744,-0.008656104657908734,-0.03123359344290818,-0.0016486058514662912,-0.003758470011965347,-0.003758470011965347
653,6.53,-0.006881311666339903,-0.04533502876000444,0.047340744238645885,-0.001369708262136917,-0.002456395068768783,-0.002456395068768783
654,6.54,-0.024014679395799682,-0.04760475086645174,0.06613436907883881,-0.003880036001501013,-0.002862777768953377,-0.002862777768953377
655,6.55,-0.029955889989348082,0.015488728156142939,-0.04581885590703552,-0.005739739110961103,-0.0017481180009677475,-0.0017481180009677475
656,6.56,-0.019609329008353743,0.0626319287478974,-0.08717389964268835,-0.003636447625977389,-0.0022599768651573177,-0.0022599768651573177
657,6.57,-0.0014199648715950731,0.009888916730377168,-0.043835698040661085,-0.000592710889067561,-0.0011115610045856707,-0.0011115610045856707
658,6.58,-0.012424956100644004,-0.02459096747466355,0.050055592680571866,-0.0007752688498068939,-0.0005092121526850833,-0.0005092121526850833
659,6.59,-0.007270212877208072,-0.019365145798045054,0.05454385883878225,-0.002747886918596825,0.0007592353910699844,0.0007592353910699844
660,6.6,-0.011491697203653558,0.03705126029202567,-0.017892890751815552,-0.005226163816355893,-0.0004811335996560573,-0.0004811335996560573
661,6.61,0.007410099620875102,0.033103668330840635,-0.06900491561742507,-0.003152188059950377,-0.002533382270920349,-0.002533382270920349
662,6.62,0.024272757850329618,0.01376889690190632,-0.029457968823329548,-0.003262454319068562,-0.0032617002990492985,-0.0032617002990492985
663,6.63,0.021822844419192584,-0.01998641917963959,0.06171958639361526,-0.0032710057524496213,-0.0034392997672959345,-0.0034392997672959345
664,6.64,0.02578480428656348,-0.01665220451579364,0.05042654290382691,-0.004258298322231946,-0.0012703341439039885,-0.0012703341439039885
665,6.65,0.008065158738002592,0.0017306052366748235,-0.005989553619162924,-0.004194658869627782,-0.0025612982716499678,-0.0025612982716499678
666,6.66,0.018752779631549234,0.029836174410959728,-0.06745329929427957,-0.004440843051871162,-0.0011587680813420047,-0.0011587680813420047
667,6.67,0.02302536991718438,0.020329366032999962,-0.02804746672822829,-0.0038333781779703404,-0.0018760545045619667,-0.0018760545045619667
668,6.68,0.03861599668956085,-0.032907155643002665,0.0648719963352797,-0.0005397039534739163,-0.004260207711995839,-0.004260207711995839
669,6.69,0.01758843878906053,-0.023073846483851284,0.060853689621411564,-0.0030668395680575147,-0.002012547572909374,-0.002012547572909374
670,6.7,0.014035041573444804,0.0025423569425519037,-0.007959657044433653,-0.0035993414281703523,0.0009496550843482107,0.0009496550843482107
671,6.71,-0.006475266967745457,0.04517980993093228,-0.08174452850319254,-0.0070218785908995746,-0.0016267490723223955,-0.0016267490723223955
672,6.72,0.013548267345294265,0.01583668900313407,-0.024995715654275927,-0.003895449354854,-0.002803773896684225,-0.002803773896684225
673,6.73,0.013456185938283871,-0.017223694563864016,0.04659973452670276,-0.0019691486875936365,-0.00047223788443770154,-0.00047223788443770154
674,6.74,-0.013824085239404902,-0.03076452476617161,0.06964907248947322,-0.002027404072814691,-0.0016939190989495435,-0.0016939190989495435
675,6.75,-0.03167105821330351,-0.005318230992788342,-0.024053738737372425,-0.0030719809046482784,-0.0015254854375073624,-0.0015254854375073624
676,6.76,-0.017888428858305844,0.042343079513864526,-0.08330731557512516,-0.003998992912244696,-0.001468216937151156,-0.001468216937151156
677,6.77,0.014094306003116504,0.0008817982310764128,-0.04466514267070495,-0.0017796944195523864,-0.0027710341699500023,-0.0027710341699500023
678,6.78,-0.004361910507113818,-0.03544585471662779,0.03931943356228051,-0.0016614717132482292,-0.0032815125949232503,-0.0032815125949232503
679,6.79,-0.02519104475253097,-0.055691970290604756,0.04132417690743117,-0.002490335772045902,-0.0014659192060592905,-0.0014659192060592905
680,6.8,-0.02753159063109424,-0.0012329237899044321,-0.036500426479654256,-0.005746827303032338,0.0002517331956497233,0.0002517331956497233
681,6.81,-0.014509450482095572,0.021738899172007508,-0.08200558851363149,-0.0036306929963772884,-0.001992572927571664,-0.001992572927571664
682,6.82,-0.01057161134090662,0.0032459392996264645,-0.03892248140579783,-0.003151436804671268,-0.002768093195772659,-0.002768093195772659
683,6.83,-0.00838195447765583,-0.033187804691954724,0.05889302517286233,-0.0005799248607160863,-0.0013791799376214125,-0.0013791799376214125
684,6.84,-0.015616806286459003,-0.04572695428619914,0.05831765092622308,-0.0008983203610097351,-0.0006146689885845344,-0.0006146689885845344
685,6.85,-0.012407944725537814,-0.0019105370191657804,-0.0010185866970354382,-0.003946830406009307,-0.0011973540059433453,-0.0011973540059433453
686,6.86,-0.009510873708505964,0.02618538636855111,-0.05501409950517125,-0.0024544820566900142,-0.001308137584811098,-0.001308137584811098
687,6.87,-0.006335793831016893,0.008913781300056805,-0.010641148190672757,-0.0011454035928280374,-0.0006502779526824921,-0.0006502779526824921
688,6.88,0.010457470364047268,-0.04672704410916226,0.07693481440644515,-0.004723991652984503,-0.003184678468200741,-0.003184678468200741
689,6.89,0.004271798223467648,-0.02620949495508899,0.07234754307306782,-0.003264127999132176,-0.0026460739896552237,-0.0026460739896552237
690,6.9,-0.01787156531827764,0.014062427721470122,0.012992626987898662,-0.0035845681242408353,-0.0010604580610702704,-0.0010604580610702704
691,6.91,-0.004169993139525805,0.0389103851769843,-0.05705637638069505,-0.002039270594284679,-0.0014474714739495214,-0.0014474714739495214
692,6.92,0.010724896501321891,0.011778265724978157,-0.015206653241185576,-0.0031686557384250635,-0.0012006725711507008,-0.0012006725711507008
693,6.93,0.018402270563154615,-0.020631801025388825,0.05873251863611681,-0.0007145388155613085,-0.00025307328017548463,-0.00025307328017548463
694,6.94,-0.0009022351652290209,0.004718462294184872,0.07682744541371392,-0.002470612451302445,-0.0012339140348556325,-0.0012339140348556325
695,6.95,0.00016950268662925885,0.026202359409538446,-0.006210325388719011,-0.003507747502130972,-0.0012485390474758086,-0.0012485390474758086
696,6.96,0.014403333723766041,0.05966778064736255,-0.07708576151147108,-0.003470266774778136,-0.002516135174236164,-0.002516135174236164
697,6.97,0.028742590203105694,0.03026494825825859,-0.018902494527405844,-0.004618463381301315,-0.0032203834684647065,-0.0032203834684647065
698,6.98,0.03158651980995568,0.010250678799455671,0.05574138896495224,-0.0035573183608653158,-0.002535407921642625,-0.002535407921642625
699,6.99,0.02385169117074681,0.01009633828669534,0.0597407657167182,-0.00295740291650491,-0.0019151386424002867,-0.0019151386424002867
700,7.0,0.01731255482762791,0.025891120633961765,-0.0274757585380503,-0.0031917506397194234,-0.0020043713195559707,-0.0020043713195559707
701,7.01,0.01224180473625496,0.0401069889280887,-0.06088288148371644,-0.004808526772894267,-0.001302727944828149,-0.001302727944828149
702,7.02,0.025679853389000806,0.029340563339693145,-0.04878454313168357,-0.004337168761708746,-0.00030639623629052985,-0.00030639623629052985
703,7.03,0.026633882992929615,0.00027482590468004553,0.0454007043192622,-0.0012722656900986322,-0.0011625295300419648,-0.0011625295300419648
704,7.04,-0.00253853871785404,-0.012303217131557484,0.04525150965185435,-0.004004986370521142,-0.001280172386110765,-0.001280172386110765
705,7.05,-0.023637105048805014,0.019955974582930153,-0.02465057085416275,-0.004611434320763393,-0.0008113151802346183,-0.0008113151802346183
706,7.06,-0.011269655898341642,0.035883506704041154,-0.07031176788182178,-0.003886351157378707,-0.00046165206876952567,-0.00046165206876952567
707,7.07,-0.006569653570151096,0.03345731893515616,-0.052083533870490764,-0.002490867282668121,-0.0012120335822803456,-0.0012120335822803456
708,7.08,-0.0016363463714303755,-0.019756889877807837,0.03655167253554489,-0.0028042217723353545,-0.0019729979706409255,-0.0019729979706409255
709,7.09,-0.007715152657122075,-0.032529014290914295,0.04536886025444759,-0.0039560582666237016,-0.003231244120286304,-0.003231244120286304
710,7.1,-0.0351504446193395,0.0029101227997866443,-0.009779027086180895,-0.0045922323325243725,-0.0010750027176583542,-0.0010750027176583542
711,7.11,-0.025679975370463667,0.020940406511368206,-0.07733494496434079,-0.005672632389330342,8.772996691379603e-05,8.772996691379603e-05
712,7.12,-0.013931662512286346,-0.007925097613822204,-0.04873728300944517,-0.0045968976913627535,0.00015229964675350215,0.00015229964675350215
713,7.13,-0.006609784491960863,-0.06481806210313257,0.03330889726740503,-0.003042057347805901,-0.0022054103716776232,-0.0022054103716776232
714,7.14,-0.013174845190389382,-0.06258233845130687,0.056904793571925086,-0.003912624221224327,-0.0004361956508995964,-0.0004361956508995964
715,7.15,-0.031276351170661756,-0.03251729317548639,-0.003151756233135291,-0.00565688741873435,-0.0006130924966901801,-0.0006130924966901801
716,7.16,-0.022206055199526335,0.01145934621655606,-0.057115409192722164,-0.0033305326805570237,0.0007050405077779892,0.0007050405077779892
717,7.17,-0.01260665385396897,-0.02633240117546445,-0.030362680011610077,-0.0024039297749331467,-0.0035845575213308664,-0.0035845575213308664
718,7.18,0.009971002124826212,-0.04747565552368685,0.044367066987675,-0.001628886672489859,-0.0029061077923512014,-0.0029061077923512014
719,7.19,-0.003076101900998742,-0.037054870746224766,0.0759505263770271,-0.0015312599958718412,-0.0017771729756848504,-0.0017771729756848504
720,7.2,-0.006749360276748923,-0.01756743362237943,0.0037568566159805646,-0.004560987446879677,-0.00014495917332658792,-0.00014495917332658792
721,7.21,-0.0053464573249749035,0.007709219008405734,-0.03681009345074372,-0.0032403989279026586,-0.0016005507045649195,-0.0016005507045649195
722,7.22,0.021111904899977326,-0.019000533811903298,-0.005162151070845259,-0.002900971436180892,-0.001647280488947625,-0.001647280488947625
723,7.23,0.033647104618327164,-0.031480886695039983,0.05451465810174815,-0.002146185300111049,-0.0006454004632442205,-0.0006454004632442205
724,7.24,0.033129559274891696,-0.026852453415577713,0.0660288529620926,-0.003950524550126282,-0.0016866608078680008,-0.0016866608078680008
725,7.25,0.004781879224619355,0.017469445615276104,-0.0014689479328005364,-0.004266745496692704,-0.0002561549126000619,-0.0002561549126000619
726,7.26,0.004735626173582524,0.018660877691576226,-0.043100691880442576,-0.003625086479978918,-0.0022814247267384045,-0.0022814247267384045
727,7.27,0.010804053467033652,0.011519320497843117,-0.030112390618421064,-0.0025285411618873144,-0.0007292872175361817,-0.0007292872175361817
728,7.28,0.02353061173610876,-0.021590903604013494,0.037661254650221444,-0.0033627035487171983,-0.001887970038336687,-0.001887970038336687
729,7.29,0.030521356353723335,-0.02487621621452911,0.035597532025636945,-0.0033150473829592552,-0.0007127346432176985,-0.0007127346432176985
730,7.3,-0.00035247838728644926,-0.007587386842499152,-0.025331296855362364,-0.004590240551701039,-0.0006633009842258777,-0.0006633009842258777
731,7.31,-0.014557148011207149,0.025524704288855792,-0.062394912576051405,-0.002508280614907624,5.240883324625763e-05,5.240883324625763e-05
732,7.32,0.012479884801210902,0.015026828616978788,-0.03276787196561626,-0.0034426920550916728,-0.0005318021303168442,-0.0005318021303168442
733,7.33,0.024957415310423052,-0.004833502836328187,0.0498020695544893,-0.0002921565341890752,-0.00036517376339961175,-0.00036517376339961175
734,7.34,-0.013299701754954938,0.013949777567374897,0.043022170047597175,-0.0011157107383026005,2.9267953480801508e-05,2.9267953480801508e-05
735,7.35,-0.04272168645582693,0.016628648755952692,-0.018304067536343803,-0.003404866455522096,-0.0033509169886327714,-0.0033509169886327714
736,7.36,-0.02647219739167704,0.05510001837158789,-0.08117398645273646,-0.003022194960264224,-0.0030260063197386266,-0.0030260063197386266
737,7.37,-0.006579323739671832,0.030273934404830914,-0.023669007382058387,-0.002924111145888726,-0.0010215383922754608,-0.0010215383922754608
738,7.38,0.004751610911023439,0.0068563532279791554,0.04613092985544671,-0.003702294165340704,-0.002851943891261324,-0.002851943891261324
739,7.39,-0.011064473191510318,-0.007078160066614977,0.05481124957569315,-0.002526493360437984,-0.0023410048320011588,-0.0023410048320011588
740,7.4,-0.032955858386592124,0.019493132161172974,-0.021300338236221288,-0.004455841373191136,-0.002801317125377561,-0.002801317125377561
741,7.41,-0.021508831158621206,0.047950223237891124,-0.06445573224226919,-0.005284983378635401,-0.001786623310795347,-0.001786623310795347
742,7.42,-0.005028890302169468,0.018673142028899643,-0.02860186110732779,-0.003212652139432316,-0.003521265127280537,-0.003521265127280537
743,7.43,0.005306319346917479,0.0037742619679436394,0.04244507865528173,-0.0032142633565502518,-0.0012280326793660725,-0.0012280326793660725
744,7.44,0.00039026581799524087,-0.018141935088684925,0.05351758235840429,-0.0018396095523867454,-0.002116293537820917,-0.002116293537820917
745,7.45,-0.01941224886382509,0.013229409639120476,-0.02528676938914615,-0.004002604816796322,-0.0014487659908175208,-0.0014487659908175208
746,7.46,-0.0014527367878261017,0.04363929516877306,-0.05910558900113831,-0.00363843132820574,-0.0018960304029862773,-0.0018960304029862773
747,7.47,0.009555064912774688,0.01824153203257363,-0.02477137877331688,-0.003837527839346633,-0.002793085392686545,-0.002793085392686545
748,7.48,0.023563833774470338,-0.01688120867532407,0.06525377727366541,-0.003613465784960925,-0.0035689257906370265,-0.0035689257906370265
749,7.49,0.0267648829709439,-0.011184304212162918,0.05866067222463806,-0.0034813776481595056,-0.0005419643149002468,-0.0005419643149002468
750,7.5,0.012180869765749672,0.02677631166058147,-0.011860141156752886,-0.004656007073799101,0.0006796883528234673,0.0006796883528234673
751,7.51,0.008611706889746348,0.03143419035593775,-0.06975424798731814,-0.0039363633195228535,-0.0008752294311034423,-0.0008752294311034423
752,7.52,0.020013120556068256,0.005134965446581607,-0.030934099577383273,-0.0011301875332619875,-0.0009302638012846043,-0.0009302638012846043
753,7.53,0.026293902721422138,-0.02594953251317674,0.06390538967190307,-0.0009522221076710565,0.002525823174697141,0.002525823174697141
754,7.54,0.013229119793414802,0.0006841719966981042,0.05625065654350321,-0.004578603818113535,0.0008113369818481562,0.0008113369818481562
755,7.55,0.005890355748992351,0.022784550868780513,-0.0010093646819318083,-0.0024673751185746795,-0.0012333454605777164,-0.0012333454605777164
756,7.56,0.0030452217555221673,0.027988785119908044,-0.0524891749337319,-0.0035330229071413024,-0.0029830965491854963,-0.0029830965491854963
757,7.57,0.006678143516685573,-0.015920971501547403,-0.01648447266187507,-0.00149771245164758,-0.0013027041434771865,-0.0013027041434771865
758,7.58,0.027137162907605556,-0.05233733453684933,0.06098952525645357,-0.0016009983159168298,-0.002994216794228183,-0.002994216794228183
759,7.59,0.006823648181190686,-0.027807421465271064,0.06501793494441185,-0.0020758090961089304,-0.0017306330628076255,-0.0017306330628076255
760,7.6,-0.008904933703748907,-0.007907136887056168,-0.0036199027180582252,-0.0042401880002975005,0.0009231958675341805,0.0009231958675341805
761,7.61,-0.015123634227338124,-0.005750459081822118,-0.059377698972622774,-0.002709811033388876,-0.0009798473024772102,-0.0009798473024772102
762,7.62,-0.01019175725169125,-0.03865277735962251,-0.02644665951735978,-0.00020825636127866403,-0.002426091666208007,-0.002426091666208007
763,7.63,0.005321163046707366,-0.04317742424544993,0.04606046618029057,-0.002937944678876429,-0.002977853771502896,-0.002977853771502896
764,7.64,-0.012845811812043232,-0.0350862443086022,0.05555301399369719,-0.004032210629417592,-0.0019102068543001946,-0.0019102068543001946
765,7.65,-0.04445289511759623,-0.010714345103817198,-0.02661807148199991,-0.003486877039803975,-0.0014616435586329993,-0.0014616435586329993
766,7.66,-0.036316861163887194,-0.012328830281238367,-0.05791504346964504,-0.002973186283696741,-0.0013785478106066265,-0.0013785478106066265
767,7.67,-0.014576937199726088,-0.030798708539275393,-0.03827776961339219,0.0005040553752047463,0.00015987004633364905,0.00015987004633364905
768,7.68,-0.012363334065864743,-0.04248742938467431,0.031603488291008446,-0.002386817887244609,-0.003523305986119808,-0.003523305986119808
769,7.69,-0.014092010103251961,-0.03716977642408524,0.03728688122243917,-0.005510882408406968,-0.0040672989042328115,-0.0040672989042328115
770,7.7,-0.043163514999572314,-0.002480229622983117,-0.02746348487902109,-0.0047533875648468225,-0.004074322894140115,-0.004074322894140115
771,7.71,-0.03643315681145066,0.01703146336389419,-0.060548938928438406,-0.004689376639980505,-0.0007768314588585068,-0.0007768314588585068
772,7.72,-0.013103475982907127,-0.011563714783338324,-0.03696041067692783,-0.002158162618929855,-0.004767475889679481,-0.004767475889679481
773,7.73,0.015604317767688208,-0.03326817386701782,0.04792399327673737,-0.0021266854455192245,-0.002787770230470751,-0.002787770230470751
774,7.74,0.005363427342943077,-0.0011904960110483646,0.03290494630904562,-0.0018078219568095095,-0.0007165827569291545,-0.0007165827569291545
775,7.75,-0.005560029024793233,0.02931271674151421,-0.0332564858282587,-0.005301734919718964,0.000856586468085449,0.000856586468085449
776,7.76,-0.0016649712366241035,0.05762164624060864,-0.0637530489930278,-0.005399911450480371,2.3524904538850855e-05,2.3524904538850855e-05
777,7.77,0.01700528373037615,0.01346308453768135,-0.018108369958482955,-0.004267830867558764,-0.002924680793259664,-0.002924680793259664
778,7.78,0.030388834989114828,-0.0022474989933933057,0.053332148711800254,-0.006202906600010214,-0.0016952037309224182,-0.0016952037309224182
779,7.79,0.032048704035324185,0.04088143763189071,0.05758439192836469,-0.004958375688222009,-0.00021640614985767487,-0.00021640614985767487
780,7.8,0.02368984596543344,0.05649732414572347,-0.010851119239278246,-0.0027826348949450343,-0.0026494905689675784,-0.0026494905689675784
781,7.81,0.02671515120964424,0.048949633592036454,-0.049324326814148056,-0.0019542064388385423,8.500217871203701e-05,8.500217871203701e-05
782,7.82,0.028112873739636775,0.0073845499986184525,-0.011315335459640745,-0.0016174889402490742,-0.0004501877941865542,-0.0004501877941865542
783,7.83,0.04024247356815949,0.005558199956053433,0.05177062349273396,-0.002813230058823508,0.001840127267730764,0.001840127267730764
784,7.84,0.03547216549787445,0.009073018910781477,0.05610998358575076,-0.0031154755432934514,0.0008021284585973346,0.0008021284585973346
785,7.85,0.007457661512760333,0.040042073732927855,-0.021504816141646246,-0.0032577680168606976,-0.0005043059789011171,-0.0005043059789011171
786,7.86,0.006080298775438693,0.03195889378440363,-0.060949040413421404,-0.00319956943038065,-0.0011074998985338741,-0.0011074998985338741
787,7.87,0.011884700493057175,-0.017038690769916827,-0.024487732154665483,-0.0020721912306276265,-0.0019190505360502559,-0.0019190505360502559
788,7.88,0.01519943350737529,-0.031365740253125766,0.05050775346783165,-0.0036626419675179728,-0.001162230311218418,-0.001162230311218418
789,7.89,-7.73601650492367e-05,-0.01774838663136399,0.0601643721851962,-0.0027149559172907514,-0.0025329782364479016,-0.0025329782364479016
790,7.9,-0.013350218828869291,0.011351336620040463,-0.02853398771930833,-0.004120305790489796,-0.0023995434416048448,-0.0023995434416048448
791,7.91,-0.01580198811730317,0.002922065395141459,-0.04846702046121168,-0.002611720791108304,-0.0028545606429681595,-0.0028545606429681595
792,7.92,-0.0059108954861065224,-0.018136124406953065,-0.014550217057484018,-0.0032004029328294753,-0.003014156836714806,-0.003014156836714806
793,7.93,0.00025951405825388324,-0.01776925452954065,0.04983035910548604,-0.0017976749233080003,-0.002346202016287803,-0.002346202016287803
794,7.94,8.013711810523141e-06,-0.0027288261852890325,0.047365759727847304,-0.002274773923378169,-0.003075502258821402,-0.003075502258821402
795,7.95,-0.03850459579579399,0.005206419316009306,-0.007949983578225635,-0.002297284292281697,-0.002271953543788975,-0.002271953543788975
796,7.96,-0.04223169407148517,0.01398911814857256,-0.051916464979578573,-0.0022154318413137807,-0.0016359747727668398,-0.0016359747727668398
797,7.97,-0.013842845426694882,-0.020135606690250225,-0.011747059479848533,-0.0029425613692885674,-2.0337649749661567e-05,-2.0337649749661567e-05
798,7.98,-0.005155916106851927,-0.047292340586712785,0.059095472639778185,-0.002371201519218559,-0.0027823454068656764,-0.0027823454068656764
799,7.99,-0.024055527156876914,-0.009479233976460673,0.061399759267969214,-0.002256658425711378,-0.004018207516170714,-0.004018207516170714
800,8.0,-0.038101500407291586,0.0024573496980076874,-0.007151710029415406,-0.0037077427744995326,-0.0022613321783730572,-0.0022613321783730572
801,8.01,-0.03791746117222253,0.029497739333421136,-0.06436705827336621,-0.003397621052260032,-0.00041996486239729815,-0.00041996486239729815
802,8.02,-0.014891665556843608,-0.028483903955665996,-0.03099158960344269,-0.003116156641075013,-0.00029565496008429246,-0.00029565496008429246
803,8.03,-0.004348213175453771,-0.04552008164961696,0.04125779692297411,-0.001646475630259233,-0.0018942559958590407,-0.0018942559958590407
804,8.04,-0.014763181005910661,-0.023996718985794002,0.044727261158748005,-0.0012311180940729474,-0.0007380706376750832,-0.0007380706376750832
805,8.05,-0.022491296092741045,0.02816817493668204,-0.03356259763624139,-0.0028350274114485037,-0.0016990373496947107,-0.0016990373496947107
806,8.06,-0.015422435192717531,0.05571618713892389,-0.06356610252765275,-0.001879964581638772,-0.0009113666068640881,-0.0009113666068640881
807,8.07,0.0022214146786135036,-0.006437202127326661,-0.0279327875363779,-0.0010622417653475442,-0.0016671435651419058,-0.0016671435651419058
808,8.08,0.010626944424745627,-0.02647517093362081,0.038441072056269676,-0.001469496978225777,-0.0023828160106597373,-0.0023828160106597373
809,8.09,0.020549317732709925,-0.0006097585782818705,0.03985737378131912,-0.003484621370636673,0.0016731035137341039,0.0016731035137341039
810,8.1,0.013680838892140097,0.056718069570965646,-0.0253534466062222,-0.005076441437029856,-0.0014751510671082509,-0.0014751510671082509
811,8.11,0.025476768935848264,0.02551483253745995,-0.06424014906520298,-0.002746642464257587,-0.00018188094934796202,-0.00018188094934796202
812,8.12,0.03244022808625639,-0.01623350373625148,-0.024692714861336146,-0.00035865887889804433,0.00038681719739758094,0.00038681719739758094
813,8.13,0.04601063413536215,-0.03557024796494418,0.05174471992038248,-0.001999229901434694,-0.00215989333556548,-0.00215989333556548
814,8.14,0.04968003325568408,-0.0035549901361659874,0.03634046312182908,-0.004505138416322996,-0.0018689967340221481,-0.0018689967340221481
815,8.15,0.024219375782268383,0.032648584673526534,-0.021918766726404772,-0.0034692711281968107,-0.0019123647912414805,-0.0019123647912414805
816,8.16,0.02109695019595871,0.019513261005688738,-0.05313750051373399,-0.0033565800911212747,-0.0021172526640301967,-0.0021172526640301967
817,8.17,0.024969451044702565,-0.03620190526466273,-0.0217009088261854,-0.0031997024709590877,-0.002963901067970709,-0.002963901067970709
818,8.18,0.03235051898421755,-0.05048034587202256,0.05493538323371339,-0.004528909134838909,-0.002894299257495934,-0.002894299257495934
819,8.19,0.0285280572000882,0.002599292398297426,0.04771421544392121,-0.004919672083809215,-0.0037027891091535813,-0.0037027891091535813
820,8.2,-0.003277798498511307,0.03545897628666889,-0.006547940752036779,-0.0040406930354452185,-0.002765433911833325,-0.002765433911833325
821,8.21,-0.017155215074053112,0.02580683895196252,-0.05062030760298045,-0.0028661424398775197,-0.0023147105535200538,-0.0023147105535200538
822,8.22,-0.014305775175969437,-0.018855387844491596,-0.021023180037165766,-0.0023269981596751393,-0.0014316677681468948,-0.0014316677681468948
823,8.23,-0.007266713246686438,-0.02117588633146366,0.050032351728716125,-0.003848286883316304,-0.00376177710054588,-0.00376177710054588
824,8.24,-0.014510538347425935,0.015710583638772768,0.05233637768870718,-0.00565180849975483,-0.0030772960558740265,-0.0030772960558740265
825,8.25,-0.03464418326115859,0.04613824364547449,-0.01700733855397775,-0.005603562692420553,-0.002100675600933857,-0.002100675600933857
826,8.26,-0.04177941407716532,0.0443247446527093,-0.05341050826684648,-0.0036847331147692773,-0.0016006072517960495,-0.0016006072517960495
827,8.27,-0.02816233550590627,-0.020415742744605857,-0.008051632156609985,-0.002757632849249477,-0.0025598813855580572,-0.0025598813855580572
828,8.28,-0.013140901701332315,-0.032051712593126315,0.05083789958742199,-0.003382157726013875,-0.001781266253628138,-0.001781266253628138
829,8.29,-0.012313995005255464,-0.01642240130696463,0.045733075067261826,-0.003470207443632045,0.0007862249382460312,0.0007862249382460312
830,8.3,-0.02287159687743911,0.024578780097313777,-0.018771895223723155,-0.002587507336955557,-0.0001444126044365155,-0.0001444126044365155
831,8.31,-0.031959638558321596,0.01605613603153709,-0.052213102241807356,-0.0024251199561758268,-0.0011574439005501071,-0.0011574439005501071
832,8.32,-0.01610691867024478,-0.02884793325280448,-0.02389920459200204,-0.003261192108165565,-0.0038892541115602775,-0.0038892541115602775
833,8.33,-0.0015247165938325029,-0.056721708093939505,0.04572238800147043,-0.0025174904580334907,0.00029548461201646517,0.00029548461201646517
834,8.34,0.010688471850287158,-0.03709713942967009,0.051434362823123456,-0.003407967722139805,-0.0030108871536394573,-0.0030108871536394573
835,8.35,-0.00903423135015292,0.024548551739582217,-0.014670213097380161,-0.002651472792594289,0.0004898357917616278,0.0004898357917616278
836,8.36,-0.007701475900961081,0.012232949482579775,-0.06006393781857663,-0.0025995158549697605,0.0003485827203945437,0.0003485827203945437
837,8.37,0.0030098249307822077,-0.026538126462539287,-0.03113133246546858,-0.002734350712258255,-0.0009037997815084652,-0.0009037997815084652
838,8.38,0.023064103964595503,-0.06043999678318822,0.05094989833660158,-0.0034261061202089872,-0.0005354277004678517,-0.0005354277004678517
839,8.39,0.030645653643913962,-0.01917049114148089,0.05321693451155764,-0.0047334783406599076,-0.0017655751703930715,-0.0017655751703930715
840,8.4,0.016783620502439013,0.019017287242028464,-0.01620460314381669,-0.002077921741740388,-0.00020819523792700733,-0.00020819523792700733
841,8.41,0.014382417533063841,0.03669271607986375,-0.06068201349892469,-0.0009349983668000787,-0.0020510977820849072,-0.0020510977820849072
842,8.42,0.010218338145631167,-0.02323442975463676,-0.03148625794159644,-0.00023836785388545474,-0.0029105639818753195,-0.0029105639818753195
843,8.43,0.01481868742112896,-0.036605928361746636,0.045272014719255196,-0.002531094589482113,-0.0018451517925093023,-0.0018451517925093023
844,8.44,0.03322413487436483,0.009022839074087134,0.05540158139692955,-0.004652386435825361,-0.00028864905061089284,-0.00028864905061089284
845,8.45,0.017847568708912593,0.05325155693158328,-0.019395205507356864,-0.004715521950876528,-0.00042022381363373147,-0.00042022381363373147
846,8.46,-0.009186956836640656,0.06259501898031172,-0.055739483893186476,-0.002362167807764855,-0.00042182017686477103,-0.00042182017686477103
847,8.47,-0.007968153274422367,-0.010940383180997208,-0.014160927782726073,-0.0012892098040010848,-0.00158262596757401,-0.00158262596757401
848,8.48,0.015236064445844417,-0.02414170705945741,0.04902894223211576,0.00015633305006175168,-0.0008077474975918576,-0.0008077474975918576
849,8.49,0.011264836304974313,0.008458288871393974,0.05161449339107402,-0.002608349093246516,-0.00230894801646788,-0.00230894801646788
850,8.5,0.0007954216090200836,0.07471617539788131,-0.02206881718441209,-0.006229731090406902,-0.0009034418311429144,-0.0009034418311429144
851,8.51,-0.01843634354014053,0.043862462276577564,-0.04806723063569001,-0.0025875938860091185,-0.002529004576179009,-0.002529004576179009
852,8.52,-0.013164111511510812,-0.02238594821222816,-0.02472197606877001,-0.00048434092390726134,-0.002062761439406623,-0.002062761439406623
853,8.53,-0.0027841687450025545,-0.035323146864392835,0.043025992068161406,-0.002202736557446381,-0.0006749173357988145,-0.0006749173357988145
854,8.54,-0.0044404531393759175,-0.0016398003899466655,0.040250905580740806,-0.005599596423672249,-0.0017257276428999187,-0.0017257276428999187
855,8.55,-0.027954452470254534,0.05730273111371306,-0.0172095411652599,-0.003657695085736217,-0.0012695526272494654,-0.0012695526272494654
856,8.56,-0.01832421185798802,0.023527198702737975,-0.06161635800500941,-0.002824953892376761,-0.0014026355213773284,-0.0014026355213773284
857,8.57,-0.01829672304767933,-0.020551694511166473,-0.02426196315867071,-0.0016850072392596608,-0.0007825235017690407,-0.0007825235017690407
858,8.58,-0.0026715430393832746,-0.05206317420154949,0.0482946661791786,-0.0010516422468297274,-0.00453225637891333,-0.00453225637891333
859,8.59,-0.00508562026929337,0.003127647963851652,0.0353688821455477,-0.003641202288907136,-0.003549838262237077,-0.003549838262237077
