,ts,ax,ay,az,wx,wy,wz
0,0.0,-0.11792729906287679,0.17724142015138722,-6.552315432597188,0.04262245785809885,0.07206382964424925,0.011435390259538214
1,0.01,-0.01831445016503848,0.03179652617223186,-1.289777248130643,0.042544200723034935,0.0718094900358468,0.0159999519682387
2,0.02,0.038843576800620415,-0.05349294239305309,1.845110660309634,0.041788816627765055,0.07011771469210214,0.02074535542813978
3,0.03,0.06477025229099691,-0.09452808027953058,3.420514829711844,0.04031796964922671,0.06931266038229009,0.024110854593024783
4,0.04,0.0700509327680727,-0.10523452686810526,3.893370085384101,0.03846255037057973,0.06898423226168904,0.026734633983097944
5,0.05,0.06263499174193987,-0.09636512775310144,3.6266635329915755,0.03660713109193276,0.06865580414108799,0.0293584133731711
6,0.06,0.050225037167932585,-0.07761205994687727,2.9044889817393114,0.03365784183774238,0.06667740300454236,0.037274126253118746
7,0.07,0.033398666607521964,-0.052196945589960256,1.9430705766531529,0.030200621452720542,0.0639328480484682,0.0476471126864991
8,0.08,0.012176244141454948,-0.021995038464717745,0.9036701758755656,0.02295939201301317,0.06281403824351538,0.057372003778178936
9,0.09,-0.00848521067767238,0.00732728913903042,-0.09859122961114752,0.013723294024623071,0.06255229506374135,0.06675522945758783
10,0.1,-0.02665076131990292,0.03317269970363145,-0.9861581317284155,0.007167949166301237,0.06034866192291913,0.0731020857781081
11,0.11,-0.04072495116173648,0.0536556485844257,-1.7100974395820736,0.0028515669607488336,0.05652316399723169,0.07691296908480896
12,0.12,-0.049308384669480544,0.06730536189873212,-2.2449374764546657,-0.0014648152448035693,0.052697666071544254,0.08072385239150981
13,0.13,-0.051885770008105646,0.07457027750394968,-2.5848914103582343,-0.004750562408586464,0.046530068484408785,0.0906541561251384
14,0.14,-0.04994443347825118,0.0761908909683528,-2.7364005433812464,-0.006831778615939975,0.03762519588631184,0.10773639147462333
15,0.15,-0.04828915322498698,0.07387970627905396,-2.714722387833572,-0.011224546423702176,0.027483400896633186,0.1132125606922346
16,0.16,-0.045391800069048825,0.06787029961559529,-2.543232570973141,-0.017925170305733325,0.0161066610092043,0.1071012186398937
17,0.17,-0.03878147186106273,0.05799925092273293,-2.2484066608647355,-0.020861910145451808,0.01048292550299311,0.1067714135630643
18,0.18,-0.02961486021253776,0.04544131583847081,-1.8597223496025643,-0.02175138065043701,0.007988390928545077,0.1095863289995477
19,0.19,-0.018985073522893223,0.03164676357321857,-1.40581404633962,-0.024638471558377097,0.006027789195272401,0.11373980950723475
20,0.2,-0.007844770914014101,0.017317890170391058,-0.9143429425927614,-0.029526381620918123,0.004601975279702186,0.11923399850497444
21,0.21,0.0027510295566121248,0.003081380395916579,-0.41048514151043625,-0.03236113483849995,0.0025869363947500874,0.12486459673741095
22,0.22,0.012644804984408366,-0.010650221849263345,0.08278752719478455,-0.034146662240177865,0.0002707855656381916,0.13056490425237166
23,0.23,0.021553220619242277,-0.02277669593819941,0.5464984166119248,-0.03763183147556128,-0.00040591880883429036,0.1347868468596457
24,0.24,0.029066310794757383,-0.033194280242410903,0.9650434570948819,-0.042819364148867486,0.000559448485831664,0.13752805728155865
25,0.25,0.03549672866027137,-0.042539759566340984,1.3259205625530885,-0.04400102126117719,0.0028548972192595197,0.1465839980840142
26,0.26,0.040275326394590055,-0.050128896540636604,1.6207533830903675,-0.041076209744534985,0.006513827573386594,0.16211324086830586
27,0.27,0.042320890416987444,-0.055377957849751594,1.8442778699818654,-0.036883163973604666,0.007733360546498564,0.1724378664106996
28,0.28,0.04217821314851147,-0.058235375493261535,1.994158921637097,-0.03142036115360417,0.006510567104317644,0.17755162542093095
29,0.29,0.04069768750813105,-0.05924652990694944,2.0700758625399867,-0.026914582733759,0.004964696749580313,0.18235345666636946
30,0.3,0.03788060852283062,-0.058005065244163476,2.0754190647545205,-0.022934619083506448,0.003241319309016357,0.1869839064655799
31,0.31,0.03403624947846431,-0.05427711249808405,2.0138698545251543,-0.020812869146964192,0.0043365070375356255,0.1909078027233868
32,0.32,0.029194307623372044,-0.048688511512870125,1.8930466057673427,-0.0196565093771406,0.006896012394545328,0.19446462611110416
33,0.33,0.02350390490776888,-0.04175520388814355,1.721025240153221,-0.01850014960731701,0.00945551775155503,0.1980214494988216
34,0.34,0.0172983586267046,-0.033818711666506435,1.5055214972915145,-0.017343789837493413,0.012015023108564732,0.20157827288653896
35,0.35,0.0104240973108513,-0.026005368506852127,1.2551149609491057,-0.016202398031641942,0.012401838741296686,0.20259252008338494
36,0.36,0.003482908152440265,-0.01800865114221391,0.978689202542601,-0.01507607029226001,0.010602014795983451,0.2010478663626124
37,0.37,-0.0021639005503918665,-0.008616024313021794,0.6845187431081902,-0.011543585242942371,0.012296387011924259,0.19619966820981255
38,0.38,-0.0072278299413784846,0.001021315061696431,0.3824513402688591,-0.006773772782276821,0.015787592989769776,0.18965267585786613
39,0.39,-0.012802825103500164,0.010102222168056736,0.08151713594155341,-0.0007688098401056878,0.013981243591649182,0.1803252384449469
40,0.4,-0.017785955096499412,0.018382827185027612,-0.21065317623356306,0.005951958996338701,0.009104805633361206,0.16938645165140714
41,0.41,-0.021336039479443982,0.024957559460273154,-0.4864751002596234,0.012075497308755418,0.0062230506388185865,0.15924897066301025
42,0.42,-0.023879600197851653,0.030577953329088758,-0.7405008685200067,0.0178805493036977,0.004405004222611807,0.14953880362589927
43,0.43,-0.025597014117924033,0.03500720192140015,-0.9671444216227512,0.022878522443711156,0.004356563304057604,0.1447647611295182
44,0.44,-0.026617248045983703,0.03837589321944746,-1.1623965597910142,0.0270613053835201,0.006095512863031883,0.14497645246573368
45,0.45,-0.02688005752183525,0.041292189737227716,-1.3232492514933318,0.028046673091764902,0.008358026787115377,0.14161140722488266
46,0.46,-0.02656890878013466,0.043366469062816146,-1.4474139234238597,0.02582309411699933,0.011145993306837429,0.1346567259362403
47,0.47,-0.02572833842511881,0.04442653781419465,-1.533762248975497,0.022436424200281725,0.014946433298720975,0.131402414328485
48,0.48,-0.024564700105049096,0.04431199156007619,-1.5818850625894094,0.01815135826707581,0.019528929191292187,0.1310063464409186
49,0.49,-0.022898619674267356,0.04289575970786715,-1.5927936478874607,0.017391369534413382,0.022313486117193162,0.13365050173181867
50,0.5,-0.02112330487364245,0.04032686685949054,-1.5671376794179892,0.018447329662636985,0.024171832060264024,0.1378608325995045
51,0.51,-0.019510321111623284,0.036331063626357935,-1.5078193720803235,0.02074485562910599,0.02445081918594661,0.14042345093496764
52,0.52,-0.017690952552300625,0.03159512322270422,-1.4161950962776217,0.02363826704968626,0.023971798224491397,0.14219525504192734
53,0.53,-0.015479201048365112,0.02650754401974087,-1.295102021805844,0.02653167847026653,0.023492777263036176,0.14396705914888705
54,0.54,-0.012866066517805341,0.02107709613548902,-1.1489021864416344,0.0294250898908468,0.023013756301580958,0.14573886325584673
55,0.55,-0.009888206176035128,0.015371030872368194,-0.9821729477363599,0.032318501311427064,0.02253473534012574,0.14751066736280646
56,0.56,-0.0071278642572928375,0.009188230277814038,-0.8003904278103575,0.03221589054220468,0.020233095279676056,0.14839523055936604
57,0.57,-0.004281746811575589,0.0028918071350267334,-0.6076841540780376,0.029003693261332626,0.01603974968199816,0.14835892194898298
58,0.58,-0.0006568878386904974,-0.002905785723225956,-0.4075145746654964,0.02579149598046056,0.011846404084320259,0.14832261333859992
59,0.59,0.0029989737778864482,-0.00866351338825828,-0.20555545078321602,0.021539497536231474,0.00530184715327637,0.14927278346119693
60,0.6,0.0066431426950577304,-0.01404914188953296,-0.005876603817203951,0.016232616203471748,-0.0036280240958237522,0.151223740630387
61,0.61,0.010433940560320307,-0.016698939568466877,0.18996537017626333,0.012130561708806484,-0.006199327380933157,0.15079034241635916
62,0.62,0.014153328655338106,-0.01910764618820781,0.3755686384401201,0.00857896423107948,-0.005865550663846337,0.14926758836291248
63,0.63,0.01707671380103261,-0.02198504567136577,0.5465531559938206,0.002837102513254025,-0.009170755482118518,0.14801228323482196
64,0.64,0.019609908436059857,-0.02508463347700944,0.7003609816919418,-0.004136248190685212,-0.014521999129598171,0.14690735284229728
65,0.65,0.02163236137998371,-0.028341995368881937,0.8356200566290143,-0.006205442191068346,-0.0180613470978902,0.14715827203222656
66,0.66,0.023254411542664916,-0.031125602217231943,0.949784907250415,-0.00545692751387689,-0.020559661003301484,0.1481882016341185
67,0.67,0.024231751627445505,-0.03286119279265224,1.0416692920752035,-0.006234483991962319,-0.024707397893492536,0.1501224268653748
68,0.68,0.024737946823884603,-0.03369430534844299,1.1100994571774225,-0.007709590406533771,-0.029609067452087225,0.15246999544346432
69,0.69,0.024521237977428063,-0.03300794149243678,1.1549279959842735,-0.01254735026390525,-0.03303729521663816,0.1516934111681424
70,0.7,0.023784591540838788,-0.03164003856552834,1.1763413404795815,-0.01917358021217772,-0.0356818541838668,0.14925520638009915
71,0.71,0.02243912278872799,-0.029710368124006143,1.174896435458547,-0.02507697605578374,-0.03766000330095486,0.1483324722430404
72,0.72,0.020625869375148927,-0.027411379583978848,1.151807239886573,-0.030532245199477462,-0.03922500637940887,0.14834926607962784
73,0.73,0.01862367170746162,-0.024280456267690455,1.1078146527637533,-0.034016503699187205,-0.04140687390122711,0.14947668513047965
74,0.74,0.01619638292928413,-0.020996479156714043,1.0454724022742683,-0.0365821516084813,-0.043876237694186665,0.15112172294047915
75,0.75,0.0128796632510664,-0.017279582825666426,0.9662748710902549,-0.03858295306965631,-0.044952966391271484,0.1485185676802395
76,0.76,0.009296131864489278,-0.01357872721617948,0.872874317509784,-0.04027611650548875,-0.04527121017206743,0.1436016761262613
77,0.77,0.006191705252078708,-0.010501889414384891,0.767125108784619,-0.03740591229916795,-0.046424738648049364,0.14142996243068126
78,0.78,0.003082483490527174,-0.007348769455001471,0.6516898656843658,-0.0320459572772674,-0.04803399432248669,0.14075600419725665
79,0.79,-0.0008996388271601172,-0.0037744044331411196,0.5290241227036586,-0.0269963862621763,-0.049060211399275515,0.1361698092335989
80,0.8,-0.004818446262785162,0.0001099149498232201,0.4011893311896516,-0.02213948473591504,-0.049724509865206316,0.12915511075668462
81,0.81,-0.007424213133373824,0.004053862034369432,0.2705003942883264,-0.01957932099701078,-0.04790614925688343,0.1245004060355946
82,0.82,-0.009638587338783634,0.008047110352903914,0.1389925690179042,-0.01814885209398837,-0.04486664483716052,0.12100650982009195
83,0.83,-0.012026457704297982,0.011539009858021785,0.009385699673538583,-0.015952393567438758,-0.044271254251925435,0.11951085650249152
84,0.84,-0.01424444710742399,0.014926724236573641,-0.11683321396131388,-0.013341481416570454,-0.04499829912252126,0.11909639147500276
85,0.85,-0.015899076248233213,0.018486452040866002,-0.2375335827335172,-0.013045179591877893,-0.04437916539730695,0.11904381094387115
86,0.86,-0.017167687242152393,0.021744477842598628,-0.35104119286696706,-0.014026709356539215,-0.043016844140617135,0.11919101671625384
87,0.87,-0.019445008012007423,0.024103773591666263,-0.45513479732605067,-0.008629119035071282,-0.046260836960352304,0.12445372859512426
88,0.88,-0.021013349126741656,0.02582371360721028,-0.5487221924615803,0.00024279588072655123,-0.05201361313403783,0.13250255022553548
89,0.89,-0.018791114958897702,0.02606276884269765,-0.6312515023239892,0.0049316559502783465,-0.05296490551785876,0.13507754197930358
90,0.9,-0.016233106388668248,0.026004141582560404,-0.7005992393472936,0.007697812807039487,-0.051709239435137035,0.13513653748704202
91,0.91,-0.01681479622961864,0.02558989800565009,-0.7551594650812343,0.009828488898776242,-0.05280345965141856,0.13808122820432653
92,0.92,-0.017479779086611854,0.02504656612910032,-0.7949431925577504,0.011616682128229923,-0.0551641159740573,0.142581121233681
93,0.93,-0.01655219703290169,0.024448620368697934,-0.8200368917169866,0.013404875357683605,-0.05752477229669605,0.14708101426303544
94,0.94,-0.012444120014757483,0.02369644572107162,-0.83095311429574,0.012810627726719185,-0.05571480906573165,0.14671348399487394
95,0.95,-0.008415628027357628,0.022312401269554295,-0.8273018160998057,0.011080225681592887,-0.0519159327438524,0.14402474418193634
96,0.96,-0.007378021734158691,0.02003408238068693,-0.8095415586082698,0.008833017477668587,-0.0530048030731488,0.14281459226135565
97,0.97,-0.007569678692940705,0.01702579883944265,-0.7785193367320444,0.00606506040584483,-0.05901870862474004,0.14309430836561718
98,0.98,-0.005628016785170286,0.01367963319098581,-0.7354439091349279,0.003327476766495965,-0.058301894863322386,0.14296810088008666
99,0.99,-0.0026745520995340786,0.009997704565299774,-0.6814144024533028,0.0006205840945011001,-0.05078399640806018,0.14243172613233365
100,1.0,-0.0007964379021701492,0.006018139920688608,-0.6173757455872123,-0.002214991366695792,-0.0478573594178312,0.14491003718943415
101,1.01,0.0005740030977303954,0.0018684097385118625,-0.5450258693211615,-0.005180594913644471,-0.04956998260517702,0.1504345506701764
102,1.02,0.0032563372766146485,-0.0025114763304879845,-0.4657820420107031,-0.006647178417100495,-0.047464290815666985,0.15246222692445496
103,1.03,0.005890820609958744,-0.0067872807575078825,-0.38164828426345493,-0.007253606572968508,-0.04316760494280531,0.15248337681302898
104,1.04,0.007574997726134622,-0.010420630768985726,-0.2938928570274139,-0.01003499809562682,-0.04064108031198134,0.15197396021043286
105,1.05,0.00865863156682985,-0.013682213409163632,-0.20473836188121325,-0.013892492569567032,-0.03899037536892192,0.15120203612117408
106,1.06,0.00997766971954318,-0.01617971421241727,-0.11563093995706518,-0.018859079878752356,-0.03428930794159068,0.1527244982277687
107,1.07,0.01082252384184642,-0.01837781607511073,-0.028192112270817624,-0.02434352584931148,-0.028163962417231837,0.15531825727750564
108,1.08,0.01076457678690615,-0.019800508420966166,0.05635166128627467,-0.03014238465010113,-0.02466650169092913,0.15042929064997346
109,1.09,0.010313083198937405,-0.020942355920718685,0.13684578655378177,-0.03612384742469208,-0.022695257965584092,0.14119452349473233
110,1.1,0.010460035575151953,-0.022296366700680095,0.21188397767273867,-0.040158172008599766,-0.02075870282711967,0.13399807018122514
111,1.11,0.010731860752888168,-0.023352523294000456,0.2808669962992375,-0.04223677210392982,-0.018856989241843997,0.12884891906473722
112,1.12,0.01017320797670983,-0.023588403082173897,0.343500222671822,-0.04431537219925986,-0.01695527565656833,0.12369976794824927
113,1.13,0.009162685621343324,-0.023015989951015392,0.39888782593074396,-0.04639397229458992,-0.015053562071292662,0.11855061683176132
114,1.14,0.007057609158434314,-0.018830315967960618,0.4459008008254035,-0.04423486058104435,-0.012724749816200228,0.10439914817328784
115,1.15,0.0052807995650639965,-0.015078751120835836,0.4845357632435797,-0.04028884906296012,-0.010215844491065634,0.0864517065507073
116,1.16,0.004846066395074847,-0.014532755676575224,0.5145172853760015,-0.03752194126855686,-0.008848483799606415,0.07227286680044709
117,1.17,0.005072918680553404,-0.015163026428687592,0.5355297155430073,-0.035979810940444036,-0.008666886596134151,0.06200860942316797
118,1.18,0.004579373683980176,-0.013126297095759073,0.5474534609487771,-0.034996439169154535,-0.0071429689944865265,0.04477883515526701
119,1.19,0.003687094393600807,-0.009398894075247324,0.5503214999934782,-0.034710510632461083,-0.003943565140440162,0.018854692682165414
120,1.2,0.003826004494351792,-0.008772835759354428,0.5447908810860995,-0.034422192815695474,-0.0036418826079472103,0.006932080735190286
121,1.21,0.0039510856699257225,-0.007637944111834322,0.5307049287283914,-0.03413275011504829,-0.004704460400545078,0.0016014527879402284
122,1.22,0.003322790819326785,-0.0037600384331701285,0.5083523383076406,-0.03264140977407918,-0.0056992325209507064,-0.007842751053812786
123,1.23,0.0023220766305392174,0.0013831735611257497,0.47847519586598214,-0.029948171792788164,-0.0066261989691641,-0.021400530790068758
124,1.24,0.001632549656206824,0.00560763090055465,0.4418663806959948,-0.02454935439163527,-0.00629222515370515,-0.03449174171762446
125,1.25,0.0010699695449015246,0.009141391813447915,0.39942797100332683,-0.016352496760503182,-0.004654219544000842,-0.04710043925554791
126,1.26,0.0002181102773681084,0.012001494756495618,0.3522449646762883,-0.008048110024494836,-0.004148455331003433,-0.05953637296370388
127,1.27,-0.0007629927453616505,0.014338845234375872,0.30117918577268243,0.0003685985673329388,-0.004825398395817423,-0.07179184247102524
128,1.28,-0.001149334924433242,0.016124959049413523,0.2472225890603547,0.004769893144246709,-0.0036893956555006688,-0.07889684672282002
129,1.29,-0.0015769174356110149,0.017826315861731667,0.1911648458020691,0.0070156873132774895,-0.0015801917937267624,-0.08323704766470942
130,1.3,-0.002372795595881136,0.019524740363689685,0.1336818520184375,0.008302185430602047,-0.0017604131257364316,-0.08600257493223938
131,1.31,-0.0033476869697898065,0.020897212153810203,0.07612093341996767,0.009145909953759948,-0.0029973437184839763,-0.08804129432727195
132,1.32,-0.004361759159752092,0.02171492376194827,0.01957994775129647,0.00998963447691785,-0.0042342743112315185,-0.09008001372230452
133,1.33,-0.005315313178307637,0.021799834071665043,-0.03511079450196955,0.010833359000075751,-0.005471204903979064,-0.09211873311733708
134,1.34,-0.006140157501927172,0.02108634420526209,-0.08718043260667767,0.011677083523233654,-0.006708135496726607,-0.09415745251236964
135,1.35,-0.006737529547007667,0.017653098136728745,-0.13605545520195847,0.015329910832923448,-0.004925869309811826,-0.09239106353518516
136,1.36,-0.0071470917625067855,0.013792238772864797,-0.18096397156981406,0.02083991905463931,-0.0011475228599309214,-0.08810900490327908
137,1.37,-0.007339248530705463,0.011791702899954092,-0.2215147827611125,0.02513613432170461,-0.0003338657321329629,-0.08500220127325794
138,1.38,-0.007346681487919819,0.010521545501701202,-0.25710378802648376,0.028216126618194132,-0.0024908332403760763,-0.08307300550798835
139,1.39,-0.00748172140474953,0.008664324793896713,-0.2871919758559777,0.03119997228509505,-0.004223347270257806,-0.083005421795235
140,1.4,-0.007569463880117852,0.006284010119750501,-0.311582716544348,0.03407248372360313,-0.005464359926620508,-0.0850935157419124
141,1.41,-0.007386839237497087,0.0034963822725967014,-0.3300739651490762,0.03561297540718578,-0.007068794735101175,-0.0868995967107218
142,1.42,-0.006927964869219841,0.0004548245354296949,-0.3426695734652271,0.03579996314624745,-0.009042513343314613,-0.08841911610524597
143,1.43,-0.006157676498437978,-0.002844882554891637,-0.34886589304596805,0.03537547983051313,-0.010241445041603285,-0.08992103630753769
144,1.44,-0.005120420710463809,-0.006033117549642148,-0.3494215949129802,0.034535303022630436,-0.010913656997834928,-0.09141099213372246
145,1.45,-0.0032053450266595947,-0.00846808983402883,-0.3443892644787981,0.03089096095610353,-0.008898981017339862,-0.0865257465678345
146,1.46,-0.0013632724013451845,-0.010600369147704566,-0.334681573828766,0.02569039655897468,-0.0053931678814758644,-0.07810246745066253
147,1.47,-8.190892246466293e-05,-0.012416165199720544,-0.3203830812570824,0.01952563934529664,-0.0032758715700967004,-0.07239185246649735
148,1.48,0.0007648962435402866,-0.014090752053335612,-0.302231838900535,0.012833209225517016,-0.0019184675700594585,-0.0681657946598728
149,1.49,0.001853796656554239,-0.015472624330607896,-0.28039279874140677,0.0076861887785150485,-0.0003091253923304112,-0.05545740558502616
150,1.5,0.0025864007224675823,-0.016638590256325102,-0.25544044389744497,0.0033377745434277576,0.0014304084085437867,-0.03836568530574562
151,1.51,0.003263115173025855,-0.017638384319748696,-0.22801117824693787,-0.0004695771649869333,0.0030030057418826486,-0.023898905332588698
152,1.52,0.003532537708349275,-0.018239209671852982,-0.1981228865047046,-0.003932455349873568,0.004469321101618818,-0.011103323033870526
153,1.53,0.0025502202528667577,-0.017680402762816294,-0.16725242652157704,-0.007438760017952121,0.003831280051969564,2.597595256504867e-05
154,1.54,0.0011683423179188952,-0.016427572803966582,-0.13492067266929114,-0.01098882246943566,0.001072828478589044,0.009476279567720495
155,1.55,5.0240561486205194e-05,-0.014776980153603996,-0.10015154908960003,-0.014343473215234732,-0.002369546381832092,0.013614397490587958
156,1.56,-0.0004890327275665742,-0.013073206164407665,-0.06392231288795348,-0.017545766124656574,-0.00634515988267411,0.013610731195994364
157,1.57,-8.695648274631256e-05,-0.011815049779105191,-0.026998606833294993,-0.020748059034078416,-0.01032077338351613,0.013607064901400769
158,1.58,0.000884953792851648,-0.010598782459165136,0.009504025555801156,-0.02395035194350026,-0.014296386884358147,0.013603398606807171
159,1.59,0.0009641103825378545,-0.007822515413798067,0.04239563432704435,-0.028898261539947317,-0.019558102911576697,0.012039588173851637
160,1.6,0.0011283277598184765,-0.004733346813467388,0.07323254068626907,-0.03522609909936954,-0.025836496226879824,0.009242467737159669
161,1.61,0.0025026488019887715,-0.0032409439992288425,0.10621950074725266,-0.03574251309366057,-0.03251217335891566,0.006054436324905759
162,1.62,0.004419903248610146,-0.002118981041512231,0.13679931138171483,-0.03329971442439099,-0.0393901498567312,0.0026673506368374827
163,1.63,0.006103323573218166,-0.0005651467849474697,0.1641688178374298,-0.0321853168731605,-0.04158726696743414,-0.002676569072622849
164,1.64,0.0076167129566361135,0.0013064898502299993,0.18621722581855102,-0.03172876389473885,-0.04146635084097845,-0.00898954295057159
165,1.65,0.0089471923415175,0.003563749269414664,0.2035945497387948,-0.031226636654500275,-0.03845455515789276,-0.018620222118890868
166,1.66,0.009854947515570037,0.005989363884856569,0.21557487236807,-0.0306918714539799,-0.03337245908184036,-0.030626872486234726
167,1.67,0.01135380103835767,0.008599730467960316,0.22202633513001518,-0.0335831661497363,-0.026396747980691398,-0.035834390056645064
168,1.68,0.011970574928640104,0.011044309196447681,0.22345981829208109,-0.038307934102849286,-0.01840765923485611,-0.03740331737066757
169,1.69,0.01076024441211279,0.013265359550986773,0.21998012185171195,-0.03860727778501233,-0.014787658531384015,-0.040310965627954685
170,1.7,0.008568453372446865,0.015097555343101747,0.213155766738059,-0.03640433084934957,-0.013638093959567513,-0.043975573817469714
171,1.71,0.006517378418329226,0.015866367037523133,0.2027735382910722,-0.03103463125196913,-0.012998505169557691,-0.04781696562601495
172,1.72,0.004316032033013748,0.01619517971298888,0.19047004930956876,-0.023157517210558885,-0.01276271193228102,-0.051798333570108414
173,1.73,0.0015746454014065542,0.016732787489010473,0.1779202153612554,-0.01528040316914863,-0.012526918695004344,-0.05577970151420186
174,1.74,-0.0019832378353965914,0.01678802805509449,0.16281923238977386,-0.007071829845518266,-0.0149839437870113,-0.057471541524737636
175,1.75,-0.005538942076772909,0.016503891344775982,0.14639456482101365,0.0014711324928387785,-0.020157588736322868,-0.0568536167135927
176,1.76,-0.008332092821495411,0.015747041002665947,0.13111067161404003,0.007209052699158728,-0.027220991007415013,-0.059485297494569524
177,1.77,-0.010268890482837993,0.01471471186052261,0.11603745639771451,0.010147535253225877,-0.03617037486138307,-0.06536009114920234
178,1.78,-0.010914548913335412,0.01414323097780902,0.10077507907833785,0.013086017807293022,-0.04511975871535112,-0.07123488480383516
179,1.79,-0.009694295448101686,0.013560374657846224,0.08620412838650889,0.014418797426843918,-0.04679329608996847,-0.07163204332667163
180,1.8,-0.008261394643023917,0.012670242578981309,0.0702039241256124,0.01501694630576714,-0.04513803560732276,-0.06952310992723602
181,1.81,-0.008858366656321342,0.011077698812717638,0.05184298111490537,0.016999570457914562,-0.04728993749433953,-0.0692428345870921
182,1.82,-0.009244558623238731,0.00903410557605296,0.03208260816322135,0.01962091862548926,-0.051198263698326134,-0.06980620581909255
183,1.83,-0.008471284618759414,0.006187391690238532,0.012646831822313749,0.024182595573387877,-0.054070641722801814,-0.07021917258154894
184,1.84,-0.007048475908399677,0.0031397740305118306,-0.007194354301192106,0.02976763517264719,-0.056396642923716885,-0.0705528134491931
185,1.85,-0.005106508504506635,-0.0006720214062829744,-0.026598688401752876,0.03606836258215156,-0.05489941258762045,-0.06755695813050992
186,1.86,-0.00316926467305238,-0.004240472292414948,-0.045912777999468884,0.042778166931128084,-0.05121687766247627,-0.06265801030362737
187,1.87,-0.001348352146467154,-0.007055511108832327,-0.06484650254696062,0.04705173146304708,-0.048775633198949286,-0.059576593106527576
188,1.88,7.849697547769466e-05,-0.009349201931698537,-0.08282401812617929,0.05016295410292828,-0.046926614465263326,-0.057362328632352175
189,1.89,0.0010959642340996837,-0.011938335376497038,-0.09911444886681395,0.05209214125650435,-0.044580253245485486,-0.05407429794826448
190,1.9,0.0017607672010482352,-0.014488957335558376,-0.11322013406116417,0.05277019080806703,-0.04170747476274257,-0.04964972838987269
191,1.91,0.003077458528425823,-0.01456974149921323,-0.12606291146120527,0.05248115222856973,-0.04096591073768269,-0.046149605133085726
192,1.92,0.0038278353325262235,-0.014475979776527526,-0.1358876027654412,0.05171081458369693,-0.04128500653632816,-0.04310955901576751
193,1.93,0.0035211418481350706,-0.015287102749810117,-0.14189164239209054,0.050940476938824135,-0.04160410233497363,-0.040069512898449296
194,1.94,0.002644557017601945,-0.01655425032900557,-0.1444509306532971,0.05017013929395133,-0.041923198133619104,-0.03702946678113108
195,1.95,-0.0005826753385771424,-0.02098526421540264,-0.14472795190494975,0.04844718090392583,-0.0430270784373689,-0.02596135907454636
196,1.96,-0.004225432029428303,-0.025870502600844707,-0.1424331965854675,0.04576356600427757,-0.044922363240039925,-0.006797469636749116
197,1.97,-0.002909479041534612,-0.023390478429042058,-0.13702401472798,0.04331297738238669,-0.04626208522272483,0.001839916761294629
198,1.98,-0.00038439039131899335,-0.019075196705793086,-0.12886449912749537,0.040981578742952114,-0.04731764387668648,0.0050931305041803
199,1.99,0.000970901224468861,-0.01615652144714265,-0.11835522263923817,0.039378257690515665,-0.04651915158627188,0.006883762148506105
200,2.0,0.001637947384656088,-0.014049497213516757,-0.10619114793555375,0.03850388844271229,-0.043864382154629664,0.007210055542062449
201,2.01,0.0024934369372034185,-0.011448583804834272,-0.092179381275983,0.03183181202818007,-0.041493397793318544,0.004754979722153803
202,2.02,0.003191349498029984,-0.009110447723409144,-0.07778046437116254,0.022457652182621458,-0.039254674499091806,0.0010036170338086816
203,2.03,0.004122110209797609,-0.006797750517211125,-0.06319020481510366,0.013691131397232072,-0.035345446799082615,0.0010942631105449565
204,2.04,0.004681630375705984,-0.004834686092248833,-0.04904331368932648,0.005257880594982879,-0.030520002529658512,0.0032921242764602818
205,2.05,0.004968893673123897,-0.002137677249819581,-0.035280206612988994,-0.002917114710522313,-0.025931710824138258,0.0023755242488117745
206,2.06,0.004746779784775587,9.053385815934508e-05,-0.022238159833853563,-0.01095365968059946,-0.02147055620740825,-0.0002107331621758685
207,2.07,0.003955836891283242,0.0012837550678488924,-0.010082954940890846,-0.01899020465067661,-0.017009401590678243,-0.0027969905731635115
208,2.08,0.0033778845345925194,0.002568310221965655,0.0014203324253792711,-0.023000166553697767,-0.014707267290772222,-0.002178730715659437
209,2.09,0.002602289502279888,0.0036798602899462025,0.012334781184175834,-0.02498806638774369,-0.013489345837365014,4.876772207113673e-05
210,2.1,0.0014904284343537932,0.004556149090531935,0.022668975074429033,-0.02697596622178962,-0.012271424383957806,0.002276266159801711
211,2.11,0.0003074313313492015,0.005962898638243605,0.03192011474020731,-0.029780299070254045,-0.011942197155486698,0.0006417410105952928
212,2.12,-0.0007571047877659772,0.007549364861774054,0.04058199853226634,-0.03312960129619342,-0.012206173692634936,-0.003570686492873053
213,2.13,-0.001590354656606891,0.008969598335549906,0.04899792893922447,-0.0364789035221328,-0.012470150229783173,-0.007783113996341399
214,2.14,-0.0021483110486709748,0.010402057843298802,0.05685028487643049,-0.03982820574807217,-0.012734126766931409,-0.011995541499809746
215,2.15,-0.0024261557024445723,0.011915638997209045,0.06388118254593919,-0.04317750797401155,-0.012998103304079649,-0.016207969003278096
216,2.16,-0.0029017063038876906,0.015911412168462397,0.06915624231983376,-0.047320578115628016,-0.012829210976932737,-0.02342926646278004
217,2.17,-0.003317642115341471,0.020763327704274578,0.07300140783563557,-0.05237801013643955,-0.0121616857617781,-0.03411655937626258
218,2.18,-0.0025970035739205856,0.02068098686924901,0.0764044590455907,-0.05391615656758522,-0.010516393035226343,-0.046117056683139264
219,2.19,-0.0014638191370814628,0.018819613307694213,0.07908594072523371,-0.05332465505763293,-0.00827941756100732,-0.05891222181715813
220,2.2,-0.00019258404003279044,0.017155872980349433,0.0809593684289914,-0.050701966526770434,-0.006367699705802784,-0.06845456557406243
221,2.21,0.0008733704380163257,0.01586514259221701,0.08158406008484895,-0.04704775841110311,-0.004621160930942161,-0.07634499401158762
222,2.22,0.0010427686306236515,0.014523300857686675,0.08120972466668291,-0.040457106713374866,-0.006539376515807781,-0.08750219885345148
223,2.23,0.0010761859202724773,0.01357330284507343,0.07920040080563147,-0.03240439113506383,-0.010282284055695876,-0.10028594125793093
224,2.24,0.0018317124549986662,0.012565089663634234,0.07590030216024,-0.026578492795427632,-0.007536229444667709,-0.11290709177652967
225,2.25,0.0024866001877740986,0.011942888194538382,0.07086769878703808,-0.021799064353196018,-0.0017407536964237132,-0.1254518339077757
226,2.26,0.0029158506716470273,0.011552342489690896,0.06442511577590766,-0.019147985890891485,0.0020542490843114074,-0.13551340030482506
227,2.27,0.0029415859672340186,0.01125798116749405,0.056659709021710095,-0.01769722491804849,0.004721052690689786,-0.1441745394736115
228,2.28,0.0026074010355430785,0.01072719863879737,0.04789895123807163,-0.013424912099759831,0.0065719234866464206,-0.15539219776552535
229,2.29,0.002012509773957336,0.009856225625651437,0.03851319382320657,-0.006286685201809686,0.007594032857141419,-0.16920657040161166
230,2.3,0.0017597298567953424,0.008018486524636947,0.02830400212125542,0.002095741405956241,0.01144510024889665,-0.17865330072417804
231,2.31,0.0012215535373598899,0.00601268652928459,0.018126611691303307,0.011147238655768268,0.01681744492811106,-0.18575132350093804
232,2.32,0.00020543811499240065,0.003049029675384252,0.008198201487463138,0.02166058784558648,0.01949973171948262,-0.18962727195492396
233,2.33,-0.001067010250721031,0.0003758912518244551,-0.0009917666688707707,0.0328998311893916,0.02084624897001871,-0.19190327389544606
234,2.34,-0.0018072389891218145,-0.0024862702295579877,-0.009484024652469648,0.042386811965034785,0.024003443796757503,-0.19248260501863845
235,2.35,-0.0026157641592940806,-0.004784013796940694,-0.01699343152183329,0.051028956497276366,0.028033639091168943,-0.1922439029168754
236,2.36,-0.003804285405037033,-0.007105009986503263,-0.023487111948720336,0.0554444835432221,0.028951578670938814,-0.1933625350116378
237,2.37,-0.004964049427584334,-0.009193710948609901,-0.029053611081917105,0.056564617955698886,0.027442966856182117,-0.19553944813771865
238,2.38,-0.005142841974451643,-0.010565530340823134,-0.033805808028452816,0.05553508810317709,0.029168229822997164,-0.19241900904731707
239,2.39,-0.0050856234505263715,-0.011699945620803634,-0.03775337564263243,0.05329006242642628,0.032722039394545634,-0.18630326059468413
240,2.4,-0.005372300556188364,-0.012810172995486063,-0.04089267250529513,0.051673032380987034,0.03430300670704133,-0.1781223973831798
241,2.41,-0.005585170232123973,-0.014123946062335333,-0.0433210779127635,0.050400738475164894,0.034800988739784405,-0.16880789620614886
242,2.42,-0.005363161325218712,-0.015879378815154863,-0.044984017962381065,0.04967810823804855,0.03459370695422128,-0.15973651290399166
243,2.43,-0.004841802833634325,-0.017785514815619623,-0.046043296438823926,0.049286121296841706,0.0339621825514964,-0.1508113741146509
244,2.44,-0.0037997558257437144,-0.020045254568191524,-0.04639435263038243,0.047710040099523864,0.03629727931869128,-0.13980856986754367
245,2.45,-0.0025015241289944846,-0.02222063552433881,-0.04616260530250144,0.04493172857929443,0.04164443522616343,-0.1266962777977385
246,2.46,-0.0019588730773189263,-0.022824597058024247,-0.045747261804546586,0.0405971141798156,0.041897326574793885,-0.11877902357705986
247,2.47,-0.0014378200360376358,-0.022878850256474646,-0.0448860078885936,0.035379838736612636,0.03926099312504666,-0.11380814797665835
248,2.48,-0.0005416201735319224,-0.022772901101079546,-0.04376216447901724,0.03204259225761851,0.03740478617303557,-0.1095716987407591
249,2.49,0.0005943738509924502,-0.02251832470547572,-0.04195107384455897,0.0297048220437138,0.03596331640491821,-0.10572569121280706
250,2.5,0.0009271645194374638,-0.020586668184000977,-0.03916763413534122,0.025513298300726774,0.034012718308428155,-0.10245952107601022
251,2.51,0.001511396562441179,-0.018663125646408957,-0.035718301880437946,0.02034450559280508,0.03179371596796398,-0.09949903186075702
252,2.52,0.002829256321072379,-0.017547306033831943,-0.03182067307487753,0.015175712884883391,0.029574713627499805,-0.09653854264550384
253,2.53,0.004825650063688156,-0.01684021023473034,-0.027586729785470183,0.006887473458301854,0.0269696126738537,-0.09228096456562744
254,2.54,0.00700546559290049,-0.015981765468895938,-0.023100120614671697,-0.005617741447785036,0.023842570321202475,-0.08626993709867331
255,2.55,0.008651516419941984,-0.01354764493741124,-0.01804425626339619,-0.01852502563592719,0.022575956735153176,-0.08004534114929758
256,2.56,0.010113943344943577,-0.009195560003402272,-0.01226385964877484,-0.032426314438039304,0.025908736488758646,-0.07329275645171275
257,2.57,0.009214491823715493,-0.004781898035661867,-0.0072895378420172255,-0.04106066693574968,0.02519357565313773,-0.06744858616344103
258,2.58,0.007109669232255411,-0.0003886897370091683,-0.0028739915904795266,-0.04403016598194285,0.020124652232757348,-0.06258146101196056
259,2.59,0.005495214919516017,0.0029858699275159585,0.0007907364018052978,-0.04728654422025248,0.017892551930176255,-0.056398549387569115
260,2.6,0.004302153606971856,0.005963519210797963,0.004166653545108924,-0.05075653034271303,0.01777272676136477,-0.04923591399025648
261,2.61,0.003820439406804637,0.0095874920795444,0.007744251389601578,-0.05259249005462949,0.016579609314810437,-0.04396603710490783
262,2.62,0.0034655762868203194,0.013187403581466542,0.011303623167949004,-0.05349728557968958,0.0147748669124937,-0.039774765148668935
263,2.63,0.0026547761593080253,0.01693140529507929,0.014415890680288666,-0.05621744857126895,0.012814732037101808,-0.03781201253218522
264,2.64,0.0017037653150782876,0.02026330222542467,0.01737684079275962,-0.059921145524820064,0.010770408270191855,-0.037056632249944425
265,2.65,0.0006897941100541616,0.02319300121470848,0.020004393565610352,-0.0596515229055092,0.009110628057248915,-0.03803317728741362
266,2.66,-0.00030694277841266716,0.0256136664129973,0.02247883628310532,-0.056592122713763314,0.007720846509857281,-0.04022575499616854
267,2.67,-0.0017973641764091094,0.027545262281839348,0.024788814137431846,-0.056570717461339674,0.0019563985079347253,-0.04304905623510751
268,2.68,-0.0030619419385277875,0.02891457714388776,0.02691574699053529,-0.05816938985365123,-0.006140936634260528,-0.046208704673982096
269,2.69,-0.003783239160586269,0.029787364413277808,0.02873250255065225,-0.057098129358986414,-0.008327212082113716,-0.051221717942769536
270,2.7,-0.004148308394149593,0.03013320497563588,0.03013178085120433,-0.05455351670012423,-0.0072515805974590845,-0.057257475676977525
271,2.71,-0.004492691686675897,0.028557967469695595,0.03120455041454682,-0.05185483261638808,-0.008202584101071796,-0.06251591512812242
272,2.72,-0.004691551000894515,0.026786627164391556,0.031649869624735386,-0.0490671284067623,-0.010324546476100569,-0.06732523189820434
273,2.73,-0.004671242851093927,0.025819540984574674,0.031304280956399956,-0.04627942419713652,-0.012446508851129344,-0.07213454866828628
274,2.74,-0.004552158689177116,0.025082856697643145,0.030238101017748653,-0.04349171998751074,-0.014568471226158116,-0.07694386543836819
275,2.75,-0.005965699058377138,0.026976075890038226,0.028196711527735063,-0.03963297834672598,-0.019544328776257773,-0.08251545758645333
276,2.76,-0.0069736407678919745,0.027670651399031305,0.025693575832267328,-0.03519625576734043,-0.026060279103666657,-0.08849840850280652
277,2.77,-0.005997764589454952,0.02358750415908374,0.023457655256709387,-0.031464170783867096,-0.0279171552447886,-0.09318687284720302
278,2.78,-0.004134744211609455,0.017087489691923797,0.021111674205395746,-0.02844295161129597,-0.02507377615016668,-0.0965694087937758
279,2.79,-0.0030510627131771443,0.010374158313379312,0.018218017346559718,-0.020528101090150703,-0.025459908161603647,-0.1006625326372344
280,2.8,-0.002255299148785987,0.004506763549570008,0.014782258646052348,-0.010149144211108165,-0.027472206568197915,-0.1051134611516704
281,2.81,-0.0008590539719698937,-0.0007324005518016437,0.010917466009641504,-0.003136526673388858,-0.02749010189683601,-0.1068839952930236
282,2.82,0.0002228490082113665,-0.005021805035388358,0.0068563992178488275,0.0022670542947414284,-0.02655471617993609,-0.1073733595551942
283,2.83,0.00017806882711140842,-0.00887656476635221,0.0029408244793785463,0.006553204660396035,-0.027204907489470454,-0.10918188954929164
284,2.84,-0.00032229017363297977,-0.012260178518854904,-0.000824891660126593,0.009911333308417073,-0.029171914279314592,-0.1120859814920898
285,2.85,-0.00015225512671185933,-0.015186041551196459,-0.004687680957582232,0.013256455406018035,-0.02848751172469378,-0.11128019206403973
286,2.86,0.0002803700816916545,-0.0178017564977345,-0.008343915373984196,0.01658855012605654,-0.025147454174135702,-0.10675858070249793
287,2.87,-0.00016989859902041718,-0.01988611619008842,-0.011600726980583608,0.017558307370175767,-0.026356871663604703,-0.10389094324758584
288,2.88,-0.0007123967296879129,-0.021702712930761522,-0.014260802544584297,0.01718477467700756,-0.030153245548383226,-0.10196380075918876
289,2.89,-0.0008722150047706537,-0.023954725749418912,-0.0164734385864854,0.021186889035490267,-0.034648973491170305,-0.09914594189075626
290,2.9,-0.0007423981906837453,-0.025975312806787314,-0.01803977441306467,0.02750804277385651,-0.03951535052467674,-0.0958560142431863
291,2.91,-0.0006204480789399492,-0.02757501526589025,-0.018950078515566328,0.03014453214787248,-0.04191139803105471,-0.08961371296095567
292,2.92,-0.0002786720878439762,-0.02867742023098399,-0.019308855183081147,0.031096802942409112,-0.04317828573463478,-0.08202191494377963
293,2.93,0.00033713664205839173,-0.02938411665602192,-0.019160913892781763,0.03138662252809258,-0.04450542733943267,-0.07535826333866208
294,2.94,0.0010968160257608097,-0.029664591463544915,-0.018693740281564734,0.0312068851051768,-0.04587527796375405,-0.06935249815138775
295,2.95,0.0019521958322208403,-0.029682838125444245,-0.01787555491445922,0.03036513667758785,-0.044618156791116914,-0.06314907492837288
296,2.96,0.0027803417211956687,-0.02924822313432547,-0.0169233238442676,0.02901203696351084,-0.04133190710179328,-0.056792976462579324
297,2.97,0.003306213714386821,-0.02835338793076407,-0.015642208402682496,0.031026133025717124,-0.042887009839891715,-0.046720409059135305
298,2.98,0.003730867573285887,-0.02684099406789852,-0.014463177309266266,0.034956566618219914,-0.047197421734472174,-0.034532725880254564
299,2.99,0.00481703479102753,-0.024613628709696567,-0.013202907488420896,0.03481763010720799,-0.04557757414673698,-0.02405286309882247
300,3.0,0.005684517891102541,-0.021855168669615593,-0.012174949131683002,0.03243112780477953,-0.040682367472059985,-0.01451625163283934
301,3.01,0.005852023035781638,-0.01869848273903374,-0.011514135699678366,0.030044625502351083,-0.035787160797383005,-0.004979640166856213
302,3.02,0.005726587219608439,-0.014695060876471154,-0.01099840547825146,0.02353617334825983,-0.03202977011651978,0.0065063165677008246
303,3.03,0.005274254382030871,-0.01060548137243678,-0.01038952104680357,0.014937237207605624,-0.02884943306326519,0.018980901309605443
304,3.04,0.004656380966402949,-0.0063618056725626235,-0.010112224099146215,0.008860992572104254,-0.02675031548146042,0.027272285583196575
305,3.05,0.0038623827264901356,-0.0024041499830751087,-0.00939147421183269,0.003996058067259454,-0.02517036248896637,0.0335550401470173
306,3.06,0.0023021205296897647,0.0017035091409449725,-0.008876402951638785,-0.00595100842296008,-0.028703204493211707,0.046965246382579325
307,3.07,0.000942109858959522,0.00538869700425664,-0.007539890664626826,-0.018242703099330137,-0.03459482098301983,0.06366368364659193
308,3.08,0.0006299466925071282,0.009116900332973776,-0.00478339545250993,-0.023410216322525258,-0.038541378767116094,0.0702995824045015
309,3.09,0.0006471000292014026,0.012440723813809954,-0.0015081448529811019,-0.023932240664887486,-0.04121961560103149,0.07037396794853555
310,3.1,-0.00029937291816698407,0.015371028320168668,0.0014263966345569243,-0.02617592742732624,-0.04412988297328824,0.07150932760891529
311,3.11,-0.0015210809582077598,0.01796585687956691,0.004035814405323372,-0.030148868626927432,-0.047273204069262886,0.07371033996462642
312,3.12,-0.0021052977923278074,0.020964831685711813,0.0069259292298448055,-0.035383481242026234,-0.0479773400280275,0.07518774292481152
313,3.13,-0.002224519713718155,0.02383432513353314,0.009618574217400684,-0.04190062775620214,-0.04620195747969879,0.07592957117984504
314,3.14,-0.0009598142586989033,0.025205840281293274,0.012292095482360526,-0.047879257108378814,-0.04118172545340122,0.07675140832653521
315,3.15,0.000701258096989042,0.025706580376226654,0.01441189704572561,-0.05332044525692188,-0.03292312716487498,0.07765309450695662
316,3.16,0.0014379388663145775,0.026382294046269,0.015171226867955821,-0.05840541463262025,-0.02777401575155292,0.07607618620104029
317,3.17,0.0014308714631702732,0.026622215129407847,0.0147452280886042,-0.06330646817487874,-0.02423033311913611,0.07321957899808376
318,3.18,0.0015253058219159114,0.024663112757345014,0.012613480632469247,-0.06505259785102233,-0.02268850846818416,0.07196278070023032
319,3.19,0.0010553062141539734,0.022878510373635016,0.010298695652607763,-0.06535731708950039,-0.022061285598973742,0.07143689742661978
320,3.2,0.0001004026365207366,0.02455426132878229,0.008806114085907606,-0.0621283476565107,-0.01668889516457947,0.07052596960881215
321,3.21,-0.0011193823198497326,0.02755748080289295,0.007858102874397395,-0.05501869704297923,-0.006105382817433988,0.06919218758531265
322,3.22,-0.0025008635358941,0.026002555799357167,0.005855874298616462,-0.04684115610891715,0.0004063555392455872,0.06476401525153477
323,3.23,-0.003873309382312848,0.02218305202998739,0.0036746955681342085,-0.03754051181354198,0.0026357973273719785,0.05708146361318426
324,3.24,-0.0052373733516525986,0.019220845944536148,0.002621938147770963,-0.02862738748806538,0.005103643898661543,0.049360772081327935
325,3.25,-0.0063152446651817875,0.016683365611464045,0.002057965113458596,-0.020459180275970656,0.008029768279316202,0.04156676546487745
326,3.26,-0.00730347424267251,0.01448055501077903,0.0025759504188001157,-0.013639299758902592,0.009203773591201496,0.034215731696275266
327,3.27,-0.008013797783094287,0.012484661212772353,0.0036527223382874013,-0.008184569493933366,0.00860379801458233,0.0273131979070502
328,3.28,-0.008294214684194692,0.010167955404716284,0.005838985166216776,-0.007210494650190558,0.009645411772049271,0.021146362363312018
329,3.29,-0.008171431512556315,0.008141467825325729,0.007716112597741994,-0.008404607568522147,0.01148139009673016,0.01533553097130746
330,3.3,-0.007914014572241047,0.0069796476305463515,0.00843157087267277,-0.00790735673095151,0.012072857069009357,0.006730601587727274
331,3.31,-0.007239899924348892,0.005655333778239194,0.008365375837994037,-0.006617092804538347,0.012080822243864024,-0.003184369039846646
332,3.32,-0.005488973364547237,0.003035184468089959,0.008405026994665483,-0.0009628121599225252,0.013019255097794087,-0.0068550034152962324
333,3.33,-0.003548552346799214,-8.385743977134402e-05,0.00783789926100153,0.0071611766618909795,0.014484263302832591,-0.006991808912703646
334,3.34,-0.0019672636418481496,-0.0031838256957094097,0.0063110935667110785,0.015285165483704488,0.01594927150787109,-0.007128614410111056
335,3.35,-0.0005754609205728275,-0.007491340119823846,0.004676856501708815,0.026509592720375903,0.018447883086306925,-0.0069855639012160005
336,3.36,0.0006683765823412211,-0.011939790224967066,0.0027369700576588126,0.0401611950470172,0.021755650024448167,-0.006623428399688722
337,3.37,0.0028972083597487517,-0.016623566761651665,0.00047877790454336957,0.04914127086571477,0.027300625056112214,-0.0031521307161717768
338,3.38,0.0046512635555261885,-0.02026760581179855,-0.0020670907973070448,0.05587721588970065,0.033920321074227995,0.0018127615314541953
339,3.39,0.005237011921189894,-0.023096309522892267,-0.00452366844055567,0.06073385853466275,0.036895431706206884,0.008396516454299629
340,3.4,0.00522712157284364,-0.02488041022262621,-0.006898189001868459,0.06472549517806482,0.038193011214192836,0.015725402094477387
341,3.41,0.006017868200918472,-0.02558829275191268,-0.009373307110493747,0.06358013589107897,0.04331316151792069,0.023599873737523147
342,3.42,0.006388332946697012,-0.02585797922366375,-0.011373743365083209,0.06005275038812874,0.05020583879484968,0.031727333737870705
343,3.43,0.0055641460645093985,-0.026319808913218796,-0.01302795245027245,0.057736467586312075,0.0501094152257407,0.04116607446363546
344,3.44,0.004422305698059779,-0.02670977256843144,-0.01390599638772337,0.05611064072857076,0.046028468941611465,0.051352383145749685
345,3.45,0.0043473242979533795,-0.026363063732083324,-0.01459408575008094,0.05270360150257937,0.04669157890953495,0.0650920060568414
346,3.46,0.004336216203109897,-0.025922654815180593,-0.014365154650535502,0.04830286832259148,0.05000127953622156,0.08081393435100967
347,3.47,0.002645620166350614,-0.025821674676129683,-0.01330637106533471,0.048893449780251036,0.04882141971575458,0.09035355875236306
348,3.48,0.0011429815949554863,-0.02567424241051091,-0.011383120863628882,0.051877410545591536,0.04548877613892942,0.0969287140138122
349,3.49,0.0010958576845199602,-0.025586407129011012,-0.009386362758639952,0.05165548767361376,0.04111878011717327,0.10522811100263227
350,3.5,0.0018311087881350122,-0.025176223522269465,-0.007281268888912888,0.048080766693213116,0.035663893404237236,0.11533076570632965
351,3.51,0.00014556276293534653,-0.02195503451095188,-0.0032519453570614984,0.045933351037770916,0.03234904340305608,0.11995022605207352
352,3.52,-0.0009176212265644894,-0.01855917785268199,0.0005928521710199062,0.04444777719577548,0.03002652892629521,0.12202712788991388
353,3.53,-0.00019431723167733905,-0.016070628545062735,0.00327616653629327,0.04296220335378005,0.027704014449534343,0.12410402972775425
354,3.54,0.0014459792661783801,-0.013894173045156638,0.004996603985595495,0.0414766295117846,0.025381499972773475,0.1261809315655946
355,3.55,0.005748816039090809,-0.013420228080897052,0.00644163835588376,0.027323717299793736,0.023363195626325002,0.1358302075260196
356,3.56,0.010412507943698645,-0.012989422366650667,0.007380370565633917,0.000319734170942082,0.021653513805310283,0.1531616905938854
357,3.57,0.008707109084552668,-0.0062912585648709895,0.007671533791552567,-0.010271115169773212,0.024018526973804296,0.16170692460421635
358,3.58,0.005644087524955866,0.0010645171098459007,0.007112114835558693,-0.01296294633871321,0.028344536145988707,0.16602367051086925
359,3.59,0.004504413674733173,0.006991293791081913,0.006639422748955498,-0.01900978041446236,0.0313562959427332,0.1732109737906371
360,3.6,0.0038366780834480536,0.011520827323661754,0.005584953078339381,-0.02691772306786932,0.033639006956584415,0.18199065093658567
361,3.61,0.0031632137273136718,0.015259192910079435,0.0034415940801555828,-0.03256143458843582,0.03644707807002109,0.18835198961333952
362,3.62,0.0021107790799240324,0.018166551171247946,0.0010659962436276316,-0.03705887696643916,0.039521113228450505,0.19348904216342316
363,3.63,0.0005172507464479719,0.02112156479380453,-0.0015208952875962632,-0.04297146817624462,0.041743973776099216,0.1944758764480846
364,3.64,-0.00130862085800735,0.023550720848188107,-0.003547470208751807,-0.04971197416464916,0.043468865471569834,0.1930346784585864
365,3.65,-0.0031840702020374,0.02578315554547108,-0.004965198551239643,-0.05515780351283205,0.042062943648342004,0.19018202124439684
366,3.66,-0.0049470638552287435,0.02769939169040436,-0.005660889283809522,-0.05930168567407726,0.037508626521713835,0.1859099784400343
367,3.67,-0.006331941010223158,0.028719573842131103,-0.005827828190071064,-0.062250547903968424,0.0360806981593795,0.18605051497799344
368,3.68,-0.007436001508899274,0.029093669852902623,-0.005122191176436127,-0.06452399661498033,0.03641977399611622,0.1886849979872508
369,3.69,-0.008846446294018859,0.029244420816945477,-0.003847946916420315,-0.06408831007730519,0.033315679359212,0.18746859833589394
370,3.7,-0.00984209843974317,0.029072329144130327,-0.001980963171386482,-0.062204092660804684,0.02837057705960597,0.1841931938979227
371,3.71,-0.010095296462309802,0.02871798490959407,0.00026997296909500416,-0.06074977554283875,0.0271308982462986,0.17951191171165964
372,3.72,-0.009779989784267768,0.028083242710283948,0.0026058443721280068,-0.059572630985770064,0.0282802424702101,0.1739242083455768
373,3.73,-0.009151716534195121,0.026814500534655852,0.005094991623478375,-0.05707475249756186,0.027564627839625325,0.1690141683107809
374,3.74,-0.008209606543166745,0.02529433631573426,0.007165596500914126,-0.053864771352622604,0.025843479752475914,0.1644695053191585
375,3.75,-0.0068758878986524335,0.023727260084561094,0.00900158838021907,-0.05125717327233347,0.025785939986175198,0.1624725551088978
376,3.76,-0.005419779005390537,0.021990925052319137,0.010060925826212602,-0.04901394395639457,0.02673468167730968,0.16201666242920246
377,3.77,-0.004025743617581654,0.01998595441846157,0.010039304008211701,-0.046770714640455666,0.027683423368444163,0.16156076974950706
378,3.78,-0.002713346980292785,0.017659198003144673,0.009240194560021163,-0.044527485324516766,0.02863216505957865,0.1611048770698117
379,3.79,-0.0015261455882546423,0.014550136110470891,0.008317241366220635,-0.0410065160698199,0.028238076869549725,0.16190874584682616
380,3.8,-0.00043130923734915503,0.011186072530981975,0.0069740100200104726,-0.03677055447259907,0.02709257358070386,0.16341754664297267
381,3.81,0.0006266905020534427,0.0072883733370048415,0.005268987603366989,-0.030939696605852468,0.02888124523695196,0.1626734307348051
382,3.82,0.0015867026319327233,0.003472346136645139,0.0032818084029346043,-0.02427914353778067,0.03219633018935568,0.16075730495096674
383,3.83,0.0027368654697774012,-0.0005056887319251514,0.0010889003294418773,-0.017905225965509152,0.03444017836562923,0.16424391141260944
384,3.84,0.0036750017935998965,-0.004210900141491921,-0.0010342775020436138,-0.01167857464705934,0.03613365148616772,0.17050630855562707
385,3.85,0.003975024971326879,-0.008106792716192381,-0.0031140465787316664,-0.005565463265447553,0.03642297221198555,0.17117101018730327
386,3.86,0.0040990536899365,-0.01160122943943511,-0.004796034685272765,0.0004957261806064206,0.03607017253345576,0.16927587962507254
387,3.87,0.004560467408173147,-0.014918039680195961,-0.006283571294579342,0.006300032940856058,0.038072291023495235,0.17020156428390418
388,3.88,0.00498078393267176,-0.017879039460619903,-0.007231387247010977,0.011949617378410856,0.041492793970457006,0.17282624660592652
389,3.89,0.004593230727333672,-0.020611380735546248,-0.0076292633464973,0.016246031203802632,0.04073796129839925,0.16780721281405278
390,3.9,0.004125730006556387,-0.023025769031741534,-0.007477785033283385,0.019714841085091486,0.03742947855798062,0.1581132551459122
391,3.91,0.004916242951415277,-0.025674012498294204,-0.007044371986711726,0.024660003334730358,0.03640981561732909,0.1488249335021855
392,3.92,0.005684756591692696,-0.027861382174710354,-0.006239773230817227,0.030370465764379406,0.03657661347175877,0.13974688233938032
393,3.93,0.004729922139989944,-0.029215705882418678,-0.004806361165660316,0.03317279167418012,0.035526641931098266,0.13274996508511122
394,3.94,0.002855971067865206,-0.030004260650150136,-0.0031013897980273313,0.032266333694617934,0.032924908738678836,0.12840714465845185
395,3.95,0.002977734169304353,-0.031059992163108598,-0.0019407827494048375,0.03511212142145951,0.03176586351408854,0.1203285194112405
396,3.96,0.0036826686487730414,-0.031602215620468055,-0.001084604742021664,0.03988142460723353,0.031346384092398386,0.11033480680404567
397,3.97,0.003715760217988048,-0.0317263838202521,-0.00012128166687578896,0.041821268921587065,0.027322843896909213,0.10312304275809428
398,3.98,0.0036521472969720603,-0.03103206280575977,0.0006033380348240043,0.04239069252977388,0.021553712146587568,0.09725868826466436
399,3.99,0.0035940695152341003,-0.029909871396348764,0.0010913447843565614,0.04435557839745488,0.015463211147390332,0.09631076901460314
400,4.0,0.0035728925441221256,-0.02796680494374059,0.0012843326515701837,0.04697293605244855,0.009222448565140894,0.09766161153228076
401,4.01,0.0029224126999788406,-0.025219086739498166,0.0013592720940382686,0.04687259513645994,0.0038595045443012405,0.09926016494491492
402,4.02,0.0023746163795914546,-0.021876111136060993,0.00123824722622404,0.04546552132250308,-0.001081363825879803,0.10097782353686548
403,4.03,0.002323218359010131,-0.017990717032356704,0.0008385137689594325,0.04198404865168857,-0.0030753304047235475,0.10459108785302897
404,4.04,0.002382288127799768,-0.013880135883653348,0.00037381309642154216,0.03688192877991614,-0.0027669971515748787,0.1096853152447888
405,4.05,0.002258485997646699,-0.009809931826357561,2.4393209697480133e-05,0.03177980890814371,-0.002458663898426211,0.11477954263654863
406,4.06,0.0016140034116392575,-0.00559817016286328,-0.00040329798585450746,0.027483816945921592,-0.004323079993918347,0.11833840876005378
407,4.07,0.0007438249651805615,-0.0014745827233469972,-0.0007063513928329784,0.023818389124675446,-0.007887049981975891,0.12069629455806084
408,4.08,9.396610526365675e-05,0.0020564086663310693,-0.0009866762139682768,0.017828680037556652,-0.011485522972566942,0.12872758345803156
409,4.09,-0.0005170587093394174,0.005291847402840978,-0.0011120166573106993,0.009508172573064671,-0.015118595709539988,0.14244818325957076
410,4.1,-0.0013517396334037607,0.009533077442461527,-0.0005426453062877181,0.0017873151457737343,-0.017284895015680538,0.1553149349644292
411,4.11,-0.002314845669883741,0.013968126645261453,0.00033963342270777806,-0.005332932036090048,-0.017982072174526086,0.1673264713218515
412,4.12,-0.003430081515497144,0.017840828766314154,0.0014515584038918212,-0.009250138249737751,-0.020421091804294942,0.1764701402487356
413,4.13,-0.004448382492555565,0.020708279697773634,0.002296442590670071,-0.011693047569136472,-0.02366184733773644,0.1842937860825916
414,4.14,-0.005735298887840468,0.022942273476891168,0.0027904180392245813,-0.01759116486302091,-0.028568816898284482,0.1946854644939641
415,4.15,-0.006988773374421041,0.024664746569664962,0.0029946817975898825,-0.027300547314881702,-0.03531370287779655,0.20790980975477394
416,4.16,-0.008852664122198374,0.02708638525860331,0.0031231113748899156,-0.037268777237929165,-0.043393523956521886,0.21814001902744312
417,4.17,-0.010482920899783706,0.02931507103249576,0.0030932668904775423,-0.04749730824812664,-0.052815776761572016,0.2253592780705621
418,4.18,-0.0083072994269576,0.02772078405279345,0.002205792386268023,-0.051781002573768914,-0.057550477666881664,0.2283777950271968
419,4.19,-0.005405071960312227,0.025246639005590592,0.0011901399785933199,-0.05298716799805776,-0.05985852209472664,0.2292216676892498
420,4.2,-0.004767250396230928,0.025019409226345567,0.0005028962501431279,-0.05478243562582195,-0.06251845723946703,0.22517809990924256
421,4.21,-0.004470538986285967,0.024937226048524355,2.8600393072734454e-05,-0.05687022661652105,-0.06535312650552719,0.21870763488488396
422,4.22,-0.004474368482717908,0.024383656537546178,-0.00044031390737748013,-0.05698589439164387,-0.07049376076689175,0.2100212596727958
423,4.23,-0.004091005177004784,0.023320410519704897,-0.0007642267328218871,-0.055836982254858496,-0.07711304351613651,0.19991398160440388
424,4.24,-0.002779761910866523,0.021741522742573995,-0.0008019322830466226,-0.05501351971518882,-0.07868313794954937,0.18659637604960985
425,4.25,-0.0011125060663770589,0.019896151213123842,-0.0006881910552927466,-0.05441668492720023,-0.0767372157525144,0.17104324982786395
426,4.26,1.5024624231376967e-05,0.01820914353693592,-0.0004446944645396918,-0.053900197921739744,-0.07787615869026694,0.15842135510951968
427,4.27,0.0010295754095836869,0.016425642063079036,-0.00020660555050768252,-0.0534283985874208,-0.08073083583152564,0.14742974694473238
428,4.28,0.002406796434970512,0.014361696528230636,-0.00014876577538066042,-0.051891946529792864,-0.0804731340910469,0.1346792238329141
429,4.29,0.0035806829729852353,0.012176760749577551,-0.00012255425634272938,-0.049848472079871635,-0.07873321589463589,0.12109104798724254
430,4.3,0.004085125898119653,0.009699459943547473,-0.0002301929973673283,-0.043990528011398126,-0.07771791326081298,0.10616306693355422
431,4.31,0.004211889011477406,0.007261327668971522,-0.0002792851015720337,-0.03615790555942458,-0.07707773032405912,0.09054149420213856
432,4.32,0.0046337648752545115,0.003952060855483352,-0.00010960252675704571,-0.028528419865988825,-0.07573272263073501,0.0759447704577127
433,4.33,0.004697059298586744,0.0010746134605476377,9.73275967510561e-05,-0.020992260867806586,-0.0740638987766282,0.06181889093556413
434,4.34,0.004185090602873352,-0.0009243596453227766,0.00024754395154190085,-0.01345610186962433,-0.07239507492252137,0.047693011413415566
435,4.35,0.0018980588088713512,-0.0025911049004295065,0.0009141664010689707,-0.00601356147092824,-0.06888424986904981,0.03052979512296008
436,4.36,-0.0008263744791310282,-0.004178868833513132,0.0016301232964164728,0.0013353977682335064,-0.06353216026936258,0.010330456755966656
437,4.37,0.0023221754985771315,-0.0074878302349873915,0.00107712163342785,0.005986932909624275,-0.0593695919089651,-0.0003560723669143043
438,4.38,0.005403212678375851,-0.010446621577803726,0.00019192290369632976,0.009264923090876304,-0.0558127350881637,-0.00619862044698882
439,4.39,0.004271765413718875,-0.012322199945660368,-0.00022197710439956987,0.013934946559637873,-0.052984136033057176,-0.010482665456537664
440,4.4,0.0011758018815146115,-0.01363787279556754,-0.00039926567288092523,0.020016629162862797,-0.05089406222473286,-0.013186234542602766
441,4.41,-0.0008122583275150682,-0.015127893192538369,-0.0008327032199622262,0.02380623979480611,-0.05066469068240309,-0.018060991602938448
442,4.42,-0.002106661093130955,-0.01639868856184032,-0.0013142260262639376,0.0263907115782544,-0.05141364993174515,-0.0240773284251503
443,4.43,-0.0022071699923488053,-0.017841700321093158,-0.0019452875134681313,0.029324317473802687,-0.04714287969800154,-0.026474040639196263
444,4.44,-0.002065552465991003,-0.019058665200127754,-0.0023916959055697235,0.032435784143439644,-0.0403148887841954,-0.027026793147195454
445,4.45,-0.002178119638512888,-0.02031156008631055,-0.0031240892365302893,0.03906759356209873,-0.03818998263876965,-0.02851753193655786
446,4.46,-0.002253041640305458,-0.021293375880099632,-0.003395405681319872,0.04730776470292178,-0.038213805198711134,-0.030436814574748224
447,4.47,-0.0016328603579344285,-0.022525011142684053,-0.0035443565325653176,0.053850055783572534,-0.03483987864089683,-0.03477823823303325
448,4.48,-0.0009284718219097188,-0.02337898435473895,-0.0031030683105878715,0.05961698575881324,-0.029914321568273432,-0.040225767076751184
449,4.49,-0.00021897996040183337,-0.024558874259070048,-0.002067207293979359,0.06762242230279948,-0.0265946274337776,-0.04898325231157105
450,4.5,0.00043233897950217294,-0.025073617481403243,-0.0007398908216135762,0.07671452543422783,-0.024054487678634256,-0.059347531587704214
451,4.51,0.001560314015900725,-0.02513079518488072,0.0009419905411577037,0.07585568887269363,-0.02063693186289579,-0.061926195526271086
452,4.52,0.0025604112299317605,-0.024383386975931773,0.0024080051088231354,0.06962450944643403,-0.016745674059407634,-0.060301538341723165
453,4.53,0.0031086932430784875,-0.02269987111278921,0.0033470764436666755,0.06339333002017443,-0.012854416255919477,-0.05867688115717524
454,4.54,0.003425290944611577,-0.020475937387633165,0.003821702741346809,0.05716215059391482,-0.008963158452431322,-0.057052223972627325
455,4.55,0.0036424267426258083,-0.0179624372569315,0.0039039565524623706,0.05093097116765522,-0.005071900648943164,-0.05542756678807939
456,4.56,0.004563695658255698,-0.013597640316265015,0.004086951910350533,0.0461472300989908,-0.00035471588180480476,-0.0515736682529007
457,4.57,0.005685475079022707,-0.008684678368307134,0.004147066349004658,0.042934691668758684,0.005259017341183257,-0.04529991544659935
458,4.58,0.006877387896876926,-0.008509135035116201,0.004025966001160776,0.03961261968519275,0.011937151089402971,-0.02949804938136262
459,4.59,0.007762018959684569,-0.010255816576812106,0.0036316171237500247,0.03617353822841707,0.019752333175331368,-0.00351775415740796
460,4.6,0.006024354550911375,-0.006701466206290007,0.0019366021100363476,0.035477583498863034,0.02481221882217587,0.0113702878492159
461,4.61,0.0033347414303729096,-0.0012494584181290194,-0.0001911747118755456,0.037057947105621936,0.027585687387365204,0.01705368789049755
462,4.62,0.0025455977154796115,0.001330260143419082,-0.001219693792606095,0.03326468892215622,0.03263785378006318,0.02627404939245996
463,4.63,0.0020313861008076817,0.003131474977211012,-0.0020080502817349227,0.026446143822718454,0.038972900693968734,0.03748567928788471
464,4.64,0.0011246116455832142,0.00600199790967032,-0.003159246681957711,0.017693674800260448,0.04395557217490295,0.05013688345799152
465,4.65,-0.0001273555189341964,0.009087157918712842,-0.004239323802403238,0.007998550907099274,0.04827905366716437,0.0634897810533747
466,4.66,-0.0013016659475383204,0.013261245603281001,-0.005289568272871177,-0.0037952982661334407,0.054509882603996966,0.07124879999884481
467,4.67,-0.0025097892333271433,0.01692574180067156,-0.005878572527824524,-0.016649250094381233,0.061704145921320376,0.07618225350947021
468,4.68,-0.0037393366886249516,0.020665876387930368,-0.006182385887994262,-0.029180891681223564,0.06549880153762386,0.0774990100867553
469,4.69,-0.004813672692516216,0.02330186590769379,-0.005887302319998543,-0.04154523354227483,0.06752884231048434,0.07693846855964669
470,4.7,-0.005137598044574318,0.025057797277660637,-0.005314983971218202,-0.04980484730716733,0.07024043591514995,0.07508292361468602
471,4.71,-0.005056817553392611,0.026103201507552243,-0.004404757899506191,-0.05394986979265038,0.07363522004364745,0.07192926350957972
472,4.72,-0.0044475996160308895,0.027526942343586477,-0.003263641344608056,-0.056556988664979185,0.07533675770540747,0.06636597063608357
473,4.73,-0.004118942600790619,0.02796430382993672,-0.0016675189951559513,-0.05829263685443493,0.0760787978784961,0.059437231777428975
474,4.74,-0.005333301936026784,0.02641913410417277,0.0005390632420660996,-0.06010620800687042,0.0762672759891792,0.05090604066736777
475,4.75,-0.007035450678959443,0.024020512336363573,0.00287103570929024,-0.062002356635007465,0.07586912653836354,0.04067667925174792
476,4.76,-0.00882204334276854,0.020803393794156,0.0051689374190877855,-0.06346349780623978,0.07654704262118019,0.033017185493458764
477,4.77,-0.009798385119144394,0.017948048832897717,0.007026811365793809,-0.06457725892195827,0.07808426283517081,0.027409888209728662
478,4.78,-0.007600216976787189,0.01852176232878045,0.008080853887118513,-0.06816689541689075,0.07776392613942608,0.02058561344535495
479,4.79,-0.004719276199234629,0.01947813338121038,0.00844687866757716,-0.07298151659122504,0.07652452914902902,0.013159216788465485
480,4.8,-0.002858717021334933,0.0195909989999953,0.008396870741110889,-0.07412308031783517,0.07527181901688718,-6.235880469811911e-05
481,4.81,-0.0014430603599554117,0.01883846269426168,0.007854656026219844,-0.07339262684282746,0.07401232368448407,-0.016237515933015936
482,4.82,0.0002764112476365773,0.01735699531361165,0.00684333643085121,-0.06928187532469239,0.076256975890601,-0.031111620122950587
483,4.83,0.0017163506513619003,0.015349152958892057,0.005525331581898618,-0.06294003731594072,0.0808144585437889,-0.0451269948170334
484,4.84,0.0022194895865317904,0.012128834571327051,0.004177722164741521,-0.05296742059262448,0.08009265909045522,-0.05888284023721601
485,4.85,0.002267703559125359,0.008844941220649598,0.002732916784295067,-0.040963990950371176,0.07641798502054692,-0.07249352247238694
486,4.86,0.0021440637109000514,0.005106628753194606,0.0012855220486992082,-0.028226488220459117,0.0743111980077835,-0.0853011660847679
487,4.87,0.0019174172227905328,0.0019192323786377911,-0.00016833249489055018,-0.015081065598027271,0.0730756761736326,-0.09766256608162213
488,4.88,0.0014808226641357968,-0.0012459248009155342,-0.00164503913293281,-0.003922157932796828,0.07181964353134299,-0.10967766104978932
489,4.89,0.0010545161872174474,-0.0036596501853569663,-0.002988330412037923,0.006186244421783926,0.07055276439993065,-0.12150962360789253
490,4.9,-0.00029302498401007613,-0.005691693013969162,-0.004199937879915143,0.011344316840725245,0.06816534554790339,-0.12862669348898198
491,4.91,-0.001314929358552671,-0.007243217348460588,-0.005132705234734406,0.013655696143424706,0.06513355899703142,-0.13303245872937572
492,4.92,-0.001289429467307037,-0.008300464298592897,-0.005708425729399606,0.015967075446124163,0.06210177244615945,-0.13743822396976946
493,4.93,0.0014790005485947936,-0.010901975376017269,-0.006768946678878415,0.026220049472849054,0.05689962826503747,-0.14558186207874568
494,4.94,0.004563092352677942,-0.013846527375022477,-0.007586369248525418,0.04306050803648051,0.04989719109168106,-0.15682603359170155
495,4.95,0.0026613109865960306,-0.015039646990582719,-0.0068847450227012864,0.053977488623043385,0.04471366697298382,-0.1628699179146848
496,4.96,-0.0012871100820193442,-0.015595425020380414,-0.00541210440497721,0.05881251958823835,0.041397717547213886,-0.16357439102883115
497,4.97,-0.0019786046707364327,-0.018067962580522186,-0.004656843665885894,0.06325354453191702,0.03818077737103378,-0.1635704460478023
498,4.98,-0.0008684344953879168,-0.02142366778016295,-0.004219808443787908,0.06727316568437137,0.03506973119358713,-0.1628088221106754
499,4.99,-0.00023365067742134012,-0.024085008479657076,-0.002979488688731183,0.07334011513857347,0.03172283586452932,-0.1589106603803268
500,5.0,0.0004136091108788956,-0.02573083072953344,-0.0015368520113211827,0.08050947213987054,0.028248944838450123,-0.15332359368439727
501,5.01,0.0008755242076866269,-0.026929967758025683,3.837598654734468e-05,0.0825528449945469,0.023638414298672517,-0.1504800396376513
502,5.02,0.0015141421517298427,-0.027363115248683498,0.001298263758263579,0.08205889784481883,0.018465256545581205,-0.1489945017938425
503,5.03,0.002306543145691582,-0.02673017707460514,0.002451903257178989,0.0767143328552255,0.015785875846671068,-0.14395209832315187
504,5.04,0.0031758837700047505,-0.025772907888483118,0.003079041073790876,0.06912365148477283,0.014261258041174753,-0.13726266051316632
505,5.05,0.0036689438785638146,-0.024847078461362207,0.003401598111868936,0.06452574096900184,0.011218068759262886,-0.13153069252731814
506,5.06,0.004053749776996023,-0.02395006544531493,0.0032872398118715704,0.06186224243470605,0.007193333277744915,-0.12641759621245496
507,5.07,0.004516843790572772,-0.022813992833894237,0.002834132106897034,0.057998387250824734,0.004639086010858864,-0.1207088028881479
508,5.08,0.004909851318084811,-0.02159112663420264,0.0021039002317111517,0.05337480274398563,0.0030155396453303103,-0.11462298121495047
509,5.09,0.004883413949452337,-0.01857248314541837,0.0011277525255864776,0.048500987939987514,0.0016163870758285107,-0.10977069866102684
510,5.1,0.004688658840072457,-0.01568831411882215,0.00014127788412187313,0.043472892768487835,0.00035558528842274126,-0.10567895897824936
511,5.11,0.004516202729892951,-0.014201414600632262,-0.0007009849854144067,0.038444797596988184,-0.0009052164989830283,-0.10158721929547188
512,5.12,0.004260465645607595,-0.01323947135672695,-0.0013220567202443614,0.03341670242548851,-0.0021660182863887977,-0.0974954796126944
513,5.13,0.0038698065097004615,-0.012193834816265405,-0.0016878442834791115,0.02838860725398885,-0.0034268200737945674,-0.0934037399299169
514,5.14,0.0018268442461180966,-0.011840333137263641,-0.0009121936348891293,0.005885095931518852,-0.009339813676975,-0.0828469796888786
515,5.15,-0.0003620269512051948,-0.010801634986010515,0.00010716399683418113,-0.030778437601621533,-0.019022396448766462,-0.06705172704762748
516,5.16,-2.0628131347537413e-05,-0.004739292780965028,-0.0005568405688000861,-0.05228926851954372,-0.024312855587901663,-0.056953559845708976
517,5.17,0.0013833709750037582,0.0033871992813576737,-0.0017938118159592283,-0.0586170610812763,-0.025202398054074968,-0.05256388365957818
518,5.18,0.001087648585314451,0.009767100037072186,-0.0021703332305921213,-0.06653286217010798,-0.02989706700245398,-0.04646876912573903
519,5.19,0.0004561966633349682,0.014182212423088262,-0.0018080872315190235,-0.07517587346212062,-0.036334249769262535,-0.039592668755750016
520,5.2,-0.00015141391691726237,0.01745578975327783,-0.0011666829087724267,-0.08001835631211954,-0.041401674052218944,-0.03073782975347155
521,5.21,-0.0006009591965788887,0.019835258612135906,-0.00017332036368017476,-0.0827754632491473,-0.045717502499913146,-0.020797243349272455
522,5.22,-0.0013381104806081136,0.022317808651921144,0.001291200081396954,-0.08618440313834141,-0.04845804251269402,-0.011204866097887914
523,5.23,-0.0018833930113736695,0.024448827814920165,0.002785482570258789,-0.08994340517553265,-0.05035258532418575,-0.0017994920404680156
524,5.24,-0.0023386824307739936,0.026928434280323973,0.0042636944629887066,-0.09462519210509036,-0.05340112071101159,0.0067179296668055605
525,5.25,-0.002578895684803789,0.029129806832290026,0.005405298315497003,-0.09993509312104876,-0.05723514684239256,0.014630946833223244
526,5.26,-0.0025456318206681173,0.030630876443191162,0.006169467464185186,-0.1027438628294549,-0.05953441731282207,0.016321520496866884
527,5.27,-0.002365512443350439,0.0315989743475483,0.006397624755122045,-0.10439499949849657,-0.06112333568973925,0.015132074961742662
528,5.28,-0.0025282220088929212,0.03308726275303544,0.006111436719366488,-0.1042696223159187,-0.06319467883162315,0.013818705424924754
529,5.29,-0.002726411169316389,0.034259296456929426,0.005440703827533526,-0.1028793040087242,-0.0656095255854736,0.012417097585925015
530,5.3,-0.0024243409220873775,0.03414939892717407,0.004585266926815276,-0.10013838547846758,-0.06526645355557881,0.0061251341860997024
531,5.31,-0.0021107274577522772,0.033321970364874866,0.0035320874231529044,-0.0967804095036418,-0.06366335336341344,-0.0024011175352216824
532,5.32,-0.001861653853593613,0.031644001218169134,0.0022773648489825466,-0.09059671832578256,-0.06160299298902449,-0.009642661693412005
533,5.33,-0.0018412802912340979,0.02973873376076866,0.0009909892690585836,-0.08298762876131717,-0.059311973160596776,-0.016236150419199975
534,5.34,-0.0020920133812951827,0.027865305093582947,-0.00021909007346098937,-0.07537853919685178,-0.05702095333216905,-0.022829639144987944
535,5.35,-0.0024184388139263987,0.024837150414900405,-0.0015271942356350013,-0.0644120114992338,-0.05523670024740875,-0.028579168469850813
536,5.36,-0.0028377066638065286,0.021826014747046985,-0.0026246810670965594,-0.05186914069574917,-0.05369037805846291,-0.03393245234490388
537,5.37,-0.002853784599324396,0.018526840513685375,-0.0035143768565460832,-0.04292499109132293,-0.05092981513071257,-0.038691471976246665
538,5.38,-0.002969375895507894,0.0154093887900762,-0.004106838565530593,-0.03581579264033476,-0.04755012326215855,-0.043147482344263216
539,5.39,-0.003206226738000875,0.011643905348605838,-0.004371450608854759,-0.02790052805490454,-0.04497272095681357,-0.04525757502016035
540,5.4,-0.0035760070994550314,0.00803388621679676,-0.004424181007133195,-0.019597511276839882,-0.04278125415225398,-0.046239181223308085
541,5.41,-0.003909108027882605,0.004414853063156438,-0.004518537060339885,-0.012544427409540385,-0.04014138409003128,-0.049446767278453534
542,5.42,-0.004155372006703746,0.0007450020724821711,-0.004505234257794646,-0.00634178520846306,-0.03719642500238797,-0.05416888743219395
543,5.43,-0.005041293969129607,-0.0038490129801125907,-0.005135150089665856,0.007532156298240418,-0.03631485328983428,-0.059862253228112165
544,5.44,-0.005548694274156939,-0.008468270547758113,-0.005418027190617013,0.025685724353229803,-0.03658439392970244,-0.06609745274340079
545,5.45,-0.0032900867181303683,-0.013221345920662323,-0.004305373399496635,0.033712327642844375,-0.03628599837044448,-0.0696240346162571
546,5.46,-0.0008513649543748295,-0.01769761725910248,-0.002861200924932905,0.03608443276285665,-0.035670489611643305,-0.07163823110453575
547,5.47,-0.0005220638205624714,-0.02303868953672429,-0.002095733512837286,0.04543435265237192,-0.034546361035494716,-0.0753856491104031
548,5.48,-0.0009246987065398807,-0.028148914912186095,-0.0016235845962904768,0.06035874194130485,-0.033015903873478206,-0.08051771125363533
549,5.49,-0.0005683567196940647,-0.03272216989998669,-0.0005285836104367593,0.06925736768197016,-0.032375654202768764,-0.08179307598287285
550,5.5,0.00015677284856708325,-0.03598655554582068,0.0004287360709054986,0.07514491901609263,-0.03218024126886722,-0.08114124878298165
551,5.51,0.0012277738363621294,-0.0388999222305217,0.0017198610689859858,0.0733998439838848,-0.027794696555938258,-0.07386088984393653
552,5.52,0.002317297124201408,-0.040533302697592186,0.0023775296253874716,0.0681171533066941,-0.021467084325933368,-0.0635082990860855
553,5.53,0.004256306097863308,-0.04014444590233705,0.002145327542355933,0.06557372730769331,-0.01680488875252244,-0.0524926312569575
554,5.54,0.006307442759286036,-0.03880482626553555,0.001408094568927304,0.06583610682926762,-0.013848565301047826,-0.04079777922121783
555,5.55,0.007072888104242355,-0.03805013157395565,0.0003384194777487472,0.06685795736784246,-0.010429337648760514,-0.02707223345942935
556,5.56,0.007038773149623157,-0.03752754512099053,-0.0007708281633256119,0.06868014592001963,-0.006522297005228608,-0.011206722713382015
557,5.57,0.006501489503149136,-0.03533442923247582,-0.0018109792537957746,0.07061012328731038,-0.002996339521125613,0.001583237593908281
558,5.58,0.0057439736775904675,-0.032364113419992846,-0.002610762342938887,0.0726585687981642,0.00011077845357985833,0.010992932977325393
559,5.59,0.00573155451741778,-0.0324714241234179,-0.002952536375570561,0.07042140306010311,0.004850203993005376,0.023131422492512228
560,5.6,0.005535452788787131,-0.03253873541225527,-0.0028563761993393826,0.06592193222425727,0.010451298384395407,0.03671039844395031
561,5.61,0.004488299093652394,-0.03056114702242397,-0.0025476483387771695,0.05864041623814813,0.012388610764754593,0.04723713104533662
562,5.62,0.003238587289782476,-0.027251525635238763,-0.001932500519595478,0.04978037306646633,0.012247100123180912,0.05603202651080013
563,5.63,0.0023654700924134364,-0.02181200823753619,-0.0012072017117530256,0.03586505909454295,0.013503700955723391,0.06212742861214785
564,5.64,0.0016952076199520801,-0.015996436891093507,-0.00025868702580740706,0.01917467081715857,0.015527790490909556,0.06674095269577154
565,5.65,0.0013732609473569904,-0.010299124886261592,0.0007743499379250125,0.0052122501530384655,0.015972962875032398,0.06921757317900358
566,5.66,0.0011281755315711698,-0.004931140330333468,0.0019063061103491673,-0.00718955517628072,0.01551486855380712,0.07047171414614924
567,5.67,-4.787576660705037e-05,0.001854613368920172,0.0036336924457949,-0.013733613733624582,0.016680030243650872,0.0717738416498179
568,5.68,-0.0009413744079540196,0.007900028307423137,0.005105276532316558,-0.017586459967825083,0.018590961040740005,0.07309801550739407
569,5.69,-0.001036992291159868,0.012797982914452829,0.0062000208363576035,-0.02215487665617773,0.01920118921742729,0.06875303141197019
570,5.7,-0.000700452329153886,0.01688454603842562,0.006748096450612614,-0.027120066204776104,0.01909019770703648,0.061264586035907224
571,5.71,-0.0003069200543070027,0.020758173190342635,0.006799652936288694,-0.031320612923854144,0.020902382217653483,0.054043364496055166
572,5.72,0.00013009838407675232,0.024365304945354216,0.006414707620917673,-0.0351352715824129,0.02368512531606166,0.046957001329156985
573,5.73,0.0005665735980601026,0.02769646620845352,0.005681464562403108,-0.03894993024097165,0.02646786841446985,0.03987063816225881
574,5.74,0.002682824118837427,0.03481217356953172,0.005506371491016943,-0.05154205007124664,0.031613744030588815,0.022846089819938502
575,5.75,0.005132979241146899,0.04302919911880555,0.005458759045543155,-0.07366087945097448,0.03929313458428696,-0.005077692578379525
576,5.76,0.0012499113367532714,0.040116609038236106,0.00253800202714925,-0.07543011514150345,0.039637499477483185,-0.016638541415070787
577,5.77,-0.001361074983244493,0.03834186089322215,0.0004173308172124796,-0.07620254102593546,0.03850411375740611,-0.029071807543079132
578,5.78,-0.0030240051662471256,0.03758991533799022,-0.0010187920135235281,-0.07597015059980385,0.035881107941218175,-0.0423844983302063
579,5.79,-0.0030868735069300712,0.039614240089575176,-0.0019680539900926836,-0.0738024710716958,0.03792989193495284,-0.05631489722029931
580,5.8,-0.0028628941817109297,0.041740453266691034,-0.002372548359553598,-0.07060729879930508,0.04245904443156742,-0.07057325258636989
581,5.81,-0.0035838325531749402,0.04230133666993267,-0.002336453534128588,-0.0666156292156163,0.0417585241342764,-0.08676092187952562
582,5.82,-0.004427518299232299,0.041790723796651066,-0.0020194417687393537,-0.062192052700014475,0.03822217263041968,-0.10399477682469113
583,5.83,-0.0046534221223410634,0.03993138439307376,-0.0013900253769414013,-0.05706927439922885,0.03813078046639218,-0.12201750486005115
584,5.84,-0.004711862765028208,0.03751836073710822,-0.0007999379170246137,-0.05158049102015382,0.0398426912109042,-0.14045317743196034
585,5.85,-0.004731413422040769,0.03444542156670985,-0.00012529192225234462,-0.043158779963780994,0.042168106250375516,-0.15611100990032425
586,5.86,-0.0047797715191527776,0.031067090731654867,0.0002876269215808516,-0.032781783789209665,0.04490252415315305,-0.16991694896632467
587,5.87,-0.0046340705891789475,0.027341731774279916,0.00036014222670190544,-0.02906122564415521,0.04703527428213418,-0.18526102540363348
588,5.88,-0.004574669712131667,0.0234186701901041,3.733564868725267e-05,-0.028418710355101424,0.0488898036593247,-0.20131636103486994
589,5.89,-0.004723335030651449,0.018801680702618506,-0.00047155154948713956,-0.023513068950788682,0.05112316618811217,-0.2127257532344431
590,5.9,-0.004877446791214648,0.013877621192547493,-0.0011810023092227416,-0.016159083077259204,0.05357409536315683,-0.22146694618359
591,5.91,-0.004400114391778515,0.008020855487391615,-0.0022861830504180515,-0.006870948133588792,0.05544375450354691,-0.2294149187750677
592,5.92,-0.003874435722277727,0.0021167649739900814,-0.003357711907234531,0.0035042015483457718,0.05698673298403584,-0.23691709210898626
593,5.93,-0.0036666258331569334,-0.0041532403157841305,-0.004323956823546033,0.013441137089225223,0.05973736931274257,-0.24403161242617435
594,5.94,-0.0035183548153254925,-0.010068876635587908,-0.004965451152254836,0.02313992600398104,0.06314430495979703,-0.2509354634623147
595,5.95,-0.002076705105087578,-0.017252940211222718,-0.005641272631349487,0.03464754021004255,0.06456690668776706,-0.2540436543634134
596,5.96,-0.00022969413412435215,-0.024495554434150767,-0.006091223584877322,0.04797122950817652,0.06399722125449203,-0.2533409720627971
597,5.97,-0.0013084599347592206,-0.02779256211114864,-0.005544466258783128,0.0558767748733131,0.06399907769814236,-0.2520998042937223
598,5.98,-0.003382240983823305,-0.029310606266393556,-0.004469675102672255,0.05833156962180337,0.06457591558868955,-0.2503169104214742
599,5.99,-0.002551704224476645,-0.03285232722137481,-0.0038266768229190153,0.05908428333962967,0.06647130223718613,-0.2483071357084774
600,6.0,-0.00027651279713661586,-0.03722761024720453,-0.0033262236528970174,0.058125357609451686,0.06969264224957325,-0.2460692060545432
601,6.01,0.001304151122187831,-0.04076071699133454,-0.002394579957405776,0.05610726637800571,0.07089763921174844,-0.2427776885410326
602,6.02,0.0024748077510974684,-0.043536909464101825,-0.0012690174244541573,0.05302022029165331,0.07006765704167234,-0.23842284536574745
603,6.03,0.002723871192205318,-0.043886475554770835,0.00048300619241315964,0.05167485620705695,0.07059569726078369,-0.23262836850156798
604,6.04,0.0030741641002125903,-0.04376894835436702,0.002013599607906503,0.051262383219224265,0.07185113030751877,-0.2260627856320349
605,6.05,0.004038812414330126,-0.044183910684240636,0.0028764833801999765,0.050849910231391585,0.07310656335425386,-0.21949720276250173
606,6.06,0.0077353920181047085,-0.04751258223726836,0.0035224820194065774,0.049868259751123835,0.07699615458054539,-0.21228126854093124
607,6.07,0.011525530031467397,-0.05055179280720993,0.003818731772093543,0.04842410742228143,0.08302620821737733,-0.20453687227274425
608,6.08,0.011421127968721462,-0.04758225982271519,0.004203827543200757,0.043270858288784936,0.0874659599199468,-0.1949593958385663
609,6.09,0.009842966166223729,-0.042587315238239665,0.004104145270589194,0.03611952515573559,0.0910490187356332,-0.18439444230619872
610,6.1,0.0065648873558986996,-0.03587874449732768,0.0031021028943707565,0.031220227978818824,0.09338268218262608,-0.17642549024899865
611,6.11,0.0035569446087081046,-0.029381285200020993,0.0017811461834261167,0.027947034945877254,0.09481420773037116,-0.17033100593510445
612,6.12,0.0025488079206521094,-0.02487553490856552,0.0005915081714605659,0.024673841912935684,0.09624573327811624,-0.16423652162121027
613,6.13,0.002756363603636855,-0.021297585045304504,-0.0003681299047356983,0.021400648879994117,0.09767725882586133,-0.1581420373073161
614,6.14,0.0035900896052986396,-0.01790497150720271,-0.0010474470538473163,0.01812745584705254,0.0991087843736064,-0.15204755299342193
615,6.15,0.012346785839832938,-0.015214820745269404,-0.00034998698977402516,0.0008000316634598197,0.0974761854115103,-0.12574274346079248
616,6.16,0.025594545039938982,-0.01255140748480627,0.0012720910778896415,-0.03616827321472545,0.09156145224469968,-0.07119387118541362
617,6.17,0.017181122168847082,-0.005230670310307248,-0.00023636349607353757,-0.055301056640085784,0.0866122929206605,-0.03973001469228552
618,6.18,-0.00040665107419411706,0.004117443970422439,-0.0028428533551592633,-0.0566339540201193,0.08262677822092565,-0.03130505007375129
619,6.19,-0.006786737365162122,0.013047502385375918,-0.004584551389935851,-0.059470423449485076,0.0771847510306804,-0.02223205907432184
620,6.2,-0.00863547045654546,0.02017279628580456,-0.004801135895054829,-0.06304177854774437,0.07103083899506582,-0.012842338789723556
621,6.21,-0.012328771790701774,0.025494589207494388,-0.0028456474700926104,-0.06995718674244063,0.06582341245039718,-0.01014378696165392
622,6.22,-0.01438641152846646,0.029453134456230476,-0.0002484390626942461,-0.07842251680987446,0.06105466870242481,-0.01054649819546431
623,6.23,-0.014155726167690215,0.033400686871286014,0.002402924408976856,-0.0859251787094766,0.05576395741699603,-0.010546524119780814
624,6.24,-0.01211702576719639,0.036710955930251,0.004636053157214472,-0.09286561068118462,0.050168399891966135,-0.010311368555723495
625,6.25,-0.009892370023777651,0.03828874407734671,0.006402998463532588,-0.09556780129458374,0.04555755430773592,-0.013343750682696795
626,6.26,-0.00693888176179967,0.03947069823449334,0.007487362547553823,-0.0958568814798685,0.04150737019890137,-0.01823655759671641
627,6.27,-0.0030581997269112553,0.04099710779818755,0.007804227752209429,-0.09614596166515328,0.03745718609006681,-0.023129364510736026
628,6.28,0.0009294017964289253,0.044445303637452215,0.0077088446390974966,-0.09507364780353422,0.03439736266717941,-0.030328432003712723
629,6.29,0.0043704501998538346,0.04766355317931823,0.007164258854362643,-0.0930275752497044,0.0320459104381856,-0.039177088967401436
630,6.3,0.00670524491107044,0.048561741351634095,0.00625130967869307,-0.08882517239864053,0.028677831122072936,-0.04740100187060616
631,6.31,0.007992931530470928,0.04794432404921732,0.0050202794391257825,-0.08325625995388759,0.02466549490824192,-0.055229001980048834
632,6.32,0.008085783321844758,0.045444571635797966,0.003601447957557905,-0.07430365389567882,0.02283804542740421,-0.0641134907526814
633,6.33,0.007370224012320629,0.042454141561556975,0.002059221982585279,-0.0636295911590493,0.022122158720201603,-0.07353546892970084
634,6.34,0.005375049115929541,0.039306120423439964,0.00043143099974772125,-0.055724048866585586,0.016455527843942757,-0.08180497333670192
635,6.35,0.0030422969147291205,0.03611200478930159,-0.0011154941073904753,-0.04943194314826223,0.007903705446559337,-0.08940283981695285
636,6.36,0.0006793656960072184,0.032272047542482606,-0.002775776649948612,-0.041512357353488086,0.0002460491367672589,-0.09864259018998683
637,6.37,-0.0014907016522703372,0.028271283536358115,-0.004136647822919354,-0.032683260089645214,-0.006911905626023266,-0.10879990155376554
638,6.38,-0.004345126552347376,0.023684953460640437,-0.005013358429986864,-0.025206247654085433,-0.016529833494753173,-0.11792553397216275
639,6.39,-0.006731169814867859,0.019009727590579673,-0.005483217760670241,-0.01844709042129445,-0.027453821793886904,-0.12650342257816205
640,6.4,-0.008011539071464596,0.013537642322974433,-0.005684809932632918,-0.015298144987476597,-0.03409476151775133,-0.12434673245468338
641,6.41,-0.008678421712268328,0.008121301365585774,-0.005633347429600213,-0.013961354529953163,-0.038585814137598026,-0.11680179329036433
642,6.42,-0.010165845909714198,0.0030017708726703066,-0.005663806282912372,-0.010082840747075902,-0.04618085895884497,-0.1183772426982962
643,6.43,-0.011118842689842628,-0.0020924582679639064,-0.0054655348985541904,-0.0049693440111663965,-0.0552840842405048,-0.12438414390879275
644,6.44,-0.011044866803061062,-0.00825989049726122,-0.005362728403351523,0.004202170316666693,-0.062365898375227165,-0.12280840557283852
645,6.45,-0.010317767302600814,-0.014352501479840211,-0.004944436408546146,0.015289489504988369,-0.0684933969574354,-0.11765287553579964
646,6.46,-0.01000086241074578,-0.020605794465874266,-0.004135517597644084,0.025214429622713263,-0.07485485372866765,-0.11225717002973244
647,6.47,-0.009355506068474722,-0.026378442109904143,-0.0031346412347985375,0.034452004904929306,-0.08135466005916361,-0.10671943841881013
648,6.48,-0.007884764944991943,-0.03270227576645636,-0.0018238811648471622,0.046566266417560745,-0.08393659467291731,-0.10768271851855413
649,6.49,-0.006042974060289465,-0.038056366356822524,-0.0006480805379951147,0.06029936636052907,-0.08431376978487559,-0.11230440511464276
650,6.5,-0.0035607347012908287,-0.041018219594283464,0.000681116933302845,0.06567207177943679,-0.0863543104129066,-0.11571010012506798
651,6.51,-0.0011638030455665528,-0.04280977500212513,0.0016828883668326235,0.06451842933625729,-0.08969331870875508,-0.11816655953870756
652,6.52,0.00045694952177913325,-0.04443474565687114,0.001840823837136904,0.0633647868930778,-0.09303232700460357,-0.12062301895234713
653,6.53,-0.0014294039784724637,-0.04904973308778796,0.002938817988847841,0.06353081364397016,-0.09134420430699934,-0.11168939319092884
654,6.54,-0.004265136688333047,-0.05401001415281927,0.00407235599697372,0.06502977259590999,-0.08457842668636001,-0.09125120903661302
655,6.55,-0.0004211831046564028,-0.05234526855319963,0.0026187058788464074,0.06500340814183724,-0.07984955672341561,-0.07539917174304134
656,6.56,0.0061048712935402255,-0.04738393207198309,3.233444755819728e-05,0.06345049953472827,-0.07715922459636357,-0.06413695169585673
657,6.57,0.009271623134297373,-0.04377384674383689,-0.0022322501135767555,0.060597092565813325,-0.07695477113404048,-0.05161768481794333
658,6.58,0.01020634627248178,-0.0409605028246464,-0.003991519053197169,0.0560682151673864,-0.07995294853726058,-0.03747892740066995
659,6.59,0.012480546910468678,-0.035650804776653125,-0.005935103900849347,0.05353554189760183,-0.08174826224667825,-0.03121943112267948
660,6.6,0.013643399358893925,-0.030743650742360133,-0.006807180041060042,0.051922959793027884,-0.08298915156545361,-0.028591646881860312
661,6.61,0.011158285644154404,-0.02856346308221719,-0.006717318035048814,0.04720997423182358,-0.08560752703396894,-0.021518313728104633
662,6.62,0.008224165548622953,-0.026600469502835733,-0.005528632120549829,0.04106662571393623,-0.08886140210422752,-0.012394038309532259
663,6.63,0.0056267203667332765,-0.02354924320417094,-0.003999161864190271,0.037295385957106686,-0.09293347745337713,-0.007267843014555242
664,6.64,0.004054499566398516,-0.01958550093931774,-0.00188685348683251,0.03481382929018849,-0.09745039710358476,-0.004315349200791999
665,6.65,0.003745606321799504,-0.014327096623731017,0.0009062257356458369,0.02836104398874842,-0.10084213229298636,0.0024084229433462057
666,6.66,0.004258752712996904,-0.008583063366580157,0.0037706208097204492,0.01989601793125937,-0.10366373107411757,0.011043120057358
667,6.67,0.004964170907497254,-0.0020138578527642437,0.006882270578092624,0.012015528131816843,-0.1041127370163836,0.017378402048355304
668,6.68,0.0059186092518544115,0.004408233586193182,0.009307179091769037,0.004424248349434697,-0.10338785920728287,0.02257600630285366
669,6.69,0.006942534534091676,0.011027995349322387,0.011292426662196757,-0.004867895076743478,-0.1044135553568734,0.025523905224138582
670,6.7,0.007909467175767175,0.01712861951081253,0.012231201422150244,-0.015180121337762684,-0.10648914780643727,0.02712255677792754
671,6.71,0.008949497186269148,0.023648060049499955,0.012621535865973272,-0.024745964663482257,-0.10420701491387788,0.02627985223551824
672,6.72,0.009641465470039991,0.029291855567121463,0.011958023665576644,-0.033842781487439695,-0.09918649053861957,0.023903001271479055
673,6.73,0.009713959167127858,0.033121967194484576,0.009937294947197585,-0.042939598311397126,-0.09416596616336126,0.021526150307439876
674,6.74,0.009227418050212308,0.035857547590899395,0.007198536188515834,-0.05203641513535456,-0.08914544178810295,0.01914929934340069
675,6.75,0.007879242643441033,0.03985014007427147,0.004304672717870163,-0.05883654772865074,-0.08419956976294672,0.017479476183908466
676,6.76,0.006231864128611057,0.04293513177152567,0.0014649747964601027,-0.0644301854332347,-0.07929291413403082,0.016181069095017174
677,6.77,0.00584803207564408,0.044169530301226896,-0.0018056605453537866,-0.06923108226303701,-0.07298687531509264,0.01373547486577922
678,6.78,0.005669815690439441,0.04424398163913004,-0.004821249458700631,-0.07323414838900609,-0.06527246850234393,0.010135327928680344
679,6.79,0.004127052082328412,0.04376075552300414,-0.006872524066316776,-0.0750326897816875,-0.060093628889226765,0.007899166461795379
680,6.8,0.001684134291778756,0.04286639161334603,-0.008017717368734155,-0.07458666461948775,-0.05749641117765171,0.007051765175985931
681,6.81,-0.0006311672141246401,0.04023850850396214,-0.008103468387659348,-0.07450778749810544,-0.054804719447903764,0.003984249933421065
682,6.82,-0.002918595279987784,0.03687238983714571,-0.007480263172940493,-0.0748369904626317,-0.05200802112363258,-0.0015508919705374989
683,6.83,-0.008185342227557527,0.038026036205442634,-0.006508452129063722,-0.07375852865426555,-0.04832689309279994,-0.007657070612559531
684,6.84,-0.013408724934911655,0.039073152323257476,-0.005234813623256281,-0.07185014654027898,-0.04412432971279605,-0.014099916757598162
685,6.85,-0.015142511733556215,0.03466611764962388,-0.0034515464026689895,-0.07017169884338283,-0.04060011966530288,-0.022260138370559776
686,6.86,-0.015017192076487284,0.027804042652848686,-0.0016086093794475571,-0.06872364589274045,-0.037755621015050186,-0.032141173640569336
687,6.87,-0.016430420735197376,0.02537842310635721,-0.00012223517934062205,-0.0638442252050428,-0.032836208900655896,-0.03942672428948915
688,6.88,-0.017829845161256023,0.02338055181375261,0.0008902766984480676,-0.057099216809733476,-0.026788694714525454,-0.04530114544852349
689,6.89,-0.017414398532131635,0.01728890634779646,0.0014799078948707905,-0.051114212831865,-0.021117423187653972,-0.04930462588546785
690,6.9,-0.016003839743216952,0.009525769040280055,0.001704992198513995,-0.045892259381326926,-0.01582390230665172,-0.05142966683991305
691,6.91,-0.014311879136409935,0.004131134707745987,0.00188934226901392,-0.03819170579073629,-0.010277195725503934,-0.05372642943382403
692,6.92,-0.012964156927928216,-8.985087516566632e-05,0.0017159633072160636,-0.0293333084727502,-0.004612216951095682,-0.056103409413307055
693,6.93,-0.012113744295509186,-0.0038883334576319626,0.0011165920772452037,-0.020474911154764117,0.0010527618233125704,-0.05848038939279007
694,6.94,-0.01133843895191091,-0.007602731424428648,0.00030538968674981987,-0.011616513836778029,0.0067177405977208214,-0.0608573693722731
695,6.95,-0.010381569295194928,-0.011421945366464153,-0.0005607267213500907,-0.002758116518791945,0.012382719372129076,-0.06323434935175612
696,6.96,-0.00838750829450214,-0.01670852530401558,-0.0017467227355987495,0.0054837492694211655,0.017723256199762547,-0.065297751670385
697,6.97,-0.005890547964284716,-0.02242435494439428,-0.002881931754357828,0.013103634072797013,0.02273648337357863,-0.06704480464935746
698,6.98,-0.004280807758692473,-0.026827694442624797,-0.0034590216977311195,0.018446423823131008,0.026538370417929214,-0.06940860024174599
699,6.99,-0.0029884002663797407,-0.030326035369236903,-0.0035946290413005426,0.02148370638653533,0.02911380300638508,-0.07239683376693712
700,7.0,-0.0005779341258252721,-0.03363029069927279,-0.0036905361816594344,0.025115211464354102,0.028773711500124637,-0.0660378617046332
701,7.01,0.0018129334059948964,-0.03614342339750404,-0.003386254150885419,0.02901782461522668,0.027103441314856456,-0.055414320673984725
702,7.02,0.003730633625491992,-0.038197148248439006,-0.0027637326056938944,0.03427819685706029,0.028338109889323438,-0.0460246467384222
703,7.03,0.005349078680542971,-0.0395870147679824,-0.0018956407484033314,0.040429500122144565,0.03147893403948945,-0.03744460868075475
704,7.04,0.006793273430066671,-0.04063506824049397,-0.0008615675439295684,0.04476494823736781,0.031304737862415916,-0.028422601293766475
705,7.05,0.008129213776081853,-0.04156669144580533,0.00015799108099424333,0.046081706375026524,0.0256196292989516,-0.018665861081357742
706,7.06,0.009891755714896205,-0.04227071968476908,0.0012022250527875887,0.04394175753539898,0.02287860798742986,-0.0053424092001838905
707,7.07,0.011621908536308168,-0.04229721111324797,0.002116640999823367,0.03832568980605759,0.02309820710936981,0.01156778401817172
708,7.08,0.010499037996571085,-0.03741723535149718,0.003374102633992662,0.03577602769458305,0.021055074833760297,0.0217412025264088
709,7.09,0.00923700616489278,-0.03195117401732698,0.004207035924333694,0.034937781121157585,0.017749071902802983,0.028154707196745506
710,7.1,0.010355196391215219,-0.02912596080271155,0.004309772801080523,0.030969564983968093,0.01779177405839386,0.03819321057876803
711,7.11,0.011928814855286914,-0.02719172370045259,0.0038650679966069526,0.025354197586726933,0.01959673737674697,0.050139375065475035
712,7.12,0.014034309763850516,-0.02567263190397032,0.003324190953960325,0.01837849074104324,0.023907739069270576,0.06475135223617304
713,7.13,0.015808657687600106,-0.023946755256411295,0.002680898496454101,0.010011627695657792,0.030781550231819683,0.08208953266946377
714,7.14,0.014263560360179952,-0.01920537123134882,0.0016264832754485073,0.003694332326309162,0.034418296620814234,0.09646842765790932
715,7.15,0.01182540544643874,-0.014147473487516386,0.0004732577451844295,-0.0016800242567652699,0.036565775802702594,0.10948585258697288
716,7.16,0.008925950101087838,-0.009269837333218615,-0.000646742590191841,-0.008320131707018716,0.036662996839461816,0.11819787407749402
717,7.17,0.006091662965003394,-0.004602972357778436,-0.0015814453967880637,-0.01622953909557885,0.034704210960006025,0.12259242009900218
718,7.18,0.005751161128457321,-0.0004937364411857995,-0.002122668758552277,-0.023769266389463268,0.03486163880611662,0.13128821165994892
719,7.19,0.006341392266125694,0.003371938187184821,-0.0023371020093069465,-0.03093857348838233,0.037139517041908834,0.14429385986251536
720,7.2,0.004724940152126837,0.007813564884451561,-0.0025974460158888087,-0.03820545111377767,0.037362321789927135,0.1553059416453119
721,7.21,0.0024236722118547317,0.012022773352651934,-0.0026004083372441135,-0.04552544628447476,0.03646634135734264,0.1652327227903186
722,7.22,0.0005804028697964352,0.01622763622608725,-0.0024931351111345586,-0.05235176040290906,0.035124389908683405,0.17596153608628068
723,7.23,-0.0009956031435583014,0.02032973821997438,-0.0021873982835552584,-0.0586824147875084,0.03333467998496718,0.1874955960909173
724,7.24,-0.0027980598285485114,0.02423515580540038,-0.0014429614669884154,-0.06174862074932296,0.03283876708925045,0.19431744825504715
725,7.25,-0.004584430511932036,0.02787516542516945,-0.00045790595284139887,-0.06151228977326091,0.033651746821538035,0.1963721120808329
726,7.26,-0.006031508456338711,0.030510646229833835,0.0006834989665923427,-0.061275958797198875,0.03446472655382561,0.1984267759066187
727,7.27,-0.0071695311061721,0.03260228269346079,0.0018080632822674004,-0.061039627821136824,0.03527770628611319,0.2004814397324045
728,7.28,-0.008024909751499606,0.03440240141098189,0.0027972472148017013,-0.06080329684507476,0.03609068601840077,0.2025361035581903
729,7.29,-0.008856272875110174,0.03644616140180134,0.004051493895870657,-0.06196396064120024,0.035119819433190085,0.20573596876334216
730,7.3,-0.009373598528302529,0.038158719605498326,0.0049014027955840405,-0.06379266258781005,0.033295923603765536,0.2094834653745915
731,7.31,-0.008947015798994784,0.039644857822511995,0.005012107858045261,-0.06438428332727568,0.035817782720508916,0.2097968236663813
732,7.32,-0.008341383479634198,0.04047145736119565,0.0046604240435689625,-0.06428786668200223,0.04075665524802167,0.20820018968401172
733,7.33,-0.008118001815208945,0.040174551801987965,0.003952625570387222,-0.05963134016375338,0.04341954454519145,0.2024544170667108
734,7.34,-0.007970440212208179,0.0391511483718045,0.0031026158669732874,-0.052467177280142364,0.04483085471941377,0.19442700404693986
735,7.35,-0.007212548336674795,0.03732322003000757,0.002166931098599588,-0.04604654967256383,0.04691066303122119,0.19327851993745612
736,7.36,-0.006454961964098284,0.035036195658857884,0.0012716918948939744,-0.04001859595159415,0.049343516814222714,0.1957629175996645
737,7.37,-0.006297385118328036,0.031636263821498235,0.0006680572694819375,-0.03246755230494998,0.05085682093079253,0.1941168647407233
738,7.38,-0.0061516669870652334,0.02806414802880025,9.778266578730857e-05,-0.024183503300800796,0.05192758070337826,0.1904829828574576
739,7.39,-0.005450412918400814,0.024381687121798737,-0.0005555732361162197,-0.019733538895112316,0.0533972456655913,0.18155834398996726
740,7.4,-0.004596038863402199,0.020637357549763348,-0.0012187762112140094,-0.017101980821909182,0.05505610095583485,0.17012443706730207
741,7.41,-0.004198961813951147,0.016765733584671032,-0.0016655625302917753,-0.0159919408353963,0.055587179971169326,0.15907060375829124
742,7.42,-0.0036552453217214014,0.012555876873890794,-0.002090097657561715,-0.015659095689659938,0.0555421883435868,0.14821091290097482
743,7.43,-0.002258904954039661,0.0075155211055111665,-0.002538951659456828,-0.011714762665049968,0.0564453287893068,0.13367882184582572
744,7.44,-0.0007342031791781568,0.002153364129504027,-0.0029773992660761524,-0.005998868065037846,0.05781356129841009,0.1173452895846746
745,7.45,6.46015391885411e-05,-0.0037035205180551978,-0.003382885203999595,-3.563809978987791e-05,0.057256841616936935,0.1003215824329165
746,7.46,0.0008203792143384884,-0.009516852908781329,-0.0036900958083187873,0.006056603678000464,0.05569605375084785,0.08293787535343462
747,7.47,0.002022859463276454,-0.01584322886572176,-0.004202754072406913,0.01805886723472357,0.056224412398312516,0.065355800847215
748,7.48,0.003299180877227723,-0.021646351688437034,-0.004471204544603002,0.0330077278929766,0.05779437009427015,0.04767482503292456
749,7.49,0.004062917068692701,-0.027703256082182857,-0.0047686027794197955,0.04651040399673659,0.05637476779718625,0.032386915105596915
750,7.5,0.0047703844869233635,-0.03262834202654356,-0.0046237399209942895,0.059333460517854465,0.053550252476766515,0.01822360192097397
751,7.51,0.005363615323145304,-0.03696999584750013,-0.0042684835897509685,0.07012445930542205,0.049903146410949666,0.00512458685024724
752,7.52,0.005955627362912264,-0.040069033374090283,-0.0035500193894930526,0.07962661742230677,0.0457343089048834,-0.007299392923857286
753,7.53,0.006565875716963273,-0.04340988912473699,-0.002497260974287357,0.08551557253034059,0.03811304685192353,-0.01570831548476111
754,7.54,0.007087917154531869,-0.04577315467074933,-0.0012819115647445408,0.08832289461081455,0.02754727670384577,-0.02069287110989268
755,7.55,0.006973971355417671,-0.044811570188816936,2.951536567817603e-05,0.08907434055944541,0.017977760989557622,-0.021655891731429774
756,7.56,0.006254306843811458,-0.041883644431077754,0.001244443455777812,0.08660341839898718,0.00996976859190248,-0.016315582135522918
757,7.57,0.005579197756960692,-0.03742326987364129,0.0026602000919592494,0.08510939460951017,0.0036920924987650632,-0.012049235833988736
758,7.58,0.0049386785500834356,-0.03257627866309189,0.003955730600736233,0.08474159057818266,-0.0005907840656979893,-0.009021010833071485
759,7.59,0.004943446297444939,-0.03167431876961093,0.003842565129049521,0.08646195606592189,-0.006452003994041797,-0.0021086364632451338
760,7.6,0.005197437075131046,-0.03243229691034284,0.003025490630243417,0.09029908461426962,-0.013913179720568393,0.008741073372366237
761,7.61,0.005446811973670215,-0.03235609164765754,0.00281045019814945,0.0942089591424206,-0.020019150330436174,0.023573275496892136
762,7.62,0.0055002927485500765,-0.031293983763683995,0.0028527669121630123,0.09819679409185234,-0.02467277454119976,0.04267343548563077
763,7.63,0.005096593529575593,-0.027982934596648256,0.003464563921544349,0.0966649109415162,-0.028472059048225862,0.05830601535924701
764,7.64,0.00448107576307138,-0.023389230833921765,0.0037541685013024566,0.0918451535823986,-0.03176244773363844,0.07187309713652497
765,7.65,0.003528157489685771,-0.017490019386182817,0.003896928276660846,0.08251152559894602,-0.03420944563962983,0.08025927441565417
766,7.66,0.0024781017840249204,-0.011519961685624788,0.003383032859415734,0.07068809000191532,-0.03619123730499405,0.08578771461318231
767,7.67,0.0014524793487442214,-0.005361045173800981,0.0026384234104477743,0.057966699899715764,-0.03824983980508718,0.09338714038456668
768,7.68,0.00035674995147776936,0.0001535968833399461,0.0014311316613263882,0.04468293822499949,-0.04035654744821838,0.10228358444265136
769,7.69,-0.0014501702392569768,0.0058717353397422685,-6.672864372776624e-05,0.029491831724646613,-0.044425244220697616,0.10892329946932804
770,7.7,-0.0032387032929550564,0.010578802971894313,-0.0017352255913346678,0.013140612948552715,-0.04968728980102413,0.1141903948117356
771,7.71,-0.004977538792147596,0.015575610497449472,-0.003903178732964303,0.0025911694290060108,-0.052333302374619035,0.11229466694031706
772,7.72,-0.006267658988054911,0.019047275149928666,-0.0056974281961934764,-0.004942761723155979,-0.05361961390216196,0.10667601271763934
773,7.73,-0.0069441036473111535,0.020297883324346108,-0.006664446807691817,-0.012476692875317968,-0.054905925429704884,0.1010573584949616
774,7.74,-0.0072662365148360945,0.02051886297190061,-0.006880743807439838,-0.02001062402747996,-0.0561922369572478,0.09543870427228388
775,7.75,-0.007396728004738349,0.02050353002489711,-0.00645425535396883,-0.027544555179641942,-0.057478548484790726,0.08982005004960616
776,7.76,-0.008776512355610262,0.022624177769490494,-0.006469948382233262,-0.036203221411487914,-0.05919173516459447,0.07114304255761797
777,7.77,-0.010380428056531027,0.02562773786711823,-0.0063005142905876,-0.04599929069656214,-0.0613366049227505,0.03926060460744535
778,7.78,-0.008136288280813978,0.025937316008786154,-0.004780038979490592,-0.053550891223505134,-0.06383601264458033,0.022448370586478444
779,7.79,-0.004438822547372733,0.02521390297101387,-0.002463253472779814,-0.058840899962240824,-0.06669266309672113,0.02082131093224184
780,7.8,-0.004493408188889609,0.026617314489028876,-0.0003743354546874708,-0.06280313427905104,-0.069639292600226,0.013541947570678718
781,7.81,-0.006269928463765238,0.02903122555101135,0.001599572015996341,-0.0653889181258815,-0.07267919977612255,0.00040306773858771536
782,7.82,-0.009105065302960423,0.03226398781996896,0.004205034079510197,-0.06458238647459134,-0.07594015829838237,-0.01758050833287334
783,7.83,-0.010307595706394054,0.03418936663486319,0.006907654815383514,-0.06208909336660728,-0.0793110302090645,-0.037973013317487266
784,7.84,-0.004233678753224499,0.03025278695190935,0.010755741995899796,-0.06116412909820691,-0.07981221657285034,-0.048309401271141764
785,7.85,0.0017108057897119913,0.026368475464398928,0.01354021891171104,-0.06095903097064841,-0.07899621140898289,-0.05403001096693247
786,7.86,0.0021166340303254818,0.02639708715919846,0.014636907357841308,-0.05840813131027089,-0.08054665027148665,-0.06371032953654256
787,7.87,0.00011876726574494133,0.02805640637987692,0.014329583053390054,-0.05367882579058311,-0.08429466444488287,-0.07706779337663294
788,7.88,0.0002891247711686077,0.028150231247244827,0.013214659050218602,-0.048160475141318715,-0.08417597497874275,-0.08248680906547871
789,7.89,0.0012560413142529505,0.027381718842558782,0.01114114622754953,-0.04219150720281456,-0.08184904235003948,-0.08337224124611173
790,7.9,0.0020703761207622184,0.02531968720901768,0.00849783186660619,-0.034056083668620576,-0.08244498884491817,-0.08341411950556182
791,7.91,0.0028080676080986704,0.02287033939528428,0.005340021268352265,-0.02467698571958624,-0.08471884186643051,-0.08297174762325935
792,7.92,0.004542224579666285,0.01980369820656552,0.0015740503888784264,-0.015348682957027971,-0.08082995204701368,-0.07659393070493513
793,7.93,0.00593961328989882,0.01668378185616652,-0.0021104486184795506,-0.006047443969483637,-0.07365754075073147,-0.06705369702615542
794,7.94,0.005031078870135458,0.013130498178911338,-0.005083665512175121,0.005176685412699485,-0.06715911964390779,-0.05835180288173945
795,7.95,0.0032562081769914627,0.009204924870682557,-0.007406607350047667,0.01834225397146324,-0.06134119023962421,-0.0504963351482245
796,7.96,0.006448546228569565,0.005161569467802723,-0.010350377542746227,0.024203893026974288,-0.05778621067173865,-0.04249627896974149
797,7.97,0.009288400538535156,0.0011190686582087835,-0.012460235547900492,0.026618902999849457,-0.05529908762070502,-0.03442799338964417
798,7.98,0.008766700454604778,-0.0037407452709992753,-0.013558744731755746,0.03275494099556035,-0.0518178828028296,-0.029986796061811007
799,7.99,0.006934472176492214,-0.00861769516184217,-0.013517103155813634,0.04075456454015355,-0.047838816532762826,-0.02736213685461501
800,8.0,0.004948469663307546,-0.013790091892334821,-0.012898792637513827,0.0478733970541119,-0.04462534250128862,-0.021608151063458817
801,8.01,0.003147264454870035,-0.018805708773297798,-0.011583664153930178,0.05438595149413841,-0.04193885134280815,-0.013700144593118815
802,8.02,0.002183566541679421,-0.023695433447295893,-0.009758372190993441,0.058810176392446435,-0.04035300650384016,-0.00962726810563937
803,8.03,0.0015168662845960307,-0.028063224404534168,-0.007462561633202904,0.06221648430306869,-0.03930365102810916,-0.007423753652048668
804,8.04,0.000815134445151351,-0.032112780574682274,-0.004795756770426371,0.06501363686635983,-0.039859556565259364,-0.004199118132881346
805,8.05,0.0002887217840100379,-0.03562947045882831,-0.002158053991017533,0.06742361610944674,-0.04143575066898731,-0.0003254678180269529
806,8.06,-0.00022970387219898572,-0.04041032366070736,0.0003037481911532464,0.06891249467437735,-0.041155703117291526,0.00882933606568623
807,8.07,-0.0005480950069103123,-0.04501424064333583,0.0023811171231583874,0.06946691251908332,-0.03899249017947287,0.023341893650602644
808,8.08,0.0007864075530567495,-0.04296873385210246,0.00461784343424451,0.0674729339549924,-0.03795895841424039,0.030191792706528605
809,8.09,0.0022681264416343563,-0.03952226222718905,0.006161889895349135,0.06389437027391684,-0.037627858957748624,0.03227707405240765
810,8.1,0.002607825376916872,-0.03991502453407469,0.006715420765096654,0.06107704780946384,-0.034106141302239365,0.03510334363711345
811,8.11,0.0024284121323179778,-0.04108382441716207,0.006411134276509873,0.058711424244102965,-0.02869120150314483,0.038369294579593455
812,8.12,0.00213451639259525,-0.03990600430958101,0.005683976116873602,0.05390475977659349,-0.02742233977983873,0.039691818387402926
813,8.13,0.00178897013037238,-0.03796927908663718,0.00450628146885741,0.04797296980926245,-0.028064489938068437,0.04011857702211005
814,8.14,0.001291488859767295,-0.03672999717801763,0.0031764753021198237,0.040042041873352384,-0.027525127252540832,0.0415150059869996
815,8.15,0.000478562822187894,-0.03690997297742577,0.002225166898583623,0.02590023971473176,-0.0233150686068391,0.0459239836368296
816,8.16,0.0008474730666035231,-0.030623852911970693,8.318638911265601e-05,0.018515939370105757,-0.021027556296736975,0.047171960857731066
817,8.17,0.0012551724775177468,-0.022929062321404854,-0.0019448361041172722,0.015212151347803675,-0.019900972126736298,0.046511170377763915
818,8.18,0.0010290481608509665,-0.017337058864039228,-0.0028797757886030294,0.008097636704382783,-0.01862337097314479,0.049369371064713084
819,8.19,0.00036149634883665075,-0.01273326974287751,-0.003072359150430121,-0.002066145235324897,-0.017224929046904994,0.055043398166953576
820,8.2,-0.0008969359369477101,-0.007415443142848168,-0.0028530424653771883,-0.014688404271719031,-0.015271736503512925,0.056529122024877886
821,8.21,-0.0023319643968613404,-0.0018173744172631564,-0.002321462064942273,-0.029587311590252706,-0.012804822664422058,0.054136309288296776
822,8.22,-0.002851902706476249,0.0033126511322773174,-0.0020087802681950703,-0.03467644400439087,-0.010483429586070271,0.052455234664255335
823,8.23,-0.0033081894961291595,0.0081308977136039,-0.0014228664696337638,-0.035012146298584415,-0.008232550130499413,0.05111904026576757
824,8.24,-0.004285845336070971,0.01396487892833425,-0.0005294561010463668,-0.039435722316393335,-0.006311617114776324,0.04976521850383255
825,8.25,-0.005320931591613856,0.019532005086520123,0.0006082451003697037,-0.04610332319115593,-0.004571807113740424,0.04840172025861731
826,8.26,-0.006068876465315357,0.024310742495515035,0.001851217971600773,-0.04801934234859299,-0.003176412609238112,0.046922532693322326
827,8.27,-0.006578920263101953,0.028555272737142298,0.0030677932132291393,-0.04579551036907873,-0.002081092684050989,0.04534254994196984
828,8.28,-0.006661620032320581,0.032400671998103495,0.004357007216260488,-0.04546819000250847,6.241931160764678e-05,0.03873625942136382
829,8.29,-0.006630968576118739,0.035847441414960136,0.005411827404402686,-0.04620951063860397,0.0027965636121411,0.0292977592071384
830,8.3,-0.006716926053317023,0.0393781263287441,0.006290326796838068,-0.049181588995818634,0.0027234976795261693,0.02498694377359295
831,8.31,-0.006751589894111275,0.04240650789570812,0.006752528014266464,-0.053560805458918635,0.0008796735633140504,0.023910617043842383
832,8.32,-0.006137412318289169,0.0443759427799314,0.006737300622632952,-0.05364707938532258,0.0029188928013747237,0.022824564733848432
833,8.33,-0.0055030169010309,0.04555839879663897,0.006280774573905946,-0.05167954461143845,0.006815818765400322,0.021733859559030767
834,8.34,-0.005279729150442966,0.04607126118221008,0.0054453830098234735,-0.04911483523397203,0.008842464988298044,0.018978153400838273
835,8.35,-0.0050832511976094275,0.04590398490263276,0.004385311353923512,-0.04619970508785323,0.009771635095249892,0.015245428258748575
836,8.36,-0.004202768850667384,0.044828544645032616,0.0030556692507608205,-0.04123076062076912,0.011404497525080414,0.013406457889302042
837,8.37,-0.0030211086585954033,0.0429728122783768,0.0016624940092565378,-0.03420553577590045,0.013741897215539716,0.013463516162547871
838,8.38,-0.0026557176813762906,0.04013599949004662,0.00048271326726350783,-0.02716546591973917,0.014221196656259585,0.012587689512016836
839,8.39,-0.0025587130815310968,0.03658025906706932,-0.0005161083135842674,-0.02011037784555525,0.012820716142052949,0.01076809334193765
840,8.4,-0.001490430199123806,0.032542079784399866,-0.0014330556710043705,-0.013831270420296488,0.013248304668424322,0.010353026383863569
841,8.41,2.415696733314718e-05,0.02807293254460448,-0.002230415398828902,-0.008334689373477823,0.015519382781608741,0.011354336443961341
842,8.42,0.0011336753086423615,0.023633940992601743,-0.0027928686693458374,-0.002838108326659157,0.017790460894793157,0.01235564650405911
843,8.43,0.0018516252179021277,0.018436081183185297,-0.0032229257204447787,0.0008548191026522847,0.01777605220591752,0.015547317253907088
844,8.44,0.0025017192003900244,0.012968457233127152,-0.003529120400105345,0.003670583238788394,0.0166501523136619,0.01980421692421622
845,8.45,0.003387750898861394,0.0070270823941480185,-0.0037094224570549993,0.0072661492255716425,0.01649473576520046,0.022091214882682158
846,8.46,0.004305125941422088,0.0009582166270103287,-0.0038178624508889854,0.011364482195008966,0.016965025583132627,0.02310814463219657
847,8.47,0.005109011140006469,-0.005229948104197638,-0.00400207751423386,0.01554787238008598,0.02012100905755415,0.02283233658451506
848,8.48,0.005802163692184718,-0.011266936178489914,-0.004119057742231012,0.019773555575065584,0.024612400322543297,0.021913740361285176
849,8.49,0.006545183208518446,-0.01744983064552993,-0.00432838671612187,0.02487799515966069,0.027262850319397257,0.022733770907421163
850,8.5,0.007125431992780882,-0.02325030629405298,-0.004369235009845545,0.03038298595343998,0.02907416985904765,0.02434629532673876
851,8.51,0.006882542722677762,-0.029530546081532667,-0.004247430304213695,0.035848852422304116,0.027272612286183738,0.023463256815388488
852,8.52,0.006613144993701691,-0.034980121437734664,-0.003952815886352624,0.0412944649721691,0.02360073693660313,0.021288312831810537
853,8.53,0.006704477836431073,-0.03894784599327242,-0.003504100504795723,0.04674007752203407,0.019928861587022527,0.019113368848232584
854,8.54,0.006945168329858953,-0.041842243907339455,-0.0029863394682717844,0.052185690071899035,0.016256986237441918,0.01693842486465463
855,8.55,0.00718143099308219,-0.04391466553742291,-0.002455978758471859,0.05763130262176401,0.012585110887861312,0.014763480881076681
856,8.56,0.00745834950664608,-0.04568757936372835,-0.0015849445966623832,0.057878701755720824,0.010931643329870377,0.016225665109849092
857,8.57,0.007588002376837543,-0.04691360439564017,-0.0006826043040911486,0.052913312070640574,0.011302243028536656,0.02133517578749757
858,8.58,0.007288594972391596,-0.04704511495347366,2.990684122743635e-05,0.04817008104472528,0.011458556781118151,0.02798379322773663
859,8.59,0.006652221527937641,-0.04627395966287588,0.0004970764714506803,0.0436495424993426,0.011400069683459264,0.036175215724749514
860,8.6,0.0062122525958320145,-0.04454698724202071,0.0004271708411250823,0.04054657665122907,0.01302035133315974,0.04502762603305865
861,8.61,0.00549105056894186,-0.04216155909542142,6.66797635619032e-05,0.038256679643642086,0.01560351450671936,0.05425915523549444
862,8.62,0.0042487506450436035,-0.039494827665108895,-0.0004055406264047678,0.038856701303641134,0.018169920016064208,0.06564349980263565
863,8.63,0.002696823864201967,-0.03627819528047615,-0.0008342707503690138,0.041003958706596184,0.02072735362688044,0.07818044181745501
864,8.64,0.0012728801930938683,-0.03254898472481288,-0.001244539968101161,0.04056761953966925,0.02147393052215709,0.09250772986672624
865,8.65,-0.00023674420132931313,-0.028186717703299162,-0.001430709185146048,0.03881451980210197,0.021297582859513813,0.1077474889625418
866,8.66,-0.0019257074987015844,-0.02285299125982037,-0.0013990452650741256,0.034419302858109645,0.02279577264236483,0.11863758014583793
867,8.67,-0.0035787657626845776,-0.017111690943152645,-0.0010949860417909124,0.028444219729003437,0.025295259823911856,0.12692676731369013
868,8.68,-0.004925117689863255,-0.01097104589020477,-0.0006267030571252001,0.02003202678016576,0.026534938145144214,0.13470588517659032
869,8.69,-0.0060309285769856984,-0.004830184595379202,2.6762520457822292e-05,0.009761720140782007,0.026814106573933627,0.14209611340021974
870,8.7,-0.007247598659645693,0.002123814699112315,0.0008582154798998185,-0.0009228307911356887,0.026037638389372997,0.14796652580024275
871,8.71,-0.00818776585684647,0.00847475425929082,0.0017922140845947196,-0.011838076388224476,0.024673281030602,0.15299054536186624
872,8.72,-0.008201180726568655,0.014430536414784567,0.0027015644521320636,-0.02299061740359896,0.023888758681913157,0.15521398257036245
873,8.73,-0.007833411269428103,0.019515829320624976,0.003550727454083957,-0.0343283975774073,0.023556871070439425,0.15525121019265667
874,8.74,-0.00841024568366444,0.0235642155402562,0.004454494331222824,-0.04062219994094423,0.022488003001913056,0.15345523615372292
875,8.75,-0.00917801136854863,0.026821299875217936,0.005245595168064279,-0.04184369890682756,0.020678015797473737,0.14981576569894536
876,8.76,-0.008602590794757645,0.029227027414580796,0.005848060199972328,-0.044040684456963256,0.02130653998458641,0.14390319093266266
877,8.77,-0.007302209580991565,0.031095075344136955,0.0061883146499654654,-0.047220991824959764,0.024393162000130995,0.13569925398891888
878,8.78,-0.006694273761571489,0.031890175593988664,0.006145342205666206,-0.05075953546879598,0.02600194849209643,0.12908713477118333
879,8.79,-0.006281602896983018,0.032285766092119736,0.005797218623992328,-0.054659771043865886,0.026118643812345285,0.12408218843436923
880,8.8,-0.004344788429789918,0.034660986402039705,0.005354578026611841,-0.05962722941294996,0.025564882449960896,0.11692425954841522
881,8.81,-0.0022724095616715326,0.03670106186663023,0.0046607865128396285,-0.06508205026699171,0.02470494749689112,0.10878314052530848
882,8.82,-0.0002809375012106322,0.03790311010683307,0.00362592206786766,-0.0689462215049337,0.025771568692022875,0.10188052359278586
883,8.83,0.0011815681044429166,0.038114926770809465,0.002482718231888835,-0.07189923421789372,0.02794176294342233,0.09568734746144404
884,8.84,0.0015410670402117334,0.037470399700543715,0.0009474917703518985,-0.07050740244004942,0.027891692800055698,0.08816007694334292
