,ts,ax,ay,az,wx,wy,wz
0,0.0,-0.3237732943722613,-0.05717339240749535,-6.532056857118846,-0.033087003051472434,0.05085301249584162,0.004386240578117517
1,0.01,-0.06043959647835939,-0.008979107829236624,-1.2829127918704861,-0.035215134035238585,0.05250660090553235,0.0014997982681337393
2,0.02,0.09733683252359779,0.01955847279961556,1.8397426641694423,-0.038101762625322014,0.054363456381959364,0.0018155131668891973
3,0.03,0.17691726816201814,0.033547852579531426,3.4054025329428805,-0.04175298117197421,0.05642521159232534,0.005359105412606696
4,0.04,0.19424235227391684,0.034792595919640824,3.876227090368195,-0.0414983765300435,0.05354091830463818,0.006554014590679105
5,0.05,0.17455228198084646,0.029427787756770903,3.6118000373767782,-0.03939303916131925,0.048312992604093136,0.00663602530707444
6,0.06,0.13593233850502398,0.022228109090762834,2.891033105238274,-0.036970813320589456,0.043066518206745064,0.00516027413415517
7,0.07,0.08755699816156831,0.013697269640270272,1.932585698253063,-0.03437840482981549,0.037810082366631866,0.0028479382638388465
8,0.08,0.03574672059371013,0.003674126747368677,0.8993638854896999,-0.028914516020027543,0.031435621169962666,-0.001556442830064317
9,0.09,-0.013309144254896113,-0.005744320004882978,-0.09600629367864988,-0.02180933003591085,0.02442211263370615,-0.007156607120287668
10,0.1,-0.05587777621648541,-0.013443161854626256,-0.975503289833869,-0.015665930677616263,0.01980471168653228,-0.011562784953458777
11,0.11,-0.08969489913743503,-0.019093406110389993,-1.6928395684991373,-0.010222435477573698,0.016930988203977645,-0.015100083906687932
12,0.12,-0.11411479759594009,-0.022800972557202374,-2.222635590618426,-0.007330521576972932,0.01613930372568875,-0.021890067841501847
13,0.13,-0.12854263036889327,-0.02444140425719108,-2.56029177093086,-0.005744292135723712,0.016413031496748234,-0.030344502065456268
14,0.14,-0.132124031518707,-0.02427037304062942,-2.7120584325878583,-0.007516241361654673,0.024382511774384236,-0.039251496999997325
15,0.15,-0.1276388773122407,-0.022505868077582803,-2.6944142443771364,-0.010946711453091713,0.0361527326834427,-0.04838200040618455
16,0.16,-0.11708958111081018,-0.01901801730305943,-2.5292461515496307,-0.01392520207873917,0.04371476690161731,-0.05641197348345552
17,0.17,-0.10156562338062197,-0.014565368447002585,-2.2423865247788752,-0.016449356818683168,0.047046674815119635,-0.06333567855614318
18,0.18,-0.08144414493720255,-0.010408122971792366,-1.862446356652986,-0.013257168673383876,0.052088890421043865,-0.07213932007736668
19,0.19,-0.05859813764605051,-0.006406762440465135,-1.4168274673554144,-0.004321133186296424,0.05884964294645857,-0.08283194345104844
20,0.2,-0.03586875469521878,-0.0032267966538393564,-0.9332645777957311,0.003177660390102163,0.061237347519772174,-0.08865659458928953
21,0.21,-0.013342775662547157,0.0001927122584825169,-0.4349539756123788,0.010009696593499285,0.06159633170658181,-0.09222292278592444
22,0.22,0.009819785554111143,0.0030590267294199752,0.05373057685823224,0.012986805355609764,0.05931145338020528,-0.09205719839502942
23,0.23,0.03128779084585012,0.00624792888172612,0.5163128223636703,0.013903654446398876,0.05561356705422348,-0.08989688459760273
24,0.24,0.04962185267869105,0.010087613404289267,0.9381577860974034,0.014820503537187987,0.05191568072824169,-0.08773657080017604
25,0.25,0.06308803332216895,0.014562824729460723,1.3056115431896633,0.013391607799269787,0.04855486647528807,-0.08467441017444383
26,0.26,0.07306199194041843,0.01863846189311027,1.6084817128565163,0.009615089885842592,0.04553139406092726,-0.08070968095423701
27,0.27,0.08278379132267881,0.020611559182746514,1.8391719813586256,0.007084024995360834,0.04143501477954716,-0.07421423525942428
28,0.28,0.09077839471690209,0.02101116010772671,1.9952955447191767,0.0058327565201847275,0.036236143202535716,-0.0651182885319062
29,0.29,0.09472417232129515,0.020826744999085427,2.078699284492045,0.0061332240904137065,0.03091662324474233,-0.0587852669637019
30,0.3,0.09517379562325262,0.019933581694382637,2.0907148743497985,0.007989778658308069,0.025476116617096086,-0.05522291759110827
31,0.31,0.09346763528524521,0.017798461210253216,2.035567236697779,0.011003032295700408,0.02430722593046709,-0.05096408176388947
32,0.32,0.0893041414072725,0.014891968841137644,1.9187583005771298,0.015173447774772959,0.02741166017302939,-0.046008480831733575
33,0.33,0.08220620222106784,0.011694986679430608,1.7477373035760653,0.017929247723218092,0.028195713114091712,-0.040729695963658136
34,0.34,0.07277661970129494,0.008485401346603312,1.5299420116750757,0.020035133823091248,0.02791371813671825,-0.035302431377212194
35,0.35,0.0619647643330777,0.005593937990238066,1.275213995165696,0.01831093584367683,0.03208236281529018,-0.03416836462234606
36,0.36,0.04954760235306215,0.0027372134807872846,0.9928654330702675,0.014625947919831244,0.0385294873661075,-0.03523217628564281
37,0.37,0.03618433828281569,0.0002587349727603055,0.6924839157944601,0.007632611940708334,0.04222053975418627,-0.03209728470758585
38,0.38,0.02178539487298569,-0.002338484138576063,0.38408339641511735,-0.0008919723191192912,0.044635961316796216,-0.027019049499388003
39,0.39,0.006749743290917081,-0.004424916351721464,0.07598654664624566,-0.008176321293028099,0.04581698116859804,-0.020299817637795408
40,0.4,-0.008349736353273619,-0.006752563748797242,-0.2221889049100907,-0.014890607368767534,0.04643061947210985,-0.012826316551047365
41,0.41,-0.023506701286909265,-0.0094631767296628,-0.5049878496923073,-0.016352993636218668,0.04209226520542,-0.0036226516029401828
42,0.42,-0.03747576013626328,-0.012168322151223675,-0.7631311835221883,-0.015419253196320568,0.03549461390619167,0.0063703832851172175
43,0.43,-0.04957847173855977,-0.014578161636737079,-0.9903732118252826,-0.014485512756422462,0.028896962606963332,0.016363418173174618
44,0.44,-0.05971198641674984,-0.016475986279563606,-1.1836292056330704,-0.013551772316524355,0.02229931130773501,0.02635645306123201
45,0.45,-0.067807356436456,-0.017735247429371763,-1.3405841320268543,-0.01261803187662625,0.015701660008506674,0.03634948794928942
46,0.46,-0.07492334923000882,-0.018216694212845545,-1.459450610810863,-0.01267702829975342,0.01025362151884378,0.04303891440238568
47,0.47,-0.0802817200082716,-0.017980110594286256,-1.5397628550554785,-0.013814078145681913,0.006053994436481204,0.04614081780324837
48,0.48,-0.08210073011487534,-0.017018490239616504,-1.5822411528882343,-0.016817347746506478,0.002410388696220228,0.051758989265628934
49,0.49,-0.08113181386379548,-0.015488371685720263,-1.5875669329147313,-0.0218118175074744,-0.0006399590514966236,0.06006194281431688
50,0.5,-0.07832166764963888,-0.013344266642662066,-1.5560660342636154,-0.02594761818556082,-0.003862392375312026,0.06870142474570086
51,0.51,-0.0737069346036783,-0.011071858634712032,-1.4913978390237839,-0.02965991819457786,-0.007169699322817666,0.07750688446535496
52,0.52,-0.06785888184652858,-0.00830055390780305,-1.3961988008231412,-0.03327141309095056,-0.009599399648875172,0.08472190645004504
53,0.53,-0.0608867980340224,-0.005399870231560553,-1.2741117924497445,-0.03678173932187834,-0.011148328272501564,0.09034075479930437
54,0.54,-0.05225649168852422,-0.003025618112417191,-1.1298558280406745,-0.03925216619614536,-0.010159713752126312,0.09262244570212036
55,0.55,-0.04286672418989566,-0.0010914442410894835,-0.9668608367822886,-0.0412474875368331,-0.008011755510948446,0.09337946793476648
56,0.56,-0.034017227210604566,0.000832164150517645,-0.7895601485674796,-0.03898340373879131,-0.009843855840084006,0.08959205076724669
57,0.57,-0.02499628682555229,0.00257870486141927,-0.6012902886670974,-0.034096506403231634,-0.014126756494225944,0.08300630453945351
58,0.58,-0.015109594057688469,0.003667311641339697,-0.40677038823780926,-0.02530273112202004,-0.015132200026830312,0.07748500629882152
59,0.59,-0.005154655131342558,0.004713852809101025,-0.20919350003945092,-0.014458410874517809,-0.014417453347124175,0.07252238905419578
60,0.6,0.003993033771797333,0.005648434982677039,-0.012669910844960275,-0.008829407343945316,-0.015805162065129538,0.06312609574888305
61,0.61,0.012647443024277599,0.006860284165108249,0.1789086840270946,-0.005638912627599139,-0.01817590907152773,0.051656762829635966
62,0.62,0.021025698346606763,0.008366666886101597,0.36168339522965165,-0.003970672882642728,-0.01898180106818753,0.042535737298992085
63,0.63,0.02869033411898659,0.01000349172664625,0.531994866736667,-0.003017472362930539,-0.019052643592312943,0.03451776738474676
64,0.64,0.03491281449245513,0.011807507022447877,0.6866923177202939,-0.0023040774894599373,-0.02028017256713436,0.02295291925188284
65,0.65,0.040026312439519915,0.013443753540369096,0.8231134689832679,-0.001830872258461893,-0.022666240172716928,0.0078355133516115
66,0.66,0.045080798481314965,0.013938452501751582,0.9395964847642928,0.001928377575377629,-0.024097322341306453,-0.003487076686470996
67,0.67,0.0493410485259202,0.014015888790927451,1.0340370599750726,0.007506514611318156,-0.024999802193287887,-0.012709165106256323
68,0.68,0.05223325659011406,0.013316735767387592,1.1055322124524491,0.01688826738908542,-0.02519520716617841,-0.022240251042808086
69,0.69,0.053909169684313335,0.012272649172450014,1.1534499493586863,0.0300797265663925,-0.024682405034391005,-0.032080829287986584
70,0.7,0.05495462745073765,0.010541473861903707,1.17762588323001,0.04448045471326348,-0.023034177012572987,-0.03582631954824942
71,0.71,0.05494641055866307,0.009384407574458398,1.178440249404914,0.059512225821119785,-0.02079344018282392,-0.03639115896384997
72,0.72,0.053650373845946564,0.007835820125240908,1.1572022971244231,0.07154113307779032,-0.020156485250460182,-0.034512335029584215
73,0.73,0.05131927581842562,0.007077548191327085,1.1149150109265864,0.08207827186835015,-0.02031626016653559,-0.03141954332728877
74,0.74,0.04818386783848631,0.006944127808324369,1.0530795128402317,0.08554732948396054,-0.020388543542290683,-0.03172096315722207
75,0.75,0.044318219321386215,0.007238967688627534,0.9738822315485853,0.0857146308699584,-0.02041995645672244,-0.03360794189540306
76,0.76,0.03988454493341237,0.0075618299169101155,0.8792919371467665,0.08343249171123335,-0.01813044870874545,-0.03843617301242524
77,0.77,0.0349331509776812,0.0075194905838052595,0.7720778303270728,0.07973997503116928,-0.014504564644909422,-0.044957964827885104
78,0.78,0.029855996032670785,0.0068700587979226785,0.6544387732745941,0.07533439988158276,-0.012306808548969532,-0.049924026084199435
79,0.79,0.024402949507833508,0.0055203713686956596,0.5293331599008853,0.07051647526350978,-0.010934914333454431,-0.05399043507272505
80,0.8,0.01811995033716321,0.0034725574559475282,0.3991690152003998,0.0684289082107664,-0.013265868066965709,-0.05588163025992701
81,0.81,0.011695911715634142,0.0008382540200787027,0.266603169909871,0.06783231563556542,-0.017618846994657753,-0.056584999976152614
82,0.82,0.005712510913201619,-0.002540411990075944,0.13400460289784002,0.0679945795838843,-0.017612807117333817,-0.060092302969681724
83,0.83,3.966574802713452e-07,-0.0061085262402937055,0.0035435184948342524,0.06860693479189163,-0.015021355895247354,-0.06526266850764302
84,0.84,-0.005319187106608099,-0.00890589634545275,-0.12238133696140706,0.06462005345660687,-0.013474924348684138,-0.0682303815588171
85,0.85,-0.010433796465954413,-0.011598565768734723,-0.24229790602013673,0.05842477612569756,-0.012430275488236593,-0.07014045626375998
86,0.86,-0.015462204043625947,-0.014467853431114588,-0.35436753236224755,0.052869461686830696,-0.013000503393371709,-0.07271946340593413
87,0.87,-0.02019098170038531,-0.017177865146073366,-0.45705518109098353,0.047968084258959084,-0.015220870233657409,-0.07598200967826732
88,0.88,-0.024140619728545507,-0.018738851484157368,-0.5489657987790719,0.04042024569724924,-0.013829640719428023,-0.07832626981521723
89,0.89,-0.02746477197840964,-0.01955597582354759,-0.6289207475945737,0.03019827893717372,-0.008789057912518146,-0.07974264372047506
90,0.9,-0.03022251248863712,-0.02004207148833779,-0.6960321119325948,0.02146352281107435,-0.004617209437151052,-0.08064376430033837
91,0.91,-0.03247006921658202,-0.020160913970065072,-0.7494996692898558,0.014292870441594148,-0.001359011389253869,-0.08100299145673591
92,0.92,-0.034423213013474126,-0.020037723801401664,-0.7890094677368991,0.007929057604063771,0.00018540978059430703,-0.08170250592210154
93,0.93,-0.0359199912047376,-0.019436469222894076,-0.8141590125710215,0.0025752021991181963,-0.0004153808633549586,-0.0828279733598954
94,0.94,-0.03688861390484238,-0.01845928975614066,-0.8250163702727318,-0.0012304887849106838,0.0017847332842647094,-0.08457815640333669
95,0.95,-0.03728095557998999,-0.017014453697233277,-0.8217002996351165,-0.003459895308086945,0.0068366263770842295,-0.08696440205636248
96,0.96,-0.03680181000879811,-0.01538338069728035,-0.8048021217444792,-0.005992108358947856,0.009160256466459498,-0.08122542435825646
97,0.97,-0.03566802949540835,-0.013330053406951422,-0.7749010564838718,-0.008828463223845201,0.008743592727360298,-0.06732539350069533
98,0.98,-0.03459099088547002,-0.01039060741392562,-0.7329270485286694,-0.01220391735686647,0.008135533647694908,-0.0560595456048138
99,0.99,-0.03321704154797026,-0.006852576454438097,-0.6799294860833653,-0.016122149139532076,0.0073347732989906735,-0.04744585422483568
100,1.0,-0.031084624980955503,-0.0030682227481181375,-0.6170967033921065,-0.01901720715087557,0.006982771282099442,-0.037700135674472134
101,1.01,-0.028302435332845363,0.0008523684024096204,-0.5459005113282024,-0.02085454861155193,0.007094677868137945,-0.026784172237578344
102,1.02,-0.025104719532945116,0.004410092630414212,-0.46757928131193954,-0.02269189007222829,0.0072065844541764484,-0.015868208800684562
103,1.03,-0.02151179058097443,0.00777551306688481,-0.3839798594345807,-0.024529231532904653,0.007318491040214952,-0.004952245363790775
104,1.04,-0.01757845458839112,0.011010855641670866,-0.29687231306546635,-0.026366572993581014,0.0074303976262534545,0.0059637180731030035
105,1.05,-0.013382552750690327,0.014104179644523082,-0.20794495794531176,-0.028203914454257382,0.007542304212291958,0.016879681509996792
106,1.06,-0.009399184617513842,0.017339647145236132,-0.1183077352462705,-0.029073066402816167,0.007812560233469028,0.025578471979545016
107,1.07,-0.0054194558825488865,0.020359230071038553,-0.02985417369109203,-0.028970925667744188,0.008241673220025496,0.0320529831581344
108,1.08,-0.0009905487602186918,0.02264207331650863,0.05574850772511943,-0.0308639016968459,0.00913658555437135,0.0376341451441956
109,1.09,0.0036005728942884708,0.02418677152093186,0.13689426276625744,-0.03370527935093545,0.010252920948406994,0.04279064335062774
110,1.1,0.007976427625406207,0.025348859421044215,0.21269562032541878,-0.0362702154917359,0.010142380760619856,0.04401490470689532
111,1.11,0.012049937065708402,0.025953623891507207,0.2822226274476703,-0.03853996057078593,0.008721752585956605,0.041040226630935886
112,1.12,0.01660860154290116,0.026005929053987666,0.344284705561891,-0.041416750721330116,0.01255178853392112,0.03836141901600152
113,1.13,0.020669493645685766,0.025180907586495084,0.3985113792991114,-0.04469337102262955,0.019840173665988274,0.03587748643850794
114,1.14,0.02290713700710937,0.023401736354556505,0.44425459904490155,-0.04573174984215615,0.022443374661062075,0.026757670514443443
115,1.15,0.024369076991472224,0.0208036978865678,0.4816100095315494,-0.04574990241631504,0.02291099383448408,0.014613112887348874
116,1.16,0.02573392208022442,0.017180643668776502,0.50991720893733,-0.04334547504369112,0.024023106475036846,-0.0020162715203916066
117,1.17,0.026665248782534297,0.013326582414399482,0.5297283326180562,-0.0398331992488864,0.025429946673132076,-0.020696572051371213
118,1.18,0.027166165502855878,0.009904220323294733,0.540978989899948,-0.0357797357686422,0.02742735946951615,-0.0426525558440676
119,1.19,0.02751749742204141,0.007328780681085665,0.5430800065623471,-0.029903162527618626,0.03141424596856747,-0.07564339923969013
120,1.2,0.027272738516015166,0.0027655828802636267,0.5373637441165743,-0.02482763996013922,0.033356494031392375,-0.09931170014884466
121,1.21,0.02624215221291121,-0.0017570255243491645,0.5240421698611175,-0.020149885446359247,0.034283460691733096,-0.11835081878171948
122,1.22,0.0235407053680586,-0.005626891348142641,0.5037295751681435,-0.017806376822745485,0.031869220604502604,-0.13285384982971485
123,1.23,0.020638500621099762,-0.008638938516838841,0.47623379532381527,-0.01656234677228739,0.027881202346380213,-0.1452202888731818
124,1.24,0.018215286367162055,-0.010813277580274963,0.4418458747459578,-0.0153183167218293,0.023893184088257833,-0.15758672791664874
125,1.25,0.016079133274678414,-0.01245350169919494,0.40133476511920596,-0.014074286671371204,0.019905165830135442,-0.16995316696011573
126,1.26,0.014091138349082618,-0.013764490319927054,0.3555686860741871,-0.012830256620913109,0.015917147572013055,-0.18231960600358268
127,1.27,0.01210108437062907,-0.01526003826591344,0.3059464742415811,-0.00824886694212027,0.012931848129529678,-0.1925042316903488
128,1.28,0.01008225130205099,-0.016772759254893712,0.2531750653901163,0.0003107256430479339,0.01114181061590315,-0.20008808994315186
129,1.29,0.007984672112616276,-0.01829820013146366,0.1977734449231346,0.009286356159299769,0.009708709760611316,-0.2092910278100425
130,1.3,0.005858434641947323,-0.019529546199523847,0.14076345029755855,0.018677193362017685,0.008631832403497658,-0.22010981036671684
131,1.31,0.004167764827169445,-0.02053350639025475,0.0831280861162324,0.02776707002112633,0.010295603443264254,-0.2278227345613716
132,1.32,0.0025976477628263206,-0.021040094516654218,0.025932766782009852,0.036557067647862485,0.014690174273174459,-0.2324409613943093
133,1.33,0.0005897297372619405,-0.020371943567531043,-0.029996086205570677,0.03978623348033348,0.016008588638728716,-0.2379681496696275
134,1.34,-0.001598343369542682,-0.018778225035433756,-0.08363938396720663,0.04031347955541265,0.01583234748594063,-0.2439369878582568
135,1.35,-0.003659964824669656,-0.016594144806821087,-0.13422936721326878,0.03957323043713326,0.01590042876631794,-0.2459628724519753
136,1.36,-0.005694290839840386,-0.01420486313557033,-0.18071425899887597,0.038246057794789526,0.016081645452835483,-0.2461629416648754
137,1.37,-0.007482812011435426,-0.012439506229497967,-0.22268382012244192,0.03757367234479535,0.013944917199341269,-0.2432313992351296
138,1.38,-0.009159320839944748,-0.01085254815240425,-0.2592956996073998,0.03738664804364882,0.010090011754548071,-0.23797854899365745
139,1.39,-0.011194434840065035,-0.00869883526351692,-0.2902930796009141,0.03762120515885716,0.007309328032978497,-0.2274438437833947
140,1.4,-0.013014334628624476,-0.00656063863515793,-0.3150415564467575,0.03807091460843542,0.005076868930465351,-0.2142135657080748
141,1.41,-0.014185648941458424,-0.006748616339103437,-0.3338006513712221,0.03759282488242097,0.000983519984862589,-0.19749347532663944
142,1.42,-0.014918159642144654,-0.006948788829660258,-0.3462191857705406,0.036501595658036935,-0.004339604859370564,-0.17846712964441794
143,1.43,-0.015980931243228948,-0.0024268414093117727,-0.35150706142707855,0.03504289202654115,-0.00819585573254505,-0.16424472243873767
144,1.44,-0.01663157994298554,0.002387626280873068,-0.35091379298222974,0.03336920217906033,-0.011193930693977974,-0.15283279818073747
145,1.45,-0.01683289159608823,0.003714594584928502,-0.34540304582165143,0.028804813106369218,-0.014799281193274932,-0.13863952270575952
146,1.46,-0.016372869428855307,0.0036894712930347065,-0.33513693918850157,0.022514867709207312,-0.018767135039830872,-0.12278596443789384
147,1.47,-0.015273200735796168,0.004337056164652208,-0.3198855560674311,0.015662999832491833,-0.01934404626730657,-0.10971974122294158
148,1.48,-0.013715570460185752,0.005008584469449141,-0.3005892917598966,0.00848280969585976,-0.0179396843041663,-0.0982821130135572
149,1.49,-0.01191788792719203,0.005881343418436135,-0.27763299361406446,0.0013849013515067619,-0.01816351319707396,-0.08456118805276194
150,1.5,-0.010006614978617668,0.0065060538443565095,-0.251726230894677,-0.005667143959897036,-0.019294879089482558,-0.0695675767388598
151,1.51,-0.008263072050260617,0.007756270139550204,-0.22290531953543602,-0.011740478348766244,-0.01750262656002984,-0.06167201802601351
152,1.52,-0.006573046133011203,0.008609160742039209,-0.19212452067813057,-0.01727113251679279,-0.014089272381147724,-0.05771222079738395
153,1.53,-0.004123362936149055,0.008970025707543128,-0.16007363380115172,-0.02380360318380108,-0.008455420821216062,-0.05768039542484231
154,1.54,-0.0020065884104373596,0.008860886776139502,-0.12700978663551263,-0.030842335778715688,-0.0016994542969334529,-0.05963354694841496
155,1.55,-0.0008390617030760803,0.009122618218040824,-0.09344114109820416,-0.03889267175683657,0.0008671272496699817,-0.06268184054670788
156,1.56,-0.00019880141016835346,0.009194119417187018,-0.0595278962428201,-0.047430964658905436,0.0014129174062099685,-0.06625838678525278
157,1.57,0.0006731542687169502,0.010224952005077255,-0.026932504535991032,-0.05567315967723115,0.002630293501465718,-0.06555595242048423
158,1.58,0.0012634198153066286,0.010864010515600486,0.005531949478405783,-0.0637692514387039,0.0041790495163028405,-0.06274214530879997
159,1.59,0.0012325502258926859,0.010842606682133212,0.037305383800012214,-0.06737871503191069,0.0033639800028460584,-0.057288519278497936
160,1.6,0.0010248198136017473,0.010437481265427147,0.0683196459227332,-0.06842479395827035,0.0011983652944055154,-0.05032666232611949
161,1.61,0.0004170185930108699,0.009327570082846539,0.09793760593865482,-0.06585876207061189,-0.002418649236674811,-0.04558903192534874
162,1.62,0.00012436529981633406,0.008476205644239121,0.12560643863742438,-0.06149667987402184,-0.006757343481931918,-0.04195735396923875
163,1.63,0.00044044995315509075,0.0083624042704779,0.150747129798563,-0.057290684311292674,-0.011015900366160269,-0.03836814122778124
164,1.64,-2.2539128610660555e-05,0.011853553815688806,0.17175345113898247,-0.06399857614739005,-0.009671093829235951,-0.03774818062291144
165,1.65,0.001233599985723765,0.012380742092095637,0.19083432721326238,-0.0652469109105579,-0.009397779076920777,-0.03600530805843319
166,1.66,0.003205394607130249,0.011545281611726054,0.2063993753576117,-0.062004817193658135,-0.010005755088946956,-0.033338852174524834
167,1.67,0.005248850624504035,0.010565266314447083,0.21761741838881218,-0.056544681806033885,-0.008026840944152649,-0.028607242054860725
168,1.68,0.007092961723165023,0.009619121439164482,0.22429260380243862,-0.04874434380075665,-0.003318560982441692,-0.02169673718666186
169,1.69,0.008154344261820736,0.009273026139436098,0.22652469368157355,-0.04329383228400748,0.0014663575162549253,-0.020323763853477898
170,1.7,0.008697585514283158,0.009063116558499352,0.22407341360785907,-0.03933936414538828,0.00630006879872801,-0.0224763220540432
171,1.71,0.009632904164395842,0.007652141634517949,0.2173669187301889,-0.034407033710136134,0.012116591439677787,-0.023011907050534817
172,1.72,0.010139075012960477,0.006230524397704841,0.20677443118218447,-0.02894305291848674,0.018467455174260617,-0.02266836583141244
173,1.73,0.010078992234707077,0.004757780626036567,0.19241156701163842,-0.02237550874274068,0.022845535949232467,-0.019506352954301316
174,1.74,0.009431142926044188,0.003672306275071287,0.1756164172227985,-0.01527927919484714,0.026278513336217342,-0.014994091637576881
175,1.75,0.008506391343408463,0.003040072621347481,0.15648033786118123,-0.008579638689483436,0.03055222860728787,-0.015572170666696531
176,1.76,0.007314746771731022,0.0024183989170116025,0.13641807046521698,-0.002096185783323261,0.03528424475213067,-0.01892508293749386
177,1.77,0.006405396991287672,0.00035394672669735415,0.11537019250874994,0.004843738505711866,0.036850183384894174,-0.015877700357656045
178,1.78,0.005313890481438863,-0.0017173181134515856,0.09458004076542509,0.011992698603700223,0.03696625331005583,-0.00989937651439135
179,1.79,0.003638693494843948,-0.003924436396672832,0.07382517441768802,0.019599353282472046,0.0354568365264104,-0.006697822573971567
180,1.8,0.0020166526019158512,-0.005814364726406663,0.053798113230476695,0.027429710701859046,0.03315294708160469,-0.0048534423109434545
181,1.81,0.000706224711820132,-0.007238502807476659,0.034439707777307496,0.030434000952833995,0.031937286432430816,-0.0032243835850424953
182,1.82,-0.000228470709888282,-0.008604012993212614,0.015858304275928617,0.03070117522159876,0.031338817447790955,-0.0017174450037682676
183,1.83,-0.0008029399625048019,-0.01064673275594651,-0.001533863125136016,0.029968694972688486,0.029736482403891776,0.0019515980734596914
184,1.84,-0.0010746765054662675,-0.01279426391488685,-0.01828630157025587,0.028665813457449736,0.027561342994783057,0.0068543345123650325
185,1.85,-0.0011320803007917597,-0.014717356767486853,-0.03403035026068452,0.029743484404257267,0.027555040547248298,0.011857361508035971
186,1.86,-0.0010333166099578382,-0.01648245847479257,-0.04929111720301746,0.032288271326138734,0.028885375457800087,0.016922196794146097
187,1.87,-0.0005583005042479273,-0.01816143052886704,-0.06373028627799318,0.03486088941230266,0.031782081854931,0.020710913554048117
188,1.88,4.476992070789236e-06,-0.019696492756916498,-0.07730268513492225,0.03746168592219472,0.03626470391899278,0.023207589197960392
189,1.89,0.0006888320187557282,-0.021604559847362412,-0.08979858177555226,0.03919742201953578,0.0396888163385937,0.03049642194658665
190,1.9,0.001207664303882594,-0.023321478578047665,-0.10106884933483368,0.04006671249950191,0.04205272414232551,0.042585085390166616
191,1.91,0.0008472947456523582,-0.0233530691523151,-0.11175410834084104,0.03956657748296243,0.045125617442225895,0.051725661145709735
192,1.92,2.773240171755932e-05,-0.02263512777396342,-0.12088468066590773,0.03843319832779315,0.048526356916283216,0.059502994247030525
193,1.93,-0.0005446796692003845,-0.021429397633109394,-0.1279336267796632,0.03381868170252063,0.05113854843007731,0.06622298050354555
194,1.94,-0.001058236514893905,-0.019876570791291258,-0.13258364671303383,0.02571466283949545,0.052960297194756964,0.07188307923400984
195,1.95,-0.0017640882742105887,-0.01820288268272978,-0.13502772954921366,0.01944378129691396,0.05492577370103089,0.07997146544799412
196,1.96,-0.0027033859567209577,-0.016344558555616333,-0.13478332605229787,0.014238461549074868,0.05697479593439219,0.0894713609582181
197,1.97,-0.004148296500669613,-0.013505629098710017,-0.13224780667528074,0.008101914052663589,0.0570297460037138,0.10252843512741053
198,1.98,-0.005502263659332212,-0.010566650701953475,-0.12703118781081,0.0014568482495180852,0.05599578715476265,0.11752798842824742
199,1.99,-0.006596233312263833,-0.007515901780710843,-0.11947375131832749,-0.003973946579619359,0.0556889245052174,0.12748178931650755
200,2.0,-0.007232698821663604,-0.0046714595615062905,-0.10967597888964958,-0.008765729455402134,0.0557646973403412,0.1347802552965618
201,2.01,-0.008973512931556245,-0.0020167639748231193,-0.09760390324050505,-0.011197395575743323,0.05504166771660378,0.13955446721936726
202,2.02,-0.009829476785581786,0.0005647223894038288,-0.08425239686688127,-0.012438528902193187,0.05391569170433595,0.14305534924087052
203,2.03,-0.008958622365376789,0.0031584433362115034,-0.07029772574189645,-0.013679662228643051,0.05278971569206812,0.14655623126237385
204,2.04,-0.007109553431671843,0.005884755957953925,-0.05603135997409923,-0.014920795555092915,0.051663739679800286,0.1500571132838771
205,2.05,-0.004830983999861219,0.008776405783685149,-0.04170986481913748,-0.016161928881542782,0.05053776366753247,0.15355799530538042
206,2.06,0.0008825401513177034,0.013342033494120567,-0.02776401161107694,-0.02307276295213664,0.048547877868099054,0.16567419413281814
207,2.07,0.005951567357788469,0.01777383824118185,-0.014163463777579686,-0.0338188430416108,0.04597360380526026,0.1836181889890816
208,2.08,0.005172675225823131,0.020801903553917492,-0.00013103073366523433,-0.04445717924662385,0.04514457994408453,0.19738747311712296
209,2.09,0.001548842304076684,0.0228616381899473,0.013500214643973942,-0.0549830142738308,0.046137865573933935,0.20679771750686535
210,2.1,-0.001566203731339718,0.025388117578634677,0.02533370348974035,-0.06425667129888654,0.04394843126910577,0.207138495567648
211,2.11,-0.003423352817339646,0.027007143270696265,0.03564537709684286,-0.07286522259902073,0.04006846634823158,0.2026619441696706
212,2.12,-0.0032642801453508317,0.027219759749898632,0.04441572922942629,-0.07496982381774947,0.03939944467433803,0.20201540898073908
213,2.13,-0.0022553492011711026,0.026525463350854702,0.05201930407512363,-0.07293709553443234,0.04077298637483269,0.203805245359342
214,2.14,-0.0017607284071702255,0.025149642490693815,0.05848435859357547,-0.06742903066440148,0.03941726274499021,0.20045434160732592
215,2.15,-0.0012625839237311864,0.023533771123461437,0.06401662649450526,-0.05969154764255225,0.03631072346988222,0.1938056682508353
216,2.16,-0.0005164547847386583,0.02216337081051948,0.06831619611918685,-0.05219634548431997,0.03465797684375173,0.18088935796376604
217,2.17,0.0003815807642202312,0.02082298963944567,0.07175109035730128,-0.04485364959562528,0.033920335481268014,0.16402781686965334
218,2.18,0.0011370168972870247,0.018730553875427117,0.07440516185054442,-0.041321687390767706,0.03193195952856485,0.14832761293368169
219,2.19,0.001870289934042313,0.01665839754764724,0.07622188098519853,-0.039982983441315366,0.02922372640584884,0.1332958136989372
220,2.2,0.002545367844555181,0.014319623725010467,0.07692085292954376,-0.0367895310510282,0.027361250006609363,0.1213243665116312
221,2.21,0.0031229161289677747,0.01220132094414742,0.07657219019675039,-0.03220995965297403,0.026130837473578018,0.11164002848156697
222,2.22,0.003624937348110618,0.010828541760666978,0.07531951416907214,-0.027630388254919862,0.02490042494054668,0.10195569045150273
223,2.23,0.0031167477277490004,0.011051762280890418,0.07237148223729153,-0.022321089548193538,0.0166756949890857,0.08488327260103272
224,2.24,0.0029927678039817214,0.010266691253302908,0.0687962641615513,-0.01692663561672546,0.0076347660758984285,0.0669487058491307
225,2.25,0.0030412250160048327,0.007200829145033775,0.06482380939397811,-0.008255738677592087,0.0016795851919413482,0.056040196405888566
226,2.26,0.003136847699655235,0.0030788147611397303,0.06011184640961631,0.00368113340017252,-0.0011997062826872296,0.05213529680386657
227,2.27,0.0027896414469067952,-0.0010971209566094254,0.054768724713415894,0.01631548602788921,-0.004929476379305306,0.04455990828886017
228,2.28,0.002491414081648393,-0.004603737002654195,0.048343031973227084,0.029369220475473013,-0.009170623133340609,0.034777524438664595
229,2.29,0.0028706783242801724,-0.008420038766249418,0.04122451281028554,0.04130791513351149,-0.008280958222561157,0.02518373222999792
230,2.3,0.0033098961492761566,-0.011456003254660795,0.03316189625155228,0.05256493706168616,-0.004254603099679362,0.015705234363574332
231,2.31,0.003215549019171155,-0.013837476202446677,0.024478781849230337,0.05796349654123386,-0.004078741430846428,0.009022609858058556
232,2.32,0.002896795618611816,-0.015269002313322181,0.015210491742499175,0.060659269823161326,-0.005679294760469178,0.0036298541528330115
233,2.33,0.002849743706828467,-0.015905803279859826,0.0057179098835206344,0.0622866776960825,-0.0052816032919101065,0.0006199717547955791
234,2.34,0.002657037385165674,-0.016323116518581936,-0.0036434579480757573,0.06327169772099428,-0.0036824051432593225,-0.0009571341390799069
235,2.35,0.0020755647118294055,-0.017640239820696815,-0.012616898953332317,0.06489914833401571,-0.00405708784369666,0.001393342208581784
236,2.36,0.0012697597571130876,-0.01902319506467927,-0.020869844927874835,0.06685226749712768,-0.005432393687041235,0.005734835232031759
237,2.37,0.000829790306873931,-0.020592028350378253,-0.028744267731613322,0.06808854024415899,-0.005838438451855102,0.016080684783334402
238,2.38,0.0002527593882927855,-0.021885034907089554,-0.03537771105544185,0.0689818628134202,-0.005780774043084496,0.02929910939734125
239,2.39,-0.00133543257177252,-0.023028733656280893,-0.04084434172059209,0.07028165836936738,-0.009091857864626112,0.04238646645022415
240,2.4,-0.0027778735973114734,-0.0238272907462694,-0.04478111736250957,0.07177994147842018,-0.014047957751602228,0.055409821022373656
241,2.41,-0.0033199779420548404,-0.023444767774199057,-0.04733045022961498,0.0699477096791503,-0.016855517485756862,0.06879892640570524
242,2.42,-0.0033968608655413116,-0.02296143016536461,-0.04856606418444699,0.06633156571768302,-0.018512262101201216,0.0823839376289329
243,2.43,-0.003283101046676361,-0.022900833839642778,-0.04861912074318292,0.06271542175621575,-0.02016900671664557,0.09596894885216056
244,2.44,-0.0049783713431429365,-0.026328583776681243,-0.04840507452683773,0.05296078190931442,-0.034013198438629905,0.1251059431415475
245,2.45,-0.005426861524976515,-0.02562600242305192,-0.046611876002649065,0.04165223116424276,-0.0439483360675441,0.1473692843585296
246,2.46,-0.0045881216480576645,-0.022087643055085496,-0.04381339392846482,0.029865356324359306,-0.04778839576105394,0.15995583824785234
247,2.47,-0.002818923871558813,-0.01841232833225104,-0.040547690590310895,0.018660990466438158,-0.05105756790304981,0.17207429722764486
248,2.48,-0.000743576041422226,-0.015382437030494227,-0.03744246191779403,0.007739527871336041,-0.054049480885054735,0.1839654196661723
249,2.49,0.0009318168698382368,-0.012164543423391069,-0.034353879115522824,-0.005295292480981127,-0.05535801436226143,0.19611221770142248
250,2.5,0.0023005253238097692,-0.009170910954385473,-0.031396794879427974,-0.02012026035353993,-0.05524061906056072,0.20847558911801187
251,2.51,0.003087856796246102,-0.0061756673742268085,-0.028340562321718377,-0.0346770535845406,-0.056038401507098115,0.21563486895556036
252,2.52,0.003507657023322094,-0.0032689502842136054,-0.025278558469718684,-0.04896265170336221,-0.05776166941585215,0.21753144314962172
253,2.53,0.004719590361957581,-0.0006632068644742868,-0.022835293325240473,-0.062375184483787774,-0.05494952576841312,0.21702798891488265
254,2.54,0.005779834172133677,0.0014072039248308934,-0.020513649751434125,-0.07529917103305847,-0.049599475592025134,0.21518153686315405
255,2.55,0.006175199373667041,0.004837291878138869,-0.018925486031154445,-0.08810716280552028,-0.044755181081304565,0.20904288162798948
256,2.56,0.005965240838547696,0.008065451428418323,-0.01688077624116818,-0.10083920036123,-0.04024205902946966,0.20009366078023916
257,2.57,0.004939724216409619,0.010948680885537356,-0.01470812169741921,-0.10605562093254634,-0.038274059553212406,0.18156035424922493
258,2.58,0.0036064166864332916,0.013053826557864029,-0.011344242964593854,-0.1073466218245426,-0.037635381976301625,0.15802126327928884
259,2.59,0.0032283286276378245,0.014129908373594525,-0.006954251048444864,-0.1052557126278233,-0.03604579694827977,0.13952547925473846
260,2.6,0.0025196422813902083,0.015188003210773545,-0.0015975120558316715,-0.1016038458075782,-0.034017310176526726,0.12335748876037345
261,2.61,0.0014502839511942043,0.01485669765455569,0.005153876981136127,-0.10054433735337773,-0.03461778779567756,0.11038451338687467
262,2.62,-0.00016240336708375248,0.015749125863184707,0.011691890650445512,-0.10069916416902784,-0.03644974800028851,0.09890817505237204
263,2.63,-0.0022440020216502364,0.018777972094634825,0.01719378107754388,-0.10085399098467794,-0.038281708204899456,0.08743183671786937
264,2.64,-0.004405374996717839,0.02303575825962515,0.021655224391978423,-0.10100881780032804,-0.0401136684095104,0.07595549838336671
265,2.65,-0.01063645559043153,0.043081965092754936,0.025012254376772913,-0.10741524731786267,-0.03566807007214247,0.0392084963766832
266,2.66,-0.011040602280687895,0.04433431651311888,0.028456638426561313,-0.1067029680898262,-0.032528811441862766,0.015604665306485525
267,2.67,-0.009261694028122124,0.03857755448547362,0.030836898374516704,-0.1017554819908284,-0.03036765666800941,0.00035785639664894994
268,2.68,-0.007116495296333455,0.03422132097898263,0.031589249512664175,-0.09124014262670548,-0.025013403747766512,-0.013944730734548804
269,2.69,-0.005468111804499763,0.03114017266856145,0.03114154264823975,-0.07756561379240187,-0.017847392945089413,-0.027711568204512614
270,2.7,-0.004747092216199904,0.02722610437335892,0.0298034430346642,-0.059006023739024874,-0.016700759190493453,-0.04070707718654195
271,2.71,-0.004531901605087421,0.024334305491070324,0.027919761360086948,-0.037894957807638935,-0.01869805642264835,-0.0532997199724831
272,2.72,-0.003970944158427993,0.021227945634790607,0.02544849835273902,-0.017609592196717497,-0.016505759494290784,-0.06318374972520667
273,2.73,-0.003557422375646779,0.01939826642634427,0.02291397745911956,0.002266319926942939,-0.012235900166217615,-0.07172461534851868
274,2.74,-0.003815688607967579,0.01770052318583783,0.02040070121638175,0.01913142819583312,-0.011363229692974082,-0.08372695545568777
275,2.75,-0.004017859061080792,0.01673729568859173,0.0180928485535799,0.034374621663130635,-0.01232061894903637,-0.0975939858487445
276,2.76,-0.003312373314010188,0.015567201927640276,0.01585736961920998,0.04254639468414625,-0.011416063099558588,-0.10696016450957983
277,2.77,-0.002342349333610438,0.014436577979809913,0.013860388817962591,0.047241526626560254,-0.009596087938049173,-0.11411351391781945
278,2.78,-0.002061095859388559,0.012491914984988693,0.011872634106703452,0.05286176650244765,-0.011243673689770865,-0.12267305837922896
279,2.79,-0.00163150870513024,0.009871908333135703,0.010068433565321635,0.059049730353000075,-0.015019246233975676,-0.13209556230283065
280,2.8,4.356990710367497e-05,0.006022364724959935,0.008097279337705975,0.06745925384766191,-0.014676714684628032,-0.14011287578537418
281,2.81,0.0019973963253617855,0.0014393503349167253,0.006339445848999344,0.07717462265869289,-0.011913538271143964,-0.1473042103837009
282,2.82,0.0037148594316256294,-0.0067395656982282524,0.0056897672453865115,0.08469281560662606,-0.011202701206421759,-0.14964858033845174
283,2.83,0.005094673163294559,-0.014332880117838925,0.004972344470559245,0.09120950067461173,-0.011427353223221382,-0.14978362633061187
284,2.84,0.0061156333519843805,-0.019720766086141234,0.0036778941261054916,0.0977261857425974,-0.011652005240021005,-0.14991867232277198
285,2.85,0.006849668131667447,-0.0240284349467529,0.0019656759680429575,0.10424287081058307,-0.011876657256820626,-0.15005371831493208
286,2.86,0.007343503741166581,-0.02792217412928487,-2.3270059165552814e-05,0.11075955587856877,-0.012101309273620249,-0.15018876430709222
287,2.87,0.0075603000810680766,-0.029851481788758953,-0.001511075644067707,0.11210753828104997,-0.014182517067506041,-0.15091412484137887
288,2.88,0.007571984930236008,-0.031407605464069274,-0.002915208669325307,0.10827025166332954,-0.018126231137763533,-0.15223169195158096
289,2.89,0.008007859742033855,-0.03736663165484325,-0.004702779571068481,0.1011543807048331,-0.016688279410052888,-0.1456896106353406
290,2.9,0.008206140414098876,-0.04397938908325743,-0.006937631923536458,0.09214174390435652,-0.012136861991805036,-0.1346004714686012
291,2.91,0.007669350326278234,-0.04910382758523757,-0.009369576789150333,0.08288860338302055,-0.008827030315767625,-0.12346551776777695
292,2.92,0.006683993402024078,-0.05264960879874933,-0.011740181349738955,0.07336436538947994,-0.006916722751190144,-0.11227892160447324
293,2.93,0.006053635069199342,-0.05269238870414915,-0.014902633443530164,0.06449402816386385,-0.0050698509730544745,-0.1012874593805537
294,2.94,0.005217332903518203,-0.05144501087171479,-0.017529932338686344,0.0559276058549937,-0.003252462386713131,-0.09038668999238422
295,2.95,0.00386749092899125,-0.04955969007857756,-0.019386328180217932,0.04653575796462064,-0.00361779032580788,-0.07637151563132707
296,2.96,0.002298387839986754,-0.04687959315015911,-0.020380936746991624,0.03630885369738618,-0.006191302011918943,-0.059205598440124664
297,2.97,0.0009022252514269019,-0.043344393921362,-0.020380344389422853,0.02757714608487966,-0.009466143434345785,-0.04188970140236172
298,2.98,-0.0003416232398039496,-0.038873789997012756,-0.019565310255341403,0.020359896919754573,-0.013451349436712437,-0.024421892410514123
299,2.99,-0.002071408405842348,-0.03251302891516125,-0.018004566284260063,0.010162944796126516,-0.017309227005050002,-0.0076926961216879685
300,3.0,-0.0035095363362371355,-0.025715477177117144,-0.015891227984734746,-0.00144914649068437,-0.021106632957226267,0.008685713603166351
301,3.01,-0.004702400249116692,-0.01790261063850753,-0.013160967504804395,-0.013168888279845132,-0.023904401766403342,0.02344424135391129
302,3.02,-0.005388244469474382,-0.010172936358471878,-0.010380397680312825,-0.024948842504984213,-0.026143040927687374,0.03729671629924061
303,3.03,-0.005885334461385094,-0.0019673533463265315,-0.0076003448796043704,-0.040014051884297915,-0.02760318410522508,0.05361263586329383
304,3.04,-0.006121128972551386,0.006291121052632603,-0.00505844897261264,-0.058397534057526665,-0.0282770072187778,0.07241675828344504
305,3.05,-0.005313262705820719,0.014039246036648953,-0.002869620626444933,-0.0697001833565945,-0.030222368857356782,0.08644532123075196
306,3.06,-0.004469974064393773,0.02125324813142189,-0.0010929931909258173,-0.07746629930711035,-0.029839855412038437,0.09639069079055797
307,3.07,-0.003687197116517742,0.027420038328173774,8.75972784894841e-05,-0.08352576835158011,-0.028311699224363933,0.1043528481490042
308,3.08,-0.003213773883800264,0.03378387006924097,0.0008178198399486775,-0.09182606362530593,-0.026840735983699904,0.10710331946008836
309,3.09,-0.0028462894184425303,0.039079228645564235,0.0011771085061783805,-0.10115299582121352,-0.025395975752587775,0.10746605126099296
310,3.1,-0.0023713966374218974,0.04336148285687946,0.0011409918681877015,-0.10839098338389112,-0.02348206847465447,0.10508739033975828
311,3.11,-0.0020287807781834703,0.04663013545966919,0.001082738874962459,-0.11465808749538385,-0.021350114678548658,0.10143460621545516
312,3.12,-0.0017556189297249353,0.049845654301359565,0.0008175687995670095,-0.1208852568394831,-0.019150372161868517,0.0961706594410815
313,3.13,-0.0016151935391586333,0.052659984801850135,0.000639569531096146,-0.12707054417696742,-0.01687953551271142,0.08921698892040354
314,3.14,-0.0022226857589522013,0.05490962648477845,0.000618753156519393,-0.1319207352062172,-0.017349426610708464,0.07980435388015611
315,3.15,-0.003159845160376701,0.05641445047667411,0.0008357798462341943,-0.13521620369470894,-0.02101090110257765,0.06752824933443596
316,3.16,-0.003055182472959157,0.0539793137399074,0.0015674033653962287,-0.13412503514413712,-0.022458671459552108,0.0551776791018763
317,3.17,-0.002721374881537757,0.05045022944063183,0.0029051872527474038,-0.1307528686743319,-0.022755342584808238,0.04278838761765559
318,3.18,-0.0028722121472917446,0.04804764799662396,0.004608820979657069,-0.126365942341382,-0.02396556415152769,0.029886362847782445
319,3.19,-0.004668652308070203,0.04967617320632473,0.005516451613480632,-0.11558135904802205,-0.03093535756650861,0.013751758831403657
320,3.2,-0.004201508242107978,0.04365675786417238,0.008035697299208779,-0.10457006788501952,-0.03413346521033657,-0.0026714704750979462
321,3.21,-0.0029987035006266926,0.036129540857868,0.010457576117750044,-0.09345442753902727,-0.035595539917442236,-0.019227548338034577
322,3.22,-0.0022542058472531813,0.029930110589403612,0.012178388395443922,-0.08198508302192196,-0.03650905513064162,-0.0388176707545556
323,3.23,-0.0016878875760853811,0.02442833942514329,0.013130577519917214,-0.07015762103955803,-0.03686716627585094,-0.061479694589688626
324,3.24,-0.00031133448117620123,0.018234829065198625,0.013689143268400471,-0.05968187053735705,-0.036808437338588434,-0.078227243880851
325,3.25,0.0011380184313556805,0.012190836892441145,0.013375299682850556,-0.049953991469194665,-0.03651908019788315,-0.09170244798319337
326,3.26,0.002352254628240641,0.0054423268787109225,0.012417945912984715,-0.0387789872203282,-0.03656895426646936,-0.10537393516916692
327,3.27,0.003230080708875518,-0.0008109633311672512,0.01070792485327663,-0.02685116108511796,-0.03679530282550792,-0.11914753252725754
328,3.28,0.003812790277953471,-0.006988599146282713,0.008502333576697153,-0.013497175735921234,-0.035142711852137104,-0.13092800054368126
329,3.29,0.004131230909679193,-0.012672356267920428,0.005994424215332489,0.0008239365445927191,-0.03221594825744287,-0.14135685995636668
330,3.3,0.004510577325886218,-0.019074693941863723,0.003592975510040307,0.01465359081157639,-0.0309132780532316,-0.14950799900935352
331,3.31,0.004642014291753635,-0.024578601476632357,0.001204648343717155,0.028249196724316087,-0.030384054155146417,-0.15657441324976468
332,3.32,0.004795062903156868,-0.03023147966957082,-0.0016269305186083537,0.042765412083721824,-0.028486153163599787,-0.15675582942485256
333,3.33,0.004749695771153181,-0.03512649864486474,-0.004155671750122146,0.05796598565103968,-0.02557081159908948,-0.15181910896281725
334,3.34,0.0044843066020434546,-0.03890610354216836,-0.006253112425999992,0.06706758048522242,-0.022109707758717158,-0.14761141991553134
335,3.35,0.003970777144841193,-0.041577459179452714,-0.007486137301788875,0.07249414967251604,-0.01831974716237669,-0.143843019028415
336,3.36,0.0032873434579732603,-0.044364154656747104,-0.00827405267422475,0.07656881679050175,-0.01793457659168155,-0.13838182816458527
337,3.37,0.0025703107056524836,-0.04683760937502457,-0.008425109254510104,0.07936778234454382,-0.020762283683670186,-0.13132326211378895
338,3.38,0.002026204378188953,-0.047312198879712705,-0.0076504389130086295,0.08001420767104607,-0.021355914891143243,-0.11947535266901455
339,3.39,0.0015305406907912278,-0.046978748274882895,-0.006116511512339218,0.07954431942472392,-0.020790947898825768,-0.10514367592121282
340,3.4,0.0003806809901158556,-0.046988902030461036,-0.004094978744896753,0.07649661471937215,-0.02463511896110572,-0.09235492879347793
341,3.41,-0.0007593634424805777,-0.04700580874380424,-0.0019668647690618537,0.07103965651942333,-0.03260011531681963,-0.08100821938958576
342,3.42,-0.0007904451059502363,-0.04641605403505323,0.0010148292405600802,0.07007178703811316,-0.03574880357834428,-0.06973697907900413
343,3.43,-0.0002590131004074161,-0.04525380632458807,0.003445183397905524,0.07164220629376651,-0.0361741817527976,-0.05850841164961185
344,3.44,0.00045182243677219106,-0.04349685201249896,0.004535806454305591,0.07321262554941985,-0.03659955992725091,-0.04727984422021958
345,3.45,0.0012074416252634197,-0.04117181093118484,0.004649712436526151,0.0747830448050732,-0.03702493810170423,-0.036051276790827314
346,3.46,0.0021062301947296527,-0.037718061357543485,0.0059419240377573904,0.07102684739911053,-0.033617851923897886,-0.02432395593071286
347,3.47,0.002819443028455941,-0.03380550310360238,0.006261959539980912,0.0645254123410557,-0.028235585982182624,-0.012339586969691278
348,3.48,0.0034438661454082925,-0.029649030431118183,0.005384946202391968,0.056413894474726965,-0.022312508975549143,-0.0037216457044239796
349,3.49,0.0038276901170829526,-0.025089842816407786,0.003662065278317702,0.04665779435042208,-0.01583703287632789,0.0014577349894573405
350,3.5,0.004220149609079982,-0.018849551975725742,0.0006684928303161228,0.03249281634749003,-0.008971731689726559,0.008930031602902127
351,3.51,0.00406571623180401,-0.01241031150542959,-0.0027290620244369993,0.01588956933915478,-0.0018908431236935727,0.017670393690731992
352,3.52,0.0034763551161322405,-0.004987273976204493,-0.006752893930047801,-2.1763262921283e-06,0.0031051522647199963,0.027630378719557848
353,3.53,0.00234348259319612,0.0018171877577611434,-0.009980682396508636,-0.015532754341881496,0.007042827838714056,0.0382094607546152
354,3.54,0.0008065754454600412,0.008064588924286898,-0.01295910812741591,-0.023908430924170682,0.008360754651219446,0.04549378344901677
355,3.55,-0.0009179126974776033,0.01358175592394541,-0.014338768841478987,-0.02865868434536472,0.00835124209580463,0.05110863565033028
356,3.56,-0.0022780974097418596,0.0187834416846579,-0.014800457044309333,-0.03336602812331052,0.008595851501410809,0.06340790729728986
357,3.57,-0.003525009173676311,0.023757489454209153,-0.013729330502592774,-0.038045694863721134,0.009004371453021815,0.08001867896832877
358,3.58,-0.005710350735589969,0.029144043490670426,-0.011418494916648909,-0.0431786241469149,0.006608710395367253,0.08775295652922416
359,3.59,-0.007625623583123445,0.03438442112847889,-0.00802151394216962,-0.04860293117446722,0.00241039445201265,0.0897810206100815
360,3.6,-0.008687694204370542,0.040131633953318244,-0.0039048181009294046,-0.05694762191649914,-0.0012207209777211044,0.08878234411615381
361,3.61,-0.008876242907059038,0.04515136857305957,0.00043998906630134636,-0.0668731368886871,-0.004544806782942464,0.08614527167607244
362,3.62,-0.008724041179384944,0.04828279720352354,0.005689833687917544,-0.07143843247774377,-0.008749349231572029,0.08148427271326579
363,3.63,-0.007977575431069556,0.050560661635738566,0.010075303666622607,-0.07302638424705217,-0.013442942959344657,0.07569908000140765
364,3.64,-0.006566820769344391,0.052543676069758564,0.012619767966043312,-0.07461433601636057,-0.01813653668711728,0.06991388728954953
365,3.65,-0.004854133768614682,0.05412878132759172,0.013652746466560093,-0.07620228778566895,-0.022830130414889904,0.06412869457769138
366,3.66,-0.005008466042146409,0.05950870955164912,0.014183780243883327,-0.07622100925664357,-0.02714916269888373,0.04758480616717423
367,3.67,-0.0053754477722396474,0.06438482548284527,0.013828767142465196,-0.07491209874363004,-0.031151300927710807,0.02193862822611354
368,3.68,-0.0037689577826598053,0.06341430489385118,0.012005224668630557,-0.07360318823061651,-0.03515343915653788,-0.0037075497149471406
369,3.69,0.0005084085583736231,0.05569546736039084,0.010582113410378747,-0.0715985932566161,-0.031887094280281726,-0.018872471713934483
370,3.7,0.004500322726842312,0.046630054743490426,0.008364009536610699,-0.0692348162371782,-0.02486802992369071,-0.02862591888611975
371,3.71,0.006687956777218259,0.0390505481890938,0.005037157430128822,-0.0630507642409891,-0.02055803909559472,-0.03868425284771227
372,3.72,0.007481717124413164,0.03250804179839984,0.0012786137787854646,-0.05302037077212073,-0.018975606343448862,-0.04904955390191089
373,3.73,0.007863130040464891,0.025387647371414468,-0.0030916434320067843,-0.040695404006145165,-0.017173338202515025,-0.05317740701289171
374,3.74,0.007355541945394597,0.018958597979268035,-0.006944800717927295,-0.02712673251552319,-0.015251914873980603,-0.05392443830114153
375,3.75,0.005664852372510703,0.012815054849344663,-0.010505784176299299,-0.013401701586390471,-0.014795679954762485,-0.05970261935815135
376,3.76,0.003469560255066343,0.007510943896189061,-0.01274376943446619,0.00040234464231783673,-0.015079869164714137,-0.06802326161849208
377,3.77,0.0012825991343556817,0.0021988787026509544,-0.014052866316965909,0.009914582756919043,-0.015554530796034475,-0.07510443690811337
378,3.78,-0.0007677592499480564,-0.002589219310871733,-0.013880841896150986,0.0173358090657774,-0.016121992494636764,-0.08158173150230384
379,3.79,-0.0028755163292580863,-0.007924520180119306,-0.01280800427576092,0.028007753686357575,-0.0183159131120781,-0.08632943626641329
380,3.8,-0.004522026670708321,-0.012846052345491285,-0.010622555460437704,0.040169018361681116,-0.0212549976144702,-0.09028472760880876
381,3.81,-0.00565890699503111,-0.018277370334285937,-0.007576114623929442,0.050648452462637265,-0.02433441148710043,-0.09320924634839332
382,3.82,-0.006159354159878944,-0.023211371568240394,-0.0041355148838815164,0.060359140751005576,-0.027477968334295284,-0.0956626105411299
383,3.83,-0.005755009199729519,-0.02800817524158168,-1.8188991518756567e-05,0.06590453368054859,-0.027139027897905083,-0.09723398425919808
384,3.84,-0.00496875632216345,-0.03235517649860386,0.0035902118727022866,0.06945900654056145,-0.0251355299363724,-0.09838378582310166
385,3.85,-0.004298023298583717,-0.03712181070643292,0.006624797815270344,0.07510771073960981,-0.024775623492431776,-0.09994955210710177
386,3.86,-0.0035717709525948703,-0.04188180415190351,0.00884845068023277,0.08286409238580948,-0.0260698613206103,-0.10193395383171272
387,3.87,-0.001802078592321431,-0.045805062040460934,0.010162534101037275,0.08705367940098872,-0.023274825064769862,-0.09998953827525048
388,3.88,0.00017422959704749925,-0.04892880279594936,0.0104958881253867,0.08842482182230403,-0.017248486301435745,-0.094940611533923
389,3.89,0.0012602255209397655,-0.0510342830858445,0.010073201817546049,0.08813190012542475,-0.015186492087959247,-0.08901872812783787
390,3.9,0.0019303885825515264,-0.0524175563332044,0.008955689669106679,0.08653096875107194,-0.016240604387060598,-0.0824106717834426
391,3.91,0.0032388891486869894,-0.053998988263896874,0.007012474293890069,0.08574249846283001,-0.013839359323835164,-0.07464148238652261
392,3.92,0.004686787772887247,-0.05519222282550923,0.004740144926468339,0.08578356604989774,-0.007910130146932497,-0.0656867545535972
393,3.93,0.004810265259971178,-0.053995095445667725,0.0021223811152349167,0.08238915030773311,-0.006391798451109374,-0.0569462251143892
394,3.94,0.004604529632085616,-0.051805709720224455,-0.00011042856771187716,0.07742368433427567,-0.006890574930108113,-0.04830364883162033
395,3.95,0.005141818538393995,-0.04909771700138009,-0.0019441724699529655,0.07023450611608124,-0.006344977190522812,-0.03629229563903333
396,3.96,0.005690092927694174,-0.045914816628991245,-0.0031257325990242863,0.06166379979771945,-0.005150539955863898,-0.022188018789114423
397,3.97,0.005132134864332478,-0.04144989664010837,-0.003818066360348954,0.05405682490193224,-0.006968181482860122,-0.012810598461908438
398,3.98,0.004460361534069627,-0.03660942467845027,-0.0038738745057228727,0.0469545498232087,-0.010363228876656392,-0.0059086018538193575
399,3.99,0.004544877595318867,-0.03152355292366318,-0.0034771199405579213,0.037569438879676564,-0.01119524922525512,0.006665382672383014
400,4.0,0.004958322918519039,-0.026062528104460872,-0.0027656854055080555,0.025831964075453344,-0.009386180791239115,0.025084106017757967
401,4.01,0.004637182400699814,-0.019191561053245897,-0.0014619281477586642,0.018842985128571164,-0.0098059804957379,0.035453837697974624
402,4.02,0.004204866074230101,-0.012321107790622253,-9.856272192358857e-05,0.0142012901470333,-0.01132755781562923,0.041844779116932525
403,4.03,0.0038679758689967023,-0.005831716098169522,0.00141499257973889,0.0039750612495896105,-0.011280836854549805,0.05336002452511482
404,4.04,0.0035850352677503534,0.0006064805198015694,0.0027343579570292317,-0.011876055482060315,-0.009654485067715407,0.07003660221308998
405,4.05,0.003411722008330893,0.008368481113904654,0.003053182797367997,-0.018868435907488927,-0.008694916996423262,0.07840621983408701
406,4.06,0.0032325855824040916,0.015913001818823474,0.0028657737009815335,-0.020853945648653158,-0.00811220852707556,0.08208082527761366
407,4.07,0.002995880413956542,0.022860986399994555,0.002738594269907736,-0.025478823588485217,-0.008397336093197883,0.08597317140186783
408,4.08,0.002635963662125279,0.029206718031204913,0.0024833517637263,-0.032196928270778774,-0.009370725948164377,0.09003820302564823
409,4.09,0.002463210991591177,0.035496815871545184,0.0019607216173960123,-0.040008459826048136,-0.006345871266867576,0.09362845434074923
410,4.1,0.0020426179781756334,0.04103483113911202,0.0012254967281376313,-0.04841395165799571,-0.0011491306646376348,0.09696080030298744
411,4.11,0.0011156049128370274,0.047032552125198454,0.00026659919828301,-0.05466123450080622,0.0013540992014348212,0.09912251224028558
412,4.12,-7.855421860235214e-05,0.051859286988515226,-0.0007045074960065226,-0.05974026364912699,0.002399312775061977,0.10065055175224627
413,4.13,-0.0012482347213465914,0.05407801410396121,-0.0017856613314874033,-0.06338402910540536,0.003483536593271834,0.10274876790502316
414,4.14,-0.0021982502819873724,0.05387951313454664,-0.003156820426544972,-0.06316297076464783,0.004672805722965095,0.10638233415559617
415,4.15,-0.003785543104039971,0.055642689378773265,-0.003974762797165254,-0.062555222600336,0.004933949176011743,0.1041106105663046
416,4.16,-0.005307646077839759,0.05720334902988598,-0.004217184739653558,-0.061770640762705414,0.004770659756234568,0.09913839156496186
417,4.17,-0.0060383623305999105,0.05884276317956759,-0.004595247102398357,-0.058577197718232964,0.006263037031324577,0.09006972930127004
418,4.18,-0.006528527453999666,0.059123368390622946,-0.004558136085848658,-0.054022289997300035,0.00869118084815279,0.07868579757125446
419,4.19,-0.00759554646249131,0.05531273631992958,-0.0034110270606807222,-0.05266475161759747,0.008828122648714161,0.06677119824787177
420,4.2,-0.00872343893819278,0.04952497967356948,-0.0018512587910597038,-0.05456526352361861,0.006630379091694517,0.054315860110896584
421,4.21,-0.008843577479563781,0.04507337780438643,-0.0007521944913351055,-0.0541054730697906,0.0068522167160958965,0.04418932350455436
422,4.22,-0.00836974746420403,0.04118201927799762,-5.4598403506561166e-05,-0.051273074689368696,0.009506250142074091,0.03640372976427655
423,4.23,-0.007826175412154938,0.03730856426470584,0.0002920712302347131,-0.0484406763089468,0.012160283568052285,0.028618136023998736
424,4.24,-0.0072124582337123174,0.03304263736607624,0.00037000518017742405,-0.045608277928524885,0.014814316994030475,0.020832542283720928
425,4.25,-0.007123091062123914,0.03353875693597776,-2.4687051713670038e-05,-0.03087789535781499,0.008346905524305705,-0.011817003858869982
426,4.26,-0.00597937125361799,0.026664158438945353,0.00017303456265496176,-0.017280160956000018,0.007999405755727485,-0.03623289191559901
427,4.27,-0.004306840249389118,0.015228329829986266,0.0005817526183321082,-0.006398560009134354,0.015104745275935463,-0.0489731124492839
428,4.28,-0.003607185992431935,0.004167389122600965,0.0005192216622979817,0.004865603527034329,0.01546839572402944,-0.062463876035901436
429,4.29,-0.003134054789025806,-0.005550352084406282,8.022556241661432e-05,0.016338125989659984,0.012160251969424314,-0.0763634154650646
430,4.3,-0.0015603846128695096,-0.014234252689859825,-0.000768562268856428,0.02549433861596582,0.013927499645953237,-0.08574954665725705
431,4.31,0.0003315773374835793,-0.021943740300182285,-0.0017003328144376377,0.032316570300996966,0.020808858864915764,-0.09058783686543903
432,4.32,0.0006802626732324156,-0.028829334716126698,-0.002715659100819107,0.03837102841598314,0.021494443546909058,-0.0901257929430238
433,4.33,0.00026755245932303393,-0.03497185703997492,-0.0035583580504834136,0.0435690299972593,0.015268600445225884,-0.08375119097731701
434,4.34,0.00021312912216412284,-0.039347449272629356,-0.0036322245571211416,0.048767031578535465,0.009042757343542705,-0.07737658901161022
435,4.35,0.0006954169754085034,-0.04352611471344021,-0.0035631832682286803,0.05209756328328263,0.0057848084655767774,-0.07016207758506524
436,4.36,0.001331334374320888,-0.04682020321580753,-0.003024635759313417,0.05457726810105226,0.0038790442921574258,-0.06256489998495061
437,4.37,0.001717652627059833,-0.0494753207886945,-0.002122071702227,0.0569140337021405,0.003165919974647391,-0.05347699484545719
438,4.38,0.0021799978691889018,-0.05132838567695763,-0.0009218189712414879,0.059183471946386436,0.0030145539417242373,-0.043686925895859215
439,4.39,0.0027155225991943527,-0.052878466108089044,0.0006542997641715417,0.06187482240563725,0.0015653202047575848,-0.03646861659938573
440,4.4,0.0033704022554178845,-0.053809533500277354,0.00220436903796599,0.0648659715889952,-0.0008061411139053907,-0.03107772598219368
441,4.41,0.003886500645741469,-0.05187674589800931,0.004036250040768219,0.06576216477577095,-0.0016675326678958708,-0.02790736516038593
442,4.42,0.004510602455541087,-0.04961844091061339,0.00539553000836189,0.06545469012574485,-0.001661305804111208,-0.02601282125297864
443,4.43,0.005363507643266796,-0.048488754025024366,0.005861960839055021,0.06514721547571878,-0.0016550789403265453,-0.024118277345571343
444,4.44,0.006249002033955367,-0.047749092055634,0.005729811696450443,0.0648397408256927,-0.0016488520765418823,-0.022223733438164053
445,4.45,0.007028862170243075,-0.046836784553408534,0.005224044423699022,0.06453226617566662,-0.0016426252127572198,-0.02032918953075676
446,4.46,0.008762786845896566,-0.056118022287635724,0.00754678109303935,0.04918660895013023,0.0003383106216553755,-0.003696293864354747
447,4.47,0.009168475314323056,-0.05232921228641053,0.007058903156425593,0.03631294778122683,0.0030800979999867947,0.010263436019998145
448,4.48,0.008527284165935555,-0.03987582316533242,0.004555628402255061,0.028428436481245132,0.006254810112736422,0.01908243142712627
449,4.49,0.007529295500439195,-0.028623564544301115,0.0017404773268307472,0.02056269023565893,0.007909612806050736,0.027887921053789032
450,4.5,0.006437884039855806,-0.019332353302255488,-0.0006367109794485726,0.012706736315673442,0.008771268429019029,0.0366863628458428
451,4.51,0.006084908033785046,-0.011762725029289694,-0.0024939760502158143,0.0046315460438146406,0.012419088389455041,0.04684057962190759
452,4.52,0.005924175968578452,-0.005323252897106676,-0.0037293920466897924,-0.003671555238751539,0.01896331455590226,0.05840421616005768
453,4.53,0.004189857764068432,0.0005279983746724216,-0.004306263266675742,-0.009377138259694336,0.020433644980783625,0.0654426432087694
454,4.54,0.0021382526631661567,0.005762961242576029,-0.004153472329985738,-0.013650580433319492,0.019106484641543818,0.06998609747971757
455,4.55,0.0011514289831795238,0.010893898077501973,-0.003628175654073756,-0.019598364429229808,0.018526857291484074,0.07616852879281677
456,4.56,0.0007230602108452236,0.016043765052642392,-0.0028371766713588204,-0.027450989634674457,0.01879767255972621,0.08421556801919679
457,4.57,-0.0012454572955893457,0.021348786854384724,-0.0015851489557930222,-0.035425150833314815,0.016097497584582385,0.09206290209036908
458,4.58,-0.003394284642441187,0.026382451070977704,-0.00011855730263153012,-0.04348450506273583,0.011314748907619613,0.09977024892823456
459,4.59,-0.0039011034998218223,0.0314876904020991,0.0013222433857097717,-0.051100641611160416,0.012733100493556427,0.10766158067911252
460,4.6,-0.003977118988304202,0.03592333689119017,0.002625145280918796,-0.05849887161475144,0.017200203044069176,0.1156433680196816
461,4.61,-0.0050428111549038835,0.03974223452584602,0.004079891728251892,-0.06355515187519553,0.01675710638807339,0.12113280280009635
462,4.62,-0.005919744980472518,0.04285655615633332,0.005077434609585945,-0.0674709287291257,0.0139227974790939,0.12540848967946938
463,4.63,-0.005769446243372554,0.04631172796781645,0.005327859845781319,-0.0719500910157916,0.013906807504800228,0.12461516670858028
464,4.64,-0.005051719442630539,0.04964788834250753,0.004997521226850503,-0.07709408987263375,0.017216642774337897,0.11784003638659706
465,4.65,-0.005334074165086686,0.05119206017899934,0.0039507772592317775,-0.07612081187864905,0.01529129685870851,0.10693751602319236
466,4.66,-0.005551709950626414,0.05138984789935749,0.0027028698045451823,-0.0717880069387029,0.010490859184532695,0.09376828803827886
467,4.67,-0.00462510993046325,0.05016550985294405,0.001327827553792656,-0.06448757989381157,0.010781572517732072,0.08116165321885865
468,4.68,-0.0034969427042188645,0.04831605490002769,8.406860671371233e-05,-0.0556323395607762,0.013739670362262736,0.06884977537946985
469,4.69,-0.0032805853355142188,0.04596345502430626,-0.0004839893172666589,-0.05102420122793655,0.01321124802211604,0.05652302784947096
470,4.7,-0.0031538128244408587,0.04340876603671245,-0.0010169157189510087,-0.04856809001980057,0.010916189041759918,0.044188745775322336
471,4.71,-0.0019361381881939982,0.04077187904300956,-0.0015793362994340116,-0.04611685366080805,0.012787520704429631,0.03467718533180792
472,4.72,-0.0006788747888183109,0.03781964137228058,-0.002301416918343164,-0.04366897699514411,0.01753028375621175,0.027111014120217082
473,4.73,-0.00041001825432108487,0.0342844477400325,-0.002964854723351428,-0.04154088781186936,0.019264167152812824,0.02221655753978369
474,4.74,-0.0006162389109449348,0.03020129820116927,-0.0037664235192679486,-0.03960483490162984,0.019191181716789168,0.018926498093809762
475,4.75,-0.0002524506305348522,0.02504144022513182,-0.005086464790411192,-0.03360373340611108,0.020215780236487367,0.018740970066895127
476,4.76,-0.00015114626213442008,0.01954038065461304,-0.006311569420673048,-0.02572636423559789,0.02174698064630097,0.01998837250203679
477,4.77,-0.0007522684503795383,0.012822489823733001,-0.0072860113195715,-0.011243963152427684,0.021828345242266,0.022137885725432484
478,4.78,-0.0015555917627436467,0.006225847153789075,-0.007823040928215862,0.006831077644852565,0.02112110839123574,0.02477807924943324
479,4.79,-0.0020460022964657646,-0.0011600012453137996,-0.008185836182180363,0.02385202020049992,0.020999729029486467,0.030724527621727594
480,4.8,-0.0023935270511827988,-0.0077579877284969165,-0.008042178156082325,0.04030136969359618,0.021196035499370755,0.038463818690906634
481,4.81,-0.003219819442685378,-0.01361426887790638,-0.007069936771259776,0.05153140701475429,0.020428160863705684,0.042936400063421885
482,4.82,-0.003716789665816512,-0.018422414226871835,-0.005744473624718273,0.06035129857489021,0.01921505188913835,0.045900497890876336
483,4.83,-0.003565662858125841,-0.022263388778508045,-0.0043358774811693545,0.06917119013502615,0.018001942914571013,0.0488645957183308
484,4.84,-0.0024394794717953736,-0.03038898902187151,-0.003041890910962743,0.07441576668170999,0.015254036118662759,0.05264143978787645
485,4.85,-0.001249064158904144,-0.0363783477446953,-0.0017139518587211506,0.07838908780203016,0.011960409560604963,0.05670726764392137
486,4.86,-0.001645188141428955,-0.03516048169389954,6.901795781842201e-05,0.0795960534477498,0.008202524208192874,0.055119163823672636
487,4.87,-0.0019184015778754707,-0.03284656136454819,0.001728769029681589,0.07913255744762003,0.004164296536495477,0.05011693766801961
488,4.88,-0.0007279600004885646,-0.0346993973825541,0.0026639323299085436,0.08002503335701762,0.0016435613143191785,0.04605965962946376
489,4.89,0.001135144060738621,-0.03852669365694725,0.003222397197923002,0.0821214239144249,0.0004701485369413949,0.04284136422158714
490,4.9,0.0026907212440297756,-0.042519174766618845,0.003951619677223001,0.08486933385483447,-0.0009778853029086202,0.03929674555040204
491,4.91,0.003951163981588589,-0.046186652867374986,0.0047023343983282175,0.08834869911613116,-0.0027342338953410235,0.03538576650145453
492,4.92,0.005667925749978739,-0.04887628092241409,0.005300242179589012,0.09036088557935347,-0.0010694547151319015,0.03261585260921875
493,4.93,0.0073038168907161635,-0.05042397597669269,0.005716426195284395,0.0908923328216138,0.00404807206442992,0.03099755018617384
494,4.94,0.00769608121126502,-0.04961327762185059,0.006086282942490465,0.08594190067500852,0.004496967454062408,0.034796974539826886
495,4.95,0.007556743305284308,-0.04756188376518539,0.006161167275901133,0.07833878880038861,0.0026867135689420305,0.04121803519245782
496,4.96,0.007503164742214373,-0.04446066671483202,0.005926437162351284,0.06952971633746532,0.0018976281948229813,0.04522349558836457
497,4.97,0.007194662131313282,-0.040894276411447085,0.005465511506501104,0.060141582869737996,0.001598872993837192,0.04806906740629421
498,4.98,0.0064066484754755695,-0.036037032520071996,0.004849143946397403,0.048693431686652085,0.0014571048742428655,0.05271561113211142
499,4.99,0.005381476787091763,-0.031178109133455947,0.0041858529337729655,0.03628828340439842,0.0013882663126704663,0.05819881023165727
500,5.0,0.004241244611395517,-0.024737014838288354,0.003270801827229033,0.030516305708893163,0.0013261827506404029,0.062308749207563865
501,5.01,0.0030649915811349214,-0.01892078906038241,0.0024900009642762123,0.02804105351458621,0.0012674564638319795,0.06573616967890722
502,5.02,0.0019095862524983317,-0.014602468648572158,0.002012358783445903,0.02556580132027926,0.0012087301770235565,0.06916359015025059
503,5.03,0.0008024630653815266,-0.010810442708834406,0.001731169033638901,0.02309054912597231,0.001150003890215133,0.07259101062159394
504,5.04,-0.0001810600296607253,-0.007584343000785565,0.0018456475316442193,0.01851956607867643,0.0016361734075906141,0.07714800712836943
505,5.05,-0.0009081917081909363,-0.00604546996598233,0.0029174685658015682,0.005539397328033978,0.004308754409924569,0.08623746286503672
506,5.06,-0.0014847590638558113,0.0010211406179074824,0.003183944734879947,-0.008616594060183867,0.0079673145175201,0.0906275567441704
507,5.07,-0.0019918532324696035,0.010757864572051905,0.002865969911269102,-0.024002784168664238,0.012657450472302541,0.09010096611796964
508,5.08,-0.002913188385615977,0.01893852405379163,0.001087844464373909,-0.033319846484765,0.01424344152103904,0.09123008409726996
509,5.09,-0.0038149861270141256,0.02570783062297289,-0.0007367476578797035,-0.03977953594259144,0.014367987085990713,0.09313871718852916
510,5.1,-0.0037866729177922216,0.03244779615640093,-0.0017963571371218195,-0.045762493802530266,0.018632958384786458,0.09666567831848284
511,5.11,-0.0036368554301644527,0.03817820348918513,-0.002410471018177464,-0.051446883865515915,0.0254909983941097,0.10120616705894424
512,5.12,-0.0037520525916738302,0.043064672308898,-0.0037622397669244564,-0.05488198869067793,0.02850265892890693,0.09972884288850063
513,5.13,-0.004088813746618621,0.04649843263722388,-0.004620072013189754,-0.05728897056799605,0.02975618272880862,0.09550084421689006
514,5.14,-0.00474994640188269,0.047949207597212024,-0.0057404864163184055,-0.052750190548982036,0.029813160100014613,0.09227831008518056
515,5.15,-0.005281914684991258,0.0485268460425322,-0.005987195630532969,-0.044618920421548,0.029251259186374064,0.08957582277740107
516,5.16,-0.006282023689652666,0.04901329055553572,-0.005681813113750486,-0.04113980804248591,0.02257590055614052,0.0811931503508075
517,5.17,-0.006686994197982964,0.049146181646496784,-0.004525346607323838,-0.03998747243106138,0.012842895957241956,0.06996953325182778
518,5.18,-0.006798598129203659,0.0487338666192965,-0.002869011003344504,-0.03797506144597446,0.004343779611776085,0.05897190879969558
519,5.19,-0.006027075544869741,0.04777550983600337,-0.000926226788130887,-0.0355538037724927,-0.003568793807670292,0.04808171254292231
520,5.2,-0.004494654161104036,0.04610836019337277,0.001602057531441522,-0.03327957021104607,-0.007976975751799054,0.03830733201727348
521,5.21,-0.00243384036544771,0.043848206439833656,0.003626810879439315,-0.03107401692728722,-0.010748129753232498,0.029054189356633488
522,5.22,-9.026817013667397e-05,0.04110339245210869,0.00765570793329094,-0.028414661241398406,-0.00949474028697012,0.01936074952410844
523,5.23,0.0021742096546692657,0.03769537978595662,0.010070108752715967,-0.0255052109479762,-0.00602338852185195,0.0094246579385653
524,5.24,0.004124178603180884,0.03353482301526849,0.009022780219485355,-0.022595760654554004,-0.002552036756733782,-0.000511433646977838
525,5.25,0.005634457327683488,0.02866396827286717,0.005927891249422742,-0.019686310361131804,0.0009193150083843855,-0.010447525232520977
526,5.26,0.007374938410035857,0.021787170741201282,0.0018594389612304751,-0.015621964495241404,0.003943370099967488,-0.01807936222810818
527,5.27,0.008830432450400539,0.013953294643315281,-0.0024180984134049236,-0.010284222417823828,0.006474232644027913,-0.023170511446208224
528,5.28,0.009239302575230805,0.007531524687190504,-0.006112642956287059,-0.005386293710707337,0.010574601359271229,-0.024596990226736427
529,5.29,0.00855051139600256,0.001857845232007986,-0.009225068922873331,-0.0007115202348892282,0.015471315834569047,-0.024164065827755016
530,5.3,0.006902245203847998,-0.0035041184316371692,-0.011713718365866502,0.003963253240928881,0.020368030309866867,-0.0237311414287736
531,5.31,0.005823410339853313,-0.010377749656931346,-0.013303037656374849,0.011535112029238893,0.02296699050544939,-0.02145274625125777
532,5.32,0.0042303091382030105,-0.016791315004514435,-0.014019471315929212,0.020454077290131573,0.02449752525658181,-0.018316231494036654
533,5.33,0.0014868077704904585,-0.02218210416535448,-0.016007675690077765,0.0216195477717325,0.02190469323452689,-0.01327707881560222
534,5.34,-0.0014556588695018588,-0.026827584455705662,-0.01694962521318505,0.017546732236224796,0.016526101354983492,-0.006952497836508914
535,5.35,-0.004680051560705136,-0.030112954154549516,-0.01657433729175487,0.01238970495266522,0.011839644804365168,-0.0018214260927063785
536,5.36,-0.007179926946547345,-0.033137759009900555,-0.014209974773265473,0.006542402104470331,0.007593843970525673,0.002549784615861939
537,5.37,-0.008489749224298659,-0.036653060119282474,-0.009963188338436546,0.0031442327214701504,0.00304719982516035,0.005285409221695829
538,5.38,-0.008712200244195143,-0.04027796254369278,-0.004478721176109365,0.0010648275120363503,-0.0016614368725650338,0.007140333618365026
539,5.39,-0.008645215191258427,-0.04406774605714295,0.0023288118716951675,0.005487478996198184,-0.005767047550990881,0.012818489612109536
540,5.4,-0.007781453726989937,-0.04726937177459395,0.008690332834963019,0.012965705263459424,-0.009589272343234069,0.020293334039758176
541,5.41,-0.006554739230383477,-0.049450992410505705,0.015400109466469903,0.01740182157404776,-0.0119980683595502,0.02183147321646521
542,5.42,-0.0047514155096950875,-0.050630245727054685,0.020142868349833507,0.02034297109757611,-0.013712271114616564,0.020452171110271037
543,5.43,-0.0023539404141671464,-0.05140369227471585,0.02349357176281705,0.022017692150953016,-0.013404904569134795,0.017663968224888284
544,5.44,0.0001628962803370028,-0.051285757208371065,0.02504697037127482,0.022414279749322745,-0.011057284337365452,0.01345384277292642
545,5.45,0.002763988949633619,-0.048384597682865814,0.02396138089981438,0.015853666844317986,-0.00732871092189615,0.012418806336713734
546,5.46,0.004835729943858707,-0.04441339386614694,0.02058660853640604,0.0060295984953181074,-0.002952365578183281,0.012873127800792965
547,5.47,0.006305297769060227,-0.03916713170403662,0.01584092757428507,-0.004167719926826785,0.0017724872853756058,0.008782109258427071
548,5.48,0.007141428877705079,-0.0333071821265397,0.01053373062978812,-0.014744308584586772,0.006851468757810283,7.243877402822105e-05
549,5.49,0.007823436659903212,-0.028557048015465627,0.003729954537095001,-0.01746102542890681,0.010870483465367032,-0.002700956649378378
550,5.5,0.007705598007659657,-0.023984997082569386,-0.0022754539733760726,-0.0166000823441756,0.014407022031984002,-0.0027722757644637066
551,5.51,0.006825410626046071,-0.01897099859094705,-0.007556538150199342,-0.01510617375172931,0.017062865371730362,-0.002238198778254256
552,5.52,0.005386946345729835,-0.013522577045700528,-0.011125618275375043,-0.013191692871200695,0.01913353305474112,-0.0013018679244734394
553,5.53,0.003339323968373432,-0.00806926611317651,-0.013503273988482056,-0.008317038914513655,0.01714367521684204,-0.002020308491167513
554,5.54,0.0012386789815406044,-0.002177895856020365,-0.013878786246091351,-0.0019010782953013013,0.013039577813311084,-0.003600357534702526
555,5.55,-0.0007214448564865808,0.003918994501855989,-0.012588563308689344,-0.0026674995367850325,0.007963006861440199,-0.001030230234872111
556,5.56,-0.0023184850601590517,0.010388005866555132,-0.010007687872114692,-0.007787648555696811,0.002296953871112055,0.004055599846818426
557,5.57,-0.003332002380473317,0.01750323088956255,-0.0064335255621310195,-0.011503641940012596,-0.0018767374013027155,0.013848332771825485
558,5.58,-0.003945615654058005,0.024530121070010298,-0.0026332104227890386,-0.014559159824391226,-0.005348463501595021,0.02585506102042753
559,5.59,-0.004819787207486622,0.03170310821517689,0.0015918849961237278,-0.01966108002486713,-0.00791045631690642,0.03509562770487933
560,5.6,-0.005294551660786118,0.037983404088469085,0.00504985769979941,-0.02588882286056692,-0.009971961854524862,0.04281439817305936
561,5.61,-0.004791674322864222,0.04264829730689643,0.007950230610442695,-0.030367554828174395,-0.009965366616970048,0.051775001101483316
562,5.62,-0.003879151610550143,0.04603230300652569,0.009498435741507265,-0.03381113518680906,-0.0087347664952869,0.06147058223544484
563,5.63,-0.002946065783223857,0.04836221543239012,0.009290825858179936,-0.037254715545443726,-0.007504166373603752,0.07116616336940636
564,5.64,-0.003032832753147978,0.05115643090051368,0.009227899684592563,-0.036829916445237636,-0.00978616454973736,0.08498762326840849
565,5.65,-0.002381904671929378,0.05202703666751695,0.007072960900082295,-0.037293381126009176,-0.0106718912655317,0.09181652538563248
566,5.66,-0.0013385405285987998,0.05132149046992849,0.0038488150543678776,-0.03869382922835733,-0.01008934278562218,0.0913162830347622
567,5.67,-0.00013946115605975975,0.048490697412670154,0.00038105803462737224,-0.03777246915599618,-0.00922345069287705,0.09113570145520253
568,5.68,0.0010171668260465666,0.04470258938257359,-0.0027734020216574153,-0.03552342311387829,-0.008195533440827303,0.0911379123758044
569,5.69,0.0021169637822720743,0.041219729657494104,-0.005660710939116103,-0.03672223655909209,-0.005838321623031647,0.0904936120008886
570,5.7,0.0029661975325331927,0.03740696348125564,-0.007837421244055079,-0.04002529919222654,-0.002669833411648712,0.08945474193031873
571,5.71,0.0032856507082148654,0.033446086279436404,-0.009111891113707813,-0.04283929547073278,-0.0012173198571029653,0.08117719761469518
572,5.72,0.0032584588785321603,0.02909671024078448,-0.009647636089829149,-0.04516363816264609,-0.0014828413652261106,0.06565228742994947
573,5.73,0.003769483956194361,0.02332630788551075,-0.009493786738562264,-0.04692821236842375,-0.00026219395763082184,0.05927120813853605
574,5.74,0.004018138589806038,0.017058286502277035,-0.008877655091008293,-0.04841155673381114,0.0017051104292556988,0.057484024656513165
575,5.75,0.0034742245180709886,0.011753790372932551,-0.00795950178421317,-0.049489043842860604,0.003540239595966536,0.04994304426949328
576,5.76,0.0025895148956692833,0.006429518889046122,-0.006856612068363923,-0.050333343559628985,0.005299426804179329,0.03909619001909219
577,5.77,0.0018409892321440012,6.672727174333957e-05,-0.0056189394193394485,-0.04492037632801847,0.006641671301898838,0.02985608248693604
578,5.78,0.001061671708338773,-0.00625073896275234,-0.004362196478692611,-0.03665126656564485,0.007793601431036061,0.021349377840736698
579,5.79,6.7727144625782335e-06,-0.013299363458435902,-0.0030910286059014375,-0.026108566017700542,0.005965180109416923,0.015966737909503613
580,5.8,-0.0009575397758777754,-0.01928037671512431,-0.0019066583561775452,-0.01444806188544224,0.00267147859959776,0.012120034329781372
581,5.81,-0.0013068138367275163,-0.02421346306190992,-0.000832505587753819,-0.007942703679639198,0.0031357980628478306,0.008362573664552914
582,5.82,-0.00151582805924095,-0.02762531142693635,0.000113805684151698,-0.004196147853268605,0.005611241430322548,0.004652871795751433
583,5.83,-0.0018405736892230875,-0.029401124846895443,0.0009272371757887343,-0.00044959202689801367,0.008086684797797264,0.0009431699269499516
584,5.84,-0.002173078637317803,-0.030146229611368636,0.0016269547940801553,0.0032969637994725784,0.01056212816527198,-0.00276653194185153
585,5.85,-0.0022309227832529544,-0.030223822525050327,0.0024017244694262098,0.008465517425122434,0.008650657296882799,-0.02134197392292311
586,5.86,-0.002204207955987779,-0.030827383087496052,0.002760866395052952,0.01327448359172962,0.007104318031363388,-0.029911376409118007
587,5.87,-0.002132756348906142,-0.031517924635561474,0.0028910202559255835,0.017581255305440267,0.006318604818359921,-0.026610768943559217
588,5.88,-0.0021660777199852097,-0.031089190813659812,0.0031594566272672036,0.021888027019150918,0.005532891605356454,-0.023310161478000423
589,5.89,-0.002524897374737817,-0.030779815283530486,0.003255159249982106,0.026472266305274862,0.0036222390017318687,-0.02381868146221271
590,5.9,-0.002742933619221461,-0.029991716051843937,0.003400656670392857,0.031217930098095432,0.0010571215011277717,-0.026543267684997925
591,5.91,-0.0025492444599166915,-0.028373564979252433,0.0037207517008238733,0.035963593890916,-0.0015079959994763262,-0.029267853907783137
592,5.92,-0.002291794038725298,-0.026856229062198946,0.004010328391092426,0.04038287220694695,-0.003556181004599533,-0.02737930834115035
593,5.93,-0.001815246301587671,-0.02508614133452482,0.004275842343388352,0.04460906205930976,-0.005298550621261421,-0.02276165074821377
594,5.94,-0.0009491914289882506,-0.023368084021318743,0.004514664214448377,0.049997174255056516,-0.0065666006538280955,-0.02414378794691387
595,5.95,2.197720552990154e-05,-0.021315074898638903,0.004665080146692351,0.056016730897639935,-0.007576882627188219,-0.028786502003362486
596,5.96,0.000806229668967927,-0.01932221647928791,0.005027489716889434,0.05596520596755855,-0.008438342750743354,-0.027570028671538918
597,5.97,0.0014968919459427805,-0.01695966741821718,0.005155293287385863,0.05271168857216303,-0.009221311680258984,-0.02326331949861196
598,5.98,0.001976932797041703,-0.01375750624185941,0.004904337519901429,0.04889246987914258,-0.011301138485341795,-0.018798130674536912
599,5.99,0.0023868043990868375,-0.010424641485340877,0.004337157126051442,0.04476730179403225,-0.014082347592927041,-0.014247230975958043
600,6.0,0.002502438596171673,-0.006467715951489625,0.0037204002708008427,0.03946160232146656,-0.014857303992580432,-0.015053995681037644
601,6.01,0.002624333664542495,-0.0030552843163023187,0.0029204348716818773,0.03356890708041172,-0.014634691108951638,-0.01852475252334584
602,6.02,0.0030219000092326954,-0.0007916832079506008,0.0020516004962808946,0.029814404906559417,-0.014615601951676868,-0.015089044127925359
603,6.03,0.003435498635490281,0.0008236100994227771,0.0011478591628524026,0.02821096356159796,-0.014801261337564675,-0.004705307012904217
604,6.04,0.0035532775697218145,0.002277872135016611,0.00010747933260196383,0.02660752221663651,-0.014986920723452484,0.005678430102116928
605,6.05,0.0034129502580038822,0.003721446414104967,-0.0009260067504120814,0.025004080871675056,-0.015172580109340288,0.01606216721713807
606,6.06,0.003058788129821711,0.005251186155234796,-0.0018567203615851798,0.0234006395267136,-0.015358239495228094,0.02644590433215921
607,6.07,0.0025711118883703045,0.00695743173845456,-0.002556744324474538,0.0195317880585033,-0.014375514212380031,0.03619111254673694
608,6.08,0.0019894184619164094,0.008844547063286355,-0.003013133743016854,0.01212555438964624,-0.011568385000071455,0.04493927358480261
609,6.09,0.001025308175256101,0.011418605563679057,-0.003323483629804066,0.0028126742171115317,-0.010724863754559204,0.056870243097466674
610,6.1,6.822489473158871e-05,0.0138750441903601,-0.003529529813089319,-0.0074929610692601985,-0.010903756389568638,0.0704584413535956
611,6.11,-0.0003547332264832847,0.017158513547933053,-0.0040181106372954006,-0.012456753010347418,-0.010619311615155645,0.07383929974422225
612,6.12,-0.0007136074031419544,0.019703690950944295,-0.0042863007396367735,-0.01472712454027434,-0.010101246654764315,0.07207349699929481
613,6.13,-0.0015266091760121568,0.020822945219091848,-0.003962394164573864,-0.018260645460127633,-0.010180616711915252,0.0725008762387076
614,6.14,-0.0024551592337515894,0.021130572833284317,-0.0033196334262280314,-0.02305731576990729,-0.010857421786608458,0.07512143746246062
615,6.15,-0.0024340862820496963,0.021601305038540936,-0.003116093343280797,-0.02782551362855479,-0.011508717116286149,0.08086928343446198
616,6.16,-0.0023210892059378034,0.02173790220969658,-0.002800840927833279,-0.032580733288848134,-0.012148384696416076,0.08804259578392226
617,6.17,-0.0030375116261302797,0.022279245709781324,-0.0021711779184668345,-0.036914310092440485,-0.012287425604675956,0.08867345841306093
618,6.18,-0.004156717135247709,0.023057790080180874,-0.001398276440525669,-0.04069305254870194,-0.011767698391220776,0.08069519660707511
619,6.19,-0.0040374831649671195,0.02158596369028805,-0.0005420957917176949,-0.04502893278692125,-0.012663772797190484,0.07804280331253999
620,6.2,-0.0032775520313058073,0.019156542728679782,0.00026086038497583714,-0.04993525626313385,-0.01500946072120725,0.08084346988431314
621,6.21,-0.003124492692028969,0.01837094006037649,0.000758546152766908,-0.05356260324243593,-0.016750898945624922,0.07988918371418084
622,6.22,-0.0031786224636289246,0.018300207518852335,0.0010370340004572814,-0.05589034507165151,-0.01787834150754674,0.07511938104824141
623,6.23,-0.0026174594328936536,0.01839189456131059,0.0010378384396899465,-0.05966810085905664,-0.016987204770286653,0.06669891547469105
624,6.24,-0.0017550636622100384,0.018174208318196133,0.0009049741894225569,-0.06491455033358122,-0.014051484491665184,0.05458075751967966
625,6.25,-0.0012491649266804566,0.015722436301846276,0.0010900894647930578,-0.06382773889868436,-0.015747924004095644,0.04421003174961453
626,6.26,-0.0007120237719923315,0.012567729100544513,0.001287522798522918,-0.05985412590498724,-0.019555775993711083,0.03463581350190588
627,6.27,0.00069573759500265,0.009462460233719654,0.0013096437733394533,-0.05466203698688162,-0.017037346992070882,0.024857462799673533
628,6.28,0.0019318874763468528,0.0065533120202288095,0.0012161821899428988,-0.048836918257872994,-0.011232251114712249,0.014973059998669484
629,6.29,0.0014926459415502778,0.003949544547682388,0.0011235205791744777,-0.04120323325816968,-0.012395659681651187,-0.00010612894378436535
630,6.3,0.0006808956352782687,0.0015740120917212622,0.0009566557416078156,-0.03228072410152843,-0.01852497799216304,-0.018887236902263668
631,6.31,0.001525843319419791,-0.0018874473928145261,0.0007616528100609608,-0.02472745986552792,-0.019086207552367042,-0.03249211481743975
632,6.32,0.0024838321582014555,-0.004811975428393208,0.00045298965419332505,-0.017810876464293558,-0.01705834925826734,-0.04369011401045873
633,6.33,0.0023919602930246777,-0.00677771942617799,0.0001718601071935286,-0.013257500382193373,-0.017556351078996668,-0.05484101013783098
634,6.34,0.002022602566121961,-0.008049498669534517,-0.00019220769398168517,-0.009984468197632127,-0.019422819203073097,-0.06596638665794413
635,6.35,0.00251042469882758,-0.00973662739672116,-0.0007849029709136856,-0.0064529416399647715,-0.019566178360612408,-0.07327312923627817
636,6.36,0.0028570739210433587,-0.010982695154338157,-0.0013585305430077349,-0.002802324919753353,-0.01891568918621219,-0.07882060049524743
637,6.37,0.002661858923205891,-0.011546154749190287,-0.00178620387472133,0.0008482918004580653,-0.01826520001181197,-0.08436807175421672
638,6.38,0.001212844639372231,-0.012380403587266987,-0.0025871319746360597,0.008358785127458458,-0.0208961964688217,-0.08871577837963136
639,6.39,-5.01713537280912e-05,-0.01308462568654061,-0.003056751693988755,0.017627853968177842,-0.025022251153824608,-0.09251686734812807
640,6.4,0.0004022885859335056,-0.014258468830021142,-0.0027185312915021945,0.02461717725992469,-0.02552509550421896,-0.09472389329717304
641,6.41,0.0011563204829336165,-0.015313589282770195,-0.0020601558911533518,0.030232222140117494,-0.02384379270467537,-0.09596998463872354
642,6.42,0.0012822980715256355,-0.015842598351679033,-0.0014165782134614225,0.0358472670203103,-0.022162489905131786,-0.09721607598027404
643,6.43,0.0008782688053213091,-0.01664168234768893,-0.0008085249676039715,0.04190927353384204,-0.0207137021921236,-0.09827787847672106
644,6.44,-0.0015260784641371538,-0.02276033821021048,-0.0002398006505617005,0.05350774054708622,-0.02214505115342885,-0.09705691700564152
645,6.45,-0.0015481418355484905,-0.0228578458020236,0.0007358597598620955,0.05776593931949006,-0.021989558962593254,-0.095105962542944
646,6.46,-0.00041365237888590554,-0.019941288356410566,0.0017363025980842222,0.05467211601880245,-0.020244684640990482,-0.09242384616470277
647,6.47,0.0003332944013358423,-0.017398781822160238,0.0021263299496372,0.051486235823278034,-0.019319387545237144,-0.09022888098439764
648,6.48,0.0007663647827429868,-0.015374907217031353,0.0021252101792531815,0.04820411860801322,-0.01925088308628408,-0.08854318759232141
649,6.49,0.0009528677519806314,-0.01369759988484428,0.0018348563035247938,0.044714115767912524,-0.019164579976863168,-0.08478985354668978
650,6.5,0.0009485768748609339,-0.012457293213391795,0.0014238392670156397,0.04101522705137288,-0.01906039257791844,-0.07895893029584168
651,6.51,0.0007110259337307614,-0.011754670269910979,0.0009945660609792786,0.037316338334833235,-0.018956205178973715,-0.07312800704499357
652,6.52,0.0005679039282971919,-0.01130946026296127,0.0005913188739186806,0.03601798092795598,-0.01862381732230368,-0.06647367543539917
653,6.53,0.00034654358822984834,-0.011054957787035063,0.00030497561477769064,0.03607932295963436,-0.018162173066019825,-0.05935295212385824
654,6.54,-0.00020369221909467166,-0.010868015683125095,0.0002218308502553517,0.03316921444663798,-0.01761704073251304,-0.05411153696315492
655,6.55,-0.0007610149886546656,-0.010588439556941153,0.0002714734568247091,0.028597076757944064,-0.01702521079523289,-0.04992128012726909
656,6.56,-0.0007681875461094639,-0.009340698740631466,0.00031179195834571665,0.01969187440951805,-0.014890994498984485,-0.04645312525049407
657,6.57,-0.0007203779035177855,-0.007979329731245509,0.00044210446034808823,0.008581235649853722,-0.011971736828237822,-0.043352504689107715
658,6.58,-0.0009167695732091021,-0.005789597119664502,0.0006815144006037453,-0.002687759103252713,-0.009887843886200004,-0.03976137524237762
659,6.59,-0.001163135359491811,-0.003848875683984186,0.000989044282321332,-0.0140378233141449,-0.008231611205941463,-0.035919132538046385
660,6.6,-0.001056588143453027,-0.0017892043042921236,0.00119203136483654,-0.02317322480243885,-0.00665925348200071,-0.03232493831636925
661,6.61,-0.0009624316643645369,-0.00014579100012295475,0.0014239297398539355,-0.0312883157112594,-0.005125537536065549,-0.02884502176256988
662,6.62,-0.0008735813349940377,0.0017221939761428197,0.0017345376821502874,-0.03737699805193125,-0.003020441896562031,-0.02384753646654541
663,6.63,-0.0008803874604087713,0.003383637039958469,0.002026535134892409,-0.042524731268339,-0.0006500299577020512,-0.01814537838071339
664,6.64,-0.0014632109078444575,0.005269354180849164,0.002085683122773243,-0.04604751333030719,-0.0024855897375592297,-0.014928983073161343
665,6.65,-0.0019040010074898874,0.007132843661921438,0.002088255384354483,-0.04878541241585396,-0.0063527155693015895,-0.01291325947981038
666,6.66,-0.0016009904882545761,0.009666222491177148,0.0014005681642345513,-0.0523641373463562,-0.003627071261768665,-0.01429783986681856
667,6.67,-0.0010800547043620617,0.012164274166780549,0.0008630361742929286,-0.05638183223853229,0.0025404606527222877,-0.01745761700460785
668,6.68,-0.0012317131892565164,0.014668720199815985,0.0005365568686692408,-0.05863951644950498,0.00024216735390331694,-0.0228215500737032
669,6.69,-0.0012699958380802457,0.016944197123849394,0.0005557661444014443,-0.060016931291870974,-0.006290308552352688,-0.02928789176490692
670,6.7,-0.0006570048214182553,0.01924116448007218,0.00102608813743709,-0.06004049140715044,-0.006756155919709458,-0.03632902719215556
671,6.71,0.00013098562439444014,0.021275045741922467,0.0015243176212079467,-0.05939933650583591,-0.004243412593970183,-0.04365237460282391
672,6.72,0.0004541668543662869,0.0230977740857448,0.0024228310669824286,-0.05941026788009001,-0.005109660273701664,-0.0516547894875794
673,6.73,0.0006976143331352653,0.024602625047765996,0.002966474373105565,-0.05984109436225179,-0.008151727083538179,-0.060094473367238624
674,6.74,0.0017623551095694782,0.025605965497190526,0.003248148296925696,-0.0582307294839041,-0.006397731546889999,-0.06473414470983171
675,6.75,0.0027159796404416675,0.02622692036252066,0.0028085475914437674,-0.05547319082937505,-0.001948292036069381,-0.06723816389554198
676,6.76,0.002899342720327446,0.026390181433173527,0.0018575573150806167,-0.05305817937293514,-0.00046526647702149483,-0.06915552612501744
677,6.77,0.002658026116265707,0.02618565607470525,0.00035948374992406367,-0.05083836002466848,-0.0006726777539131727,-0.07073857677660712
678,6.78,0.003064647744381659,0.02536298992078429,-0.0016186268319314974,-0.04547457322996018,0.0033516497316215268,-0.07152703239141449
679,6.79,0.0032387844244415563,0.024141134299236006,-0.003690172095418179,-0.038033951081225835,0.010171370242219679,-0.07179059610048953
680,6.8,0.002207013480930483,0.021846065576963093,-0.005956719906967065,-0.02987270618009206,0.01122581999671732,-0.07113273430153498
681,6.81,0.0008001588211018515,0.019431809212317165,-0.007751014364054956,-0.021362593451958137,0.009489187351927345,-0.07002879206221345
682,6.82,7.416519732384341e-05,0.01637111814617957,-0.009373702811410523,-0.011107993212096502,0.009882432009752558,-0.06839096528121669
683,6.83,-0.0006482484304217875,0.01347740807120116,-0.01012627116948704,-1.8803736878438004e-05,0.011294642213299642,-0.06649772005301988
684,6.84,-0.0020870950474886495,0.01035607964332768,-0.010145645587583067,0.0066750734908188345,0.01030354711749568,-0.06457332821517457
685,6.85,-0.0034351345789353695,0.007323865593611771,-0.009347485949273588,0.01077870631072731,0.007896136692703531,-0.0626305810644595
686,6.86,-0.0037767468704181053,0.003713655293716126,-0.008002671204998379,0.01684418441601636,0.007336687408148687,-0.05786798186255027
687,6.87,-0.003733183115905766,0.0002023745981904971,-0.00615680147882759,0.02399038126412051,0.0077952216797543454,-0.05155201502946217
688,6.88,-0.003924620715002646,-0.0030576716221279512,-0.003968431615086138,0.02733496477817253,0.005733756665586672,-0.04273230024230184
689,6.89,-0.004196006021101171,-0.00643784825480301,-0.0017262464766390285,0.02497712829114636,-0.00010770727724099781,-0.030156963524033187
690,6.9,-0.0038086040147272395,-0.009707977435917923,0.0005198880227834705,0.02433447177563737,-0.002562749270464703,-0.01857845453342746
691,6.91,-0.003021002122096798,-0.013063422855290732,0.0025644599437866936,0.025429090947864767,-0.0015877439105468738,-0.008009614851517351
692,6.92,-0.0022519014698167018,-0.01650173192377199,0.004593632880970422,0.02570961463784523,-0.0007141103910125133,0.0031036824856837154
693,6.93,-0.0014154944179039122,-0.02003817575044914,0.006129504209534252,0.025551393732745863,0.00010489028995260952,0.014510407140340756
694,6.94,-0.0008963467540981131,-0.02375720784817593,0.007255782420352914,0.026384963666033743,-0.0023068827582225252,0.025675574573152275
695,6.95,-0.00044807043254419627,-0.027395859281671722,0.00788336146794466,0.028213503254498576,-0.007959784579541572,0.03659841056225338
696,6.96,0.0006713059696443122,-0.030822039531708062,0.008005216903164615,0.02890799752091284,-0.009684231571181999,0.04746097051258885
697,6.97,0.0020477800721614976,-0.033788103658632516,0.007693816893271174,0.028347061083143856,-0.007059731728618581,0.05825680262734177
698,6.98,0.0028250504175305014,-0.03566981990641765,0.006823999521597455,0.02600199589180956,-0.0065939071377839435,0.07212833683841482
699,6.99,0.0033910571399091986,-0.03668394016480795,0.00553173214679273,0.02263670743649057,-0.007362483767601506,0.08775865825892082
700,7.0,0.003948346619639175,-0.036275682054127054,0.0039945214220764615,0.015879328141410548,-0.00805593068544642,0.09951913140047633
701,7.01,0.004413473666861798,-0.03534797748900835,0.002408259568709347,0.007573621917724191,-0.008715084489786775,0.10951320423526943
702,7.02,0.004514969939211037,-0.03344556322586107,0.0006682729049749868,0.00029766676065537314,-0.009795164989147334,0.1183710795074033
703,7.03,0.004484274496095649,-0.0313679140549844,-0.0007654024201261562,-0.006491469409102354,-0.011074240288362805,0.12669181278010627
704,7.04,0.004539321760727376,-0.02870299989530034,-0.0019311235071254181,-0.013631248732631412,-0.009720181518177244,0.1340502104777977
705,7.05,0.004461246456387936,-0.025832211374270886,-0.0026311454856441587,-0.02100034380707212,-0.006644089650007614,0.14077925407962485
706,7.06,0.0038723327840832823,-0.022744114069682766,-0.002876783415436176,-0.02513876821499176,-0.00571672389754593,0.14503812577201927
707,7.07,0.003011466873442357,-0.01930542044124019,-0.002742805089326941,-0.026063277878458867,-0.0069269398604314475,0.14683963713879222
708,7.08,0.002135688573232828,-0.015537627629187173,-0.0023661986055269783,-0.02705271236611427,-0.007719735318428823,0.14469697694527384
709,7.09,0.0013383268529655711,-0.011459093312049775,-0.001720693604138018,-0.02808151893590795,-0.008259396253381587,0.1401624697412977
710,7.1,0.00034693020776838395,-0.006640991786551779,-0.0007281757513271764,-0.031160592415836345,-0.009493704819453646,0.13287482251782412
711,7.11,-0.0006555825929580257,-0.0013474116749008225,0.00035675465240338276,-0.036358302828929566,-0.011445825354079649,0.12274222662027863
712,7.12,-0.0009577087817833443,0.00405291182895598,0.0012991136948037679,-0.04024630235288552,-0.012716664156581391,0.11497641680849399
713,7.13,-0.0010842763239378738,0.009232936704816988,0.002020747040949226,-0.043529510662284485,-0.013672904363588244,0.10830352868139273
714,7.14,-0.0013426185862770185,0.01447865456505121,0.002597463479415207,-0.04772738564245547,-0.013250125103655393,0.09848533825676448
715,7.15,-0.001668383129308424,0.019385804871325237,0.0029023059816949298,-0.05240426555138517,-0.012105162405070742,0.0870199736744949
716,7.16,-0.0018856830136889167,0.023704394204446325,0.0027860396695409636,-0.05154285666119812,-0.013006812729241594,0.07849612322010932
717,7.17,-0.002155826461831549,0.02757606900979268,0.0024566145679090915,-0.047974554496111516,-0.014908765354098215,0.07140996680798117
718,7.18,-0.0028483890187963722,0.031179521186317973,0.0020479969364365826,-0.04621895036870729,-0.016788213879656542,0.06327956991900216
719,7.19,-0.0034803133131263374,0.03429772926037588,0.0015588184417987894,-0.04536183282474302,-0.018656507965329347,0.054631582102669926
720,7.2,-0.0033680139532316377,0.03597861952228587,0.0012861174521742662,-0.040273269093203834,-0.01842108729149573,0.046384606425083234
721,7.21,-0.0031934917449800617,0.03728348772057599,0.00087245957603593,-0.033255944550295145,-0.0172267598026942,0.03832041849045947
722,7.22,-0.003620597658508562,0.03952630748199311,0.0006887750340037494,-0.028935131469001618,-0.015705418422913498,0.025794416504813296
723,7.23,-0.004045426351608617,0.04118784335725525,0.00027150312130323285,-0.0261662888255969,-0.013995865014812805,0.010700428584334159
724,7.24,-0.0031641670982623382,0.03906870053058564,-0.0012137866643721254,-0.02244136627761268,-0.011728068603133045,0.004745003510157257
725,7.25,-0.002273673794023063,0.03631306595021383,-0.0027338010665428425,-0.018217967260285087,-0.00916921806498661,0.003554199594397783
726,7.26,-0.00251916196268049,0.035133226102283234,-0.0037974850242989814,-0.015782486684368612,-0.010318192967533184,-0.0022517572961313647
727,7.27,-0.002945883125400439,0.03397789301581161,-0.004420973549908672,-0.014261912219438774,-0.013364520722195536,-0.0104193608714066
728,7.28,-0.002698892153997393,0.03163061598298171,-0.005228048670003318,-0.008802889157928255,-0.01303547310826822,-0.01666497121193705
729,7.29,-0.002185486410547987,0.028385860158854602,-0.0057093739468468754,-0.0004316474524684484,-0.010210561745536813,-0.02148939643489921
730,7.3,-0.0022045103495456357,0.023989146196132613,-0.005369739663034506,0.0059454773337628344,-0.01176485965376722,-0.02786704746430013
731,7.31,-0.002183363428916245,0.019070736199572266,-0.004547413198799744,0.01101027413915876,-0.016201114384489318,-0.035266876113624016
732,7.32,-0.0014707695492873446,0.013581376564633582,-0.0038027812252650443,0.01745058196633497,-0.01700223587922726,-0.0401493384503885
733,7.33,-0.0004103115786342113,0.007802237865545191,-0.0030645597202836787,0.025275786200549447,-0.014143420900970522,-0.04249725798359881
734,7.34,0.00010438601798736132,0.0019067552332952872,-0.0013698462190028706,0.031061391091879657,-0.015933861604789344,-0.045735024803567864
735,7.35,0.0006245630115446269,-0.0036056915612963317,0.00025441556728952137,0.035740036636053615,-0.0202476101595094,-0.04945574175541243
736,7.36,0.0018480958191435346,-0.008729472657905576,0.0016808621926573712,0.03689183887796644,-0.02052609678046658,-0.04793564151074551
737,7.37,0.003085340408186122,-0.01344676920980848,0.0025023527536397047,0.03615872548050908,-0.018647944255298837,-0.04361459507988101
738,7.38,0.0037803391352314907,-0.018126224764206226,0.002814451368388848,0.03627111448398725,-0.016999277484837726,-0.03710836950819399
739,7.39,0.004201887742300253,-0.022484789003280783,0.0026293646993379486,0.03695046750974328,-0.015504495749356985,-0.02913684004889227
740,7.4,0.004838276134479671,-0.026514616082476294,0.0018716271199189709,0.039672286412481134,-0.014348343990639868,-0.021104759118470318
741,7.41,0.005282189622404624,-0.02996948638167647,0.0009211336555898959,0.04333377679694912,-0.013347984764669458,-0.013044820444509182
742,7.42,0.005219416924727854,-0.03287153352533654,4.1785008463240654e-05,0.042868229367551636,-0.013141966720283902,-0.004704916838372536
743,7.43,0.004942416209543672,-0.0351661376796154,-0.000703225581362438,0.040250946263710674,-0.013350098566251495,0.00378095357478761
744,7.44,0.004619217939916253,-0.036811141075900805,-0.0012734702789501463,0.037633663159869706,-0.013558230412219091,0.012266823987947754
745,7.45,0.004244127174604107,-0.0378455004075299,-0.0016312194190463995,0.035016380056028744,-0.01376636225818669,0.0207526944011079
746,7.46,0.004022642924369258,-0.03806526683624726,-0.0019322404365848457,0.03219249273044183,-0.013173783129419574,0.03133149520378928
747,7.47,0.0037206660430451803,-0.03769383835201158,-0.0019991615230388594,0.02923035197054018,-0.012045391899548891,0.04331082311907135
748,7.48,0.0035446008669900338,-0.03677350008895108,-0.001655399172164995,0.026015704078755808,-0.010556143614524198,0.06181007364040071
749,7.49,0.003287270099043067,-0.035300062732326526,-0.0010542667862127326,0.02254814472020979,-0.00870546044079041,0.0868396869961297
750,7.5,0.002297935884289184,-0.03297994964052852,-0.00036283499054637,0.018497098356654883,-0.006725056521875385,0.1084480594466345
751,7.51,0.0009771743493299104,-0.03004565916282206,0.00036632156090626216,0.013860928934001312,-0.0046145681304743955,0.12662559808731408
752,7.52,0.0002798986751074966,-0.02673783810687652,0.0011608414221891492,0.008299754311529309,-0.0005887027013414124,0.14666147258368625
753,7.53,-0.00016395195110867908,-0.0230888970204519,0.0019258697048494032,0.0018128341889588984,0.0053540726803196674,0.16855717019934094
754,7.54,-0.000994538514306212,-0.018765093790378197,0.002682942239904137,-0.00609028344127453,0.010756648410801005,0.1898564938507499
755,7.55,-0.0020365172389959383,-0.014367790696531798,0.003258194658776906,-0.014846023665836315,0.015833996603772982,0.2107967701843704
756,7.56,-0.002400568088217859,-0.009441979980393134,0.003593926476753076,-0.02360257301673397,0.024180253852720268,0.2269776450297413
757,7.57,-0.0025088149098086254,-0.004351687208036945,0.0037346442485401976,-0.03235993897233025,0.03582563310049497,0.2383551295444959
758,7.58,-0.0030299976392289315,0.0005384391998853062,0.0036511919282647756,-0.03948826806362817,0.045624674849395606,0.2486268884627361
759,7.59,-0.003875426332666067,0.004926885776633239,0.0034328764232972302,-0.04550729671161248,0.054166444248667935,0.2581456982481002
760,7.6,-0.0043315649685290985,0.009111666918821109,0.0030371734892903003,-0.051423768461227384,0.06201636893150414,0.2694880861582279
761,7.61,-0.004933310740299369,0.012766457177112524,0.002629634900601401,-0.0572867458335431,0.06950542269408119,0.2817816648491969
762,7.62,-0.004992806049514643,0.016605793375813138,0.0016124718425735525,-0.05796699642677108,0.07745907372202572,0.28210683411667564
763,7.63,-0.005294837210431529,0.01991849191758995,0.0008649782651178907,-0.05623066767139213,0.08562935514643194,0.2768514253831721
764,7.64,-0.006051214969685622,0.02247939830715666,0.0007142761989427889,-0.054494338916013206,0.09379963657083816,0.27159601664966865
765,7.65,-0.006786046296647263,0.024672719679377043,0.0008769038353348684,-0.05275801016063427,0.10196991799524437,0.26634060791616515
766,7.66,-0.007210978864461776,0.026696562206830785,0.0011507992990172752,-0.051021681405255336,0.11014019941965056,0.26108519918266165
767,7.67,-0.007016121462536225,0.029096671365692155,0.0006302368203042169,-0.046085921110152826,0.11471321259246825,0.2427997454079907
768,7.68,-0.006326987220451223,0.03135016559578978,2.9971552623398812e-05,-0.03870785096926238,0.11654022430855406,0.21456770990466276
769,7.69,-0.005343223712492904,0.032873960208168074,0.00011386696018909188,-0.03132978082837193,0.11836723602463982,0.18633567440133475
770,7.7,-0.00398449721510005,0.033024643107812814,0.0009319054183727548,-0.029702382067196338,0.12128016229669968,0.16159694336176178
771,7.71,-0.00239311381997388,0.03282101977181717,0.0016742083488625427,-0.031262253144389296,0.1247949492008086,0.13879435216019784
772,7.72,0.0003978498596566892,0.03299973843460924,0.0023897439009005293,-0.03099315119597887,0.12831651349039278,0.11726122115001596
773,7.73,0.0034547813651153083,0.033063572608304725,0.002768297165634365,-0.02888627603098381,0.1318448877751658,0.09700365839949864
774,7.74,0.004905422069513063,0.031689765058115604,0.0025095258422329313,-0.02380707029006525,0.1339314929515693,0.08055216653406226
775,7.75,0.005515375413947295,0.029811623165338176,0.0015412320611010986,-0.01719324959675554,0.13527371240939842,0.0660657499322651
776,7.76,0.006240576989074376,0.026956810865471723,-1.165924949736918e-05,-0.008401670049284087,0.13765534706344112,0.06066155800091054
777,7.77,0.006627710678895995,0.024058355902651467,-0.0018310927102525056,0.0014076882143289927,0.14052275389649194,0.05950195676293231
778,7.78,0.006366305970558119,0.02016322095293726,-0.003905717627804567,0.013732369709544234,0.14045883098646653,0.054030538676919364
779,7.79,0.0059142237022297255,0.0164774612735559,-0.005720590088258563,0.0272965021657266,0.13895046569968422,0.04643442923169418
780,7.8,0.005364988341958986,0.011914196917575125,-0.0075443825200785216,0.04151345063462334,0.1361143876659795,0.04005424708572861
781,7.81,0.0049202887605669125,0.007766082850545589,-0.008733931983724583,0.056096334671196436,0.13253406116365032,0.03435565215245662
782,7.82,0.006739553209367756,0.0030383830911729307,-0.009288567577958443,0.06412934115301265,0.1283857051544269,0.02814013791991071
783,7.83,0.007728303252217659,-0.001170012003043239,-0.009146529222117741,0.06778264926546526,0.12295331659099502,0.021969094445409704
784,7.84,0.0054520135766577445,-0.004422801268364954,-0.008415899864058348,0.06920370482129758,0.11400034063828107,0.01705730503300681
785,7.85,0.00026016877052169015,-0.005318466300425701,-0.006623342850176766,0.0691865195927807,0.1069066268140636,0.01318408227060568
786,7.86,-0.003568968306634667,-0.006499508800943221,-0.0045736228224938225,0.06840337471282884,0.10080309473644003,0.00986396588502542
787,7.87,-0.003940212152073833,-0.009332986200693644,-0.0027449343876067072,0.067620229832877,0.09469956265881643,0.006543849499445158
788,7.88,-0.0003201319069006236,-0.015599903718107174,-0.0013365738485169873,0.06785334487800293,0.0864814878881941,0.0046548472331777255
789,7.89,0.0034883865847524743,-0.02192220408176402,-0.0001037587612794696,0.06856075430294663,0.07727654382318601,0.0034337541965455856
790,7.9,0.0035595671880881766,-0.025149631301335428,0.00154201688594989,0.06988032936632167,0.07051087101222847,0.00472797631838664
791,7.91,0.0017032778220273576,-0.026889024050063395,0.003194752270790904,0.07186574638715544,0.06639835127717983,0.008758063153306055
792,7.92,0.002611199729443481,-0.03173196754623775,0.004267134902609003,0.07218416564899541,0.061570912645584626,0.014165999544308881
793,7.93,0.004110373580803495,-0.03674687390391012,0.004731949550106506,0.07155755233608771,0.05633818154020295,0.020355048391267484
794,7.94,0.00420651600054472,-0.03983090570018141,0.00485849675386669,0.06851447900310602,0.05012382985611155,0.024678557456115004
795,7.95,0.003678174462180687,-0.04154302155394456,0.004617408282393207,0.06405647196881893,0.04333470017976155,0.02790971858766044
796,7.96,0.002493653952604552,-0.04223149316349411,0.0040891454067049976,0.058542197488171126,0.03495933389775198,0.03279445070388065
797,7.97,0.0009391136659495313,-0.04192011862599264,0.003440919665390522,0.051967422024303454,0.02499137334833673,0.03933938134379236
798,7.98,-0.0005867709132781253,-0.04026270936051197,0.0026646594851023305,0.04172382646420815,0.016041764018529945,0.047762963945448135
799,7.99,-0.002088208801073063,-0.03758463043872704,0.0019332993471723103,0.027689067071451433,0.008144464753393808,0.058127845707246925
800,8.0,-0.004144169836411776,-0.03320883396827118,0.0010826781885839019,0.018100261917525857,-0.0008125517103644616,0.06529944427527977
801,8.01,-0.005698736412801614,-0.028732396106307487,0.0005466412239838515,0.010644304298712827,-0.010277943900363174,0.07093913634520826
802,8.02,-0.006709274263561511,-0.024478061066256253,0.00021744122100658247,0.0042481501427666475,-0.015864953605058962,0.07818049403974815
803,8.03,-0.0072114965879961695,-0.020316175215836032,0.00026009504194053797,-0.0015221013159273289,-0.019161453660012456,0.08636776941588217
804,8.04,-0.008277822971354598,-0.015618252605158457,0.0008860115770008246,-0.0070538623054534795,-0.027394458166851952,0.09229756539906912
805,8.05,-0.008892390919306709,-0.010777249781032784,0.0016951788150833765,-0.012456243227100063,-0.03830549539886237,0.09700268838750137
806,8.06,-0.00875948366963947,-0.005348158825111502,0.002579951491831608,-0.019827191673165587,-0.04331752976035963,0.10359212911714784
807,8.07,-0.008111533803211198,6.570506328912318e-05,0.003292862622274932,-0.02825116511118813,-0.045174072947069724,0.1111895279938598
808,8.08,-0.007879226488056688,0.00605890013244615,0.003750991477650852,-0.037212047406695856,-0.05071208502912145,0.11231918709246416
809,8.09,-0.007365618634653426,0.011675693860231774,0.003933325958533514,-0.046444253356362514,-0.05811050522221664,0.11018041288757502
810,8.1,-0.006849112015018752,0.017398279982807865,0.003767515578405318,-0.054359670185876084,-0.06241695519691861,0.10763365100582836
811,8.11,-0.0059550143638805834,0.02237909913297513,0.0034186085770152594,-0.06161590206568517,-0.06517556413792315,0.10488265039509057
812,8.12,-0.005252159131985414,0.027106020232820906,0.002980880955892684,-0.06700867510301288,-0.07215880790926812,0.10167446839593036
813,8.13,-0.004187051939634249,0.030888212889892627,0.0024666163682767663,-0.07151644261338036,-0.08114844167378364,0.09824915895271114
814,8.14,-0.002348117378009014,0.03375191446261774,0.0019272349124864526,-0.07492199061496327,-0.0838412637083777,0.0934380152601096
815,8.15,-0.0004595327254925006,0.03580279789995507,0.0013269997834529624,-0.07781761901638741,-0.08362099293885572,0.08798574333424837
816,8.16,0.0011218630892071272,0.0370834457268585,0.0006511438849237387,-0.07985725388701616,-0.08533553459314955,0.08385411522438006
817,8.17,0.00236407365537113,0.03785372610406111,-5.870020075656899e-05,-0.08103746439105472,-0.08899264343047293,0.08104842409209183
818,8.18,0.0028638287707870363,0.03876251979381546,-0.0008244577033071721,-0.08141816533629688,-0.09209938405591518,0.07862730678249134
819,8.19,0.001184612501812836,0.04141337888711992,-0.0018744373980298322,-0.07746673553997313,-0.09222396265009927,0.0782899970538472
820,8.2,0.002137529961592754,0.040437577697739105,-0.002606248565876884,-0.07586591584154477,-0.0931630085149341,0.07061223547354763
821,8.21,0.003858830316845475,0.037979791191114456,-0.0030707518287769967,-0.07550046636237646,-0.09453010010782258,0.059076677306069865
822,8.22,0.004505116510046503,0.036003050609665285,-0.0035497414147357773,-0.07074551949384819,-0.09364182875075187,0.05162863692474543
823,8.23,0.005054320814442263,0.03354334710033801,-0.0038275334449448285,-0.06380404396320427,-0.09163009944482507,0.04621670090880825
824,8.24,0.005956062310549471,0.030157947869508227,-0.0038285422021097446,-0.056862568432560365,-0.0896183701388983,0.04080476489287106
825,8.25,0.009018160177217151,0.024164497547873854,-0.003417348813589968,-0.05263235825213432,-0.08890104995562229,0.03616067122903392
826,8.26,0.012528279817260318,0.01719575657337742,-0.002871450153942711,-0.051296144971268935,-0.08956537837690402,0.032336170301167935
827,8.27,0.012174277924674574,0.013340117646736791,-0.00271185792058784,-0.046818208563003234,-0.0873027955011774,0.024261511754828352
828,8.28,0.009815580333197352,0.010915088722111468,-0.0027756164941279446,-0.039184694966643084,-0.08210039452376526,0.0119179536642572
829,8.29,0.005452995172710003,0.008453104462375391,-0.0025707541238887376,-0.028623673746187173,-0.08098471309666065,-0.004556684993470182
830,8.3,0.0007389126804616042,0.0055854044599365545,-0.0022756732566594695,-0.014855399831101632,-0.08434626758929781,-0.025557159612030075
831,8.31,0.0039418855315244625,-0.001327036179563498,-0.002512894025176078,-0.00662333176235483,-0.08451776637152654,-0.035068181765198124
832,8.32,0.0077525461687072686,-0.008157266061554008,-0.0028958321261128572,-0.0011614432131188644,-0.08309304072851714,-0.0388301680635902
833,8.33,0.0066893941247140555,-0.01308849146433958,-0.0030512734236352746,0.007398161267313427,-0.08173742424026664,-0.04736318984191768
834,8.34,0.004356794891364609,-0.016758675385135174,-0.003113146266302266,0.01750848308665192,-0.0804164038114813,-0.05828459312700754
835,8.35,0.0028950429107682564,-0.020866073714309527,-0.0037442464510560624,0.02750819909716604,-0.07935268233879274,-0.06797805542630306
836,8.36,0.0019286714269018913,-0.024374972727230385,-0.004152139333228808,0.037441011995264964,-0.07844459555805229,-0.07692876221677836
837,8.37,0.0011787475413057124,-0.026587829393619,-0.0038379390460242385,0.047373824893363885,-0.07753650877731186,-0.08587946900725364
838,8.38,0.0004866995261372242,-0.02921254164751331,-0.00335554160344494,0.05334760631963785,-0.07623108730437125,-0.09332766831069764
839,8.39,-1.704193191358252e-05,-0.03126582670998556,-0.0025233347325916296,0.0571717454454409,-0.07470992431286061,-0.09996004847406097
840,8.4,0.0021815475558447277,-0.031151235450847112,-0.0009095087014319033,0.05865757948987173,-0.07325447329725812,-0.10393603772747592
841,8.41,0.003906583899316029,-0.03072938090675435,0.000770494900005862,0.058842899628167425,-0.07183556983875118,-0.106434600726276
842,8.42,0.0034052330034981875,-0.031028773869664295,0.002086936706962348,0.059028219766463136,-0.07041666638024421,-0.10893316372507604
843,8.43,0.0016503156404005298,-0.03173370665545692,0.003085832701649167,0.05921353990475885,-0.06899776292173726,-0.11143172672387612
844,8.44,-0.0006603458674895816,-0.032548945821869124,0.003810020417153223,0.059398860043054565,-0.06757885946323029,-0.1139302897226762
845,8.45,-0.003046717740836009,-0.03321284702999017,0.004298875578905149,0.059584180181350276,-0.06615995600472334,-0.11642885272147628
846,8.46,-0.012150463494796721,-0.046424482564786526,0.005701411256015454,0.06337210420758423,-0.05184286917942716,-0.1280661465561786
847,8.47,-0.016697592518309594,-0.05139774883635807,0.0062734879403689905,0.06790786980891368,-0.034848330692796525,-0.1416004912672142
848,8.48,-0.010875226589421702,-0.039824016116437405,0.005819189017085082,0.07039156756225252,-0.02515491091717336,-0.14760165893245014
849,8.49,-0.0023511014538929245,-0.023365275955972098,0.004879035290010484,0.07129342516289025,-0.021089571493775376,-0.1477958636650908
850,8.5,0.0015874227912192496,-0.014527860370210578,0.004268383174688283,0.06707276589736391,-0.014599930494507106,-0.14469990439476269
851,8.51,0.002487393016412866,-0.009489326900266529,0.0036362761356011873,0.059871939432572886,-0.006699884370903037,-0.1396898003596578
852,8.52,0.00239740788816057,-0.0053916354394209914,0.0027928385213905546,0.05125312503286258,0.002108791586914556,-0.13753293953171836
853,8.53,0.0010748436273026341,-0.0021577899478026612,0.001904152083466201,0.041868090412003664,0.011408452365807478,-0.13691784967893852
854,8.54,-0.001015926288737045,0.0014488608363229403,0.0009515539589503704,0.0300323536189986,0.017753097531901522,-0.13550195618108174
855,8.55,-0.003637615127181154,0.004316450932699276,0.00018424684485709823,0.017062324597691834,0.022730032136425108,-0.1337154157064808
856,8.56,-0.005677033015539735,0.007021894218493294,-0.0006572586098364621,0.0051726649447294965,0.028333224429645705,-0.12667615751873265
857,8.57,-0.007650419066975227,0.009018179040499927,-0.0011488271630429765,-0.006163411613866391,0.034257312223366226,-0.1169453978772424
858,8.58,-0.009176321359008402,0.010796183521914733,-0.0014387244189248776,-0.014025087238757014,0.04085649555783858,-0.1044449567494508
859,8.59,-0.01050953467040662,0.012147027903113967,-0.0013067441591614833,-0.0202032051665553,0.04778280357239022,-0.0906024371817412
860,8.6,-0.011690108404711887,0.013662860040398883,-0.0007409857575133144,-0.024870283609061038,0.052835346688946135,-0.077359883443154
861,8.61,-0.012368129434098592,0.015116285115497058,2.6304229133957465e-05,-0.028684077510427536,0.05682977409327136,-0.06445613062418858
862,8.62,-0.012368899569013374,0.01637649096053838,0.0008254553276156958,-0.03249787141179404,0.060824201497596576,-0.05155237780522316
863,8.63,-0.005931256526110846,0.019604507544777206,0.0020879956393739987,-0.058527301787919685,0.06738096085760145,-0.03408613984073911
864,8.64,-0.0064811575810921765,0.021931257155633332,0.0023587205217484135,-0.07381835772426529,0.07170181932453636,-0.024000883981323842
865,8.65,-0.010323899697616157,0.02363608465102822,0.0020224285187777995,-0.07639924644681399,0.07351197606716076,-0.021947414848104217
866,8.66,-0.009255049246476145,0.02627938044848664,0.0015483788279254712,-0.08117338715787402,0.07585877869977106,-0.022213572555571732
867,8.67,-0.005502067846581285,0.029089178078277836,0.001035768316439891,-0.08823487238402092,0.07876524982438918,-0.024898871227637388
868,8.68,-0.0030786593210983277,0.03070523123355253,0.0009415265811271707,-0.09230634347578767,0.07750640529577044,-0.027817107230739668
869,8.69,-0.0007894195703285313,0.031057872250257055,0.0009565731706737204,-0.09482787404906458,0.07408837649139242,-0.030856091495026137
870,8.7,0.002376650899767239,0.030811175561431352,0.0009729618795355553,-0.0942800231236779,0.07552383093304638,-0.03683433118423644
871,8.71,0.0055602352095618784,0.029833424184125247,0.0008343826063801655,-0.0922244861475012,0.07934332560918128,-0.04425633874843915
872,8.72,0.008025284502038708,0.0281287185830627,0.0010143823059162388,-0.09161603505980777,0.07972071359697297,-0.051246986374588806
873,8.73,0.010105663113974369,0.026148365168875604,0.000838475476074069,-0.09168981810788544,0.07847530731910078,-0.0580342677203497
874,8.74,0.012453421863954107,0.024845286147578294,0.0002639287675824148,-0.09190220969525784,0.08163125272899444,-0.06640337935690713
875,8.75,0.014323900777694545,0.023421030096812526,-0.000680538502842571,-0.0921966367091024,0.0873921369442229,-0.07570869682300634
876,8.76,0.014973899011194405,0.021500018590877874,-0.0020361337192680066,-0.08906116359452436,0.08744066333027267,-0.08697051868402017
877,8.77,0.014946623769068426,0.01912799248149423,-0.0034445687167117284,-0.08404203502599462,0.08435203890231181,-0.09930682669220248
878,8.78,0.01515697671266528,0.015540373890370692,-0.005240328887515487,-0.0736470544461469,0.08341934638401323,-0.10598190873973357
879,8.79,0.014878031459354436,0.011910982456870825,-0.006622294086209807,-0.06045917946929321,0.08360671634848857,-0.10971583723013556
880,8.8,0.013204061051768792,0.007343601645033945,-0.0077363294424530014,-0.04228169099938895,0.07962619530507815,-0.11032919254913418
881,8.81,0.011146558478380517,0.0034610875364908516,-0.008107944097582993,-0.021569138759602726,0.07352810152670057,-0.10935708398418496
882,8.82,0.010380057175236171,-0.0005584994403773757,-0.008099856709974335,-0.002723680157376958,0.0707683060285725,-0.10614913707862376
