,ts,ax,ay,az,wx,wy,wz
0,0.0,-0.01227,-0.008307,0.0013699999999999995,0.009659000000000001,-0.029068,0.002853
1,0.01,0.005718000000000001,-0.023146,0.026126999999999997,0.009659000000000001,-0.031188999999999998,0.002853
2,0.02,-0.0008409999999999997,-0.028785,-0.018283,0.0064540000000000005,-0.030121,0.0017850000000000001
3,0.03,0.018598,-0.028232,0.030086,0.0032649999999999997,-0.026931999999999998,0.002853
4,0.04,0.017281,-0.0077,-0.017976,0.007523,-0.032257,-0.0003360000000000004
5,0.05,0.010662,0.006749000000000002,-0.015378,0.0054020000000000006,-0.031188999999999998,0.001785
6,0.06,0.007297999999999998,-0.015964,-0.02021,0.0064540000000000005,-0.032257,0.002853
7,0.07,0.0059039999999999995,-0.00028500000000000053,-0.042611,0.007523,-0.033325,0.002853
8,0.08,-0.026732,0.002060000000000001,-0.042652999999999996,0.008591,-0.034393,0.0017850000000000001
9,0.09,0.040596,-0.016599000000000003,-0.054847,0.01178,-0.033325,0.0017850000000000001
10,0.1,-0.0010350000000000012,-0.009939,-0.042922,0.009659000000000001,-0.033325,0.0017850000000000001
11,0.11,0.013212,0.00020500000000000032,-0.054213,0.0064540000000000005,-0.033325,0.0017850000000000001
12,0.12,0.027551999999999997,0.025667000000000002,-0.062684,0.0054020000000000006,-0.029068,-0.0014039999999999999
13,0.13,0.046158,-0.004691000000000001,-0.063303,0.004333,-0.034393,-0.00033599999999999993
14,0.14,0.039023,-0.008843,-0.069952,0.004333,-0.036514,0.000717
15,0.15,0.035718,-0.0077150000000000005,-0.052485000000000004,0.0032649999999999997,-0.032257,-0.0014039999999999999
16,0.16,0.037639,0.008806,-0.05457000000000001,0.004333,-0.037582,-0.0014039999999999999
17,0.17,0.058388,0.013584,-0.034744,0.0032649999999999997,-0.038651,0.000717
18,0.18,0.035067,0.041109,-0.00010299999999999893,6.100000000000029e-05,-0.040770999999999995,-0.0003360000000000004
19,0.19,0.021803,0.063264,0.004437999999999999,0.004333,-0.045044,0.002853
20,0.2,0.005680000000000001,0.07874199999999999,0.025417,0.007523,-0.041839999999999995,0.003922
21,0.21,0.028401999999999997,0.054634,0.073825,0.016052,-0.042908,0.002853
22,0.22,-0.052083000000000004,0.046218,0.050141999999999985,0.024567,-0.040770999999999995,0.002853
23,0.23,-0.041303,0.023709,0.030711000000000002,0.028824000000000002,-0.040770999999999995,0.001785
24,0.24,-0.052105,0.035841000000000005,0.040432,0.03096,-0.032257,0.002853
25,0.25,-0.033083999999999995,0.029343,0.08000299999999999,0.035217,-0.023727,0.003922
26,0.26,-0.086649,0.064458,0.067488,0.03949,-0.014145,0.002853
27,0.27,-0.094282,0.06516799999999999,0.11908000000000002,0.042679,-0.009888,0.007111
28,0.28,-0.108804,0.054049,0.046323,0.05014,-0.007751000000000001,0.006058
29,0.29,-0.093373,0.0034210000000000004,0.038049,0.05014,-0.004562,0.008179
30,0.3,-0.048833,-0.076014,-0.00013300000000000117,0.049072000000000005,0.005035,0.009247
31,0.31,-0.034384,-0.081758,-0.048885000000000005,0.03949,0.011414,0.007111
32,0.32,0.001230999999999996,-0.128728,-0.14533900000000002,0.03096,0.016738999999999997,0.007111
33,0.33,0.02375,-0.137309,-0.189622,0.016052,0.0242,0.006058
34,0.34,0.055046000000000005,-0.080735,-0.200727,0.0032650000000000005,0.022078999999999998,0.00499
35,0.35,0.068875,-0.069797,-0.178008,-0.007385000000000002,0.023132,0.0007169999999999998
36,0.36,0.078025,-0.055554,-0.124549,-0.018036,0.022078999999999998,-0.0003360000000000001
37,0.37,0.065138,-0.012981,-0.082669,-0.023361,0.019943000000000002,-0.002472
38,0.38,0.049479,-0.011845,-0.049754,-0.027634,0.017807,-0.002472
39,0.39,0.018414,0.026012,0.007073000000000003,-0.026566000000000003,0.016738999999999997,-0.002472
40,0.4,0.001966,0.043132,0.005721999999999999,-0.024429,0.015686000000000002,-0.00033599999999999993
41,0.41,-0.036133,0.026014999999999996,-0.0075869999999999965,-0.023361,0.015686000000000002,-0.004608
42,0.42,0.0037649999999999997,0.004207000000000001,-0.011126,-0.018036,0.014618,-0.0014040000000000005
43,0.43,0.012673,-0.02332,-0.0384,-0.021240000000000002,0.012482,-0.00033599999999999993
44,0.44,0.0051329999999999995,0.0005760000000000001,-0.040831999999999986,-0.024429,0.015686000000000002,-0.000336
45,0.45,0.007106000000000001,-0.047199,-0.047673,-0.030823000000000003,0.018875,-0.0014039999999999999
46,0.46,0.015489,0.010202000000000004,-0.012863,-0.032958999999999995,0.022078999999999998,-0.004608
47,0.47,-0.028262,0.011282999999999996,-0.029049000000000002,-0.03508,0.025269,-0.004608
48,0.48,-0.023446,0.020686000000000003,0.033349000000000004,-0.029755,0.027405000000000002,-0.005661
49,0.49,-0.041757999999999997,0.023717,0.055353999999999993,-0.024429,0.026337,-0.004608
50,0.5,-0.029644,0.027030000000000002,0.027620999999999996,-0.016983,0.028457999999999997,-0.0035399999999999997
51,0.51,-0.044242000000000004,0.05828,-0.022848,-0.015915000000000002,0.025269,0.000717
52,0.52,-0.00621,0.026009,-0.007113999999999999,-0.01059,0.026337,-0.0014039999999999999
53,0.53,-0.058542,0.049321,-0.062865,-0.007384999999999999,0.028457999999999997,0.0017850000000000001
54,0.54,0.005115999999999997,0.045522,-0.018777,-0.0052640000000000004,0.028457999999999997,0.003922
55,0.55,0.001065,0.0076359999999999996,-0.022612,-0.003128,0.033783,0.003922
56,0.56,0.053013,0.020073,-0.028551,-0.00206,0.034851,0.00499
57,0.57,0.036177,-0.010463000000000005,-0.023305000000000003,-0.003128,0.038055,-0.002472
58,0.58,0.064538,0.012429000000000004,-0.02154,-0.004196,0.041245,-0.00033599999999999993
59,0.59,0.048364,-0.008535999999999998,-0.054071000000000015,-0.0052640000000000004,0.04657,-0.0035399999999999997
60,0.6,0.066345,0.007101999999999998,-0.031639999999999995,-0.0063170000000000006,0.043381,-0.004608
61,0.61,0.029088,-0.007051000000000001,-0.024097,-0.0063170000000000006,0.04657,-0.004608
62,0.62,0.020062,0.016340999999999998,-0.056169000000000004,-0.004196,0.045502,-0.004608
63,0.63,0.008870999999999999,0.021436,-0.06415900000000001,-0.0052640000000000004,0.044449,-0.0035399999999999997
64,0.64,0.008874,0.011834,-0.03266,-0.008453,0.04657,-0.0014039999999999999
65,0.65,-0.015721000000000002,0.011772,-0.039412,-0.0063170000000000006,0.050827,-0.0035399999999999997
66,0.66,-0.012034,-0.012557,-0.070609,-0.007384999999999999,0.050827,-0.00354
67,0.67,-0.03137,-0.011195,-0.032901,-0.000992,0.054030999999999996,-0.002472
68,0.68,-0.036099,-0.023358,-0.068134,-0.004196,0.06149299999999999,-0.0035399999999999997
69,0.69,-0.050269,-0.019156,-0.084578,-0.0063170000000000006,0.063614,-0.0014039999999999999
70,0.7,-0.043366,-0.040760000000000005,-0.048273,-0.009521,0.06575,-0.002472
71,0.71,-0.009412999999999998,-0.019773,-0.051398,-0.014846999999999999,0.070007,-0.002472
72,0.72,-0.030063000000000006,-0.024416999999999998,-0.033613,-0.019104,0.071075,-0.0014039999999999999
73,0.73,-0.019955,-0.009686,-0.004480999999999999,-0.022308,0.072144,-0.004608
74,0.74,0.020793,-0.007031000000000001,0.002102,-0.023361,0.074265,-0.0035399999999999997
75,0.75,0.008103,-0.001379,0.03424,-0.023361,0.076401,-0.002472
76,0.76,-0.013711000000000001,0.060497,0.060613,-0.021240000000000002,0.08065800000000001,-0.0014040000000000005
77,0.77,-0.000547,0.025005,0.057835000000000004,-0.020172,0.07959,0.000717
78,0.78,-0.031878,0.020277,0.045206,-0.018036,0.083862,-0.0014039999999999999
79,0.79,-0.030866,-0.0013099999999999989,0.019273,-0.016983,0.089188,0.0017850000000000001
80,0.8,-0.005072,-0.0009640000000000012,-0.010785,-0.013779,0.091309,0.0017850000000000001
81,0.81,-0.043167000000000004,-0.0006810000000000003,-0.025553,-0.015915000000000002,0.095581,0.001785
82,0.82,0.003805,-0.043049000000000004,-0.07812899999999999,-0.018036,0.096634,-0.000336
83,0.83,-0.0167,-0.023614,-0.040277999999999994,-0.022308,0.099838,0.000717
84,0.84,0.021462,-0.044701,-0.077395,-0.026566000000000003,0.100906,0.002853
85,0.85,-0.0003970000000000015,-0.029215,-0.039945,-0.030823000000000003,0.09877000000000001,0.00499
86,0.86,-0.000235,-0.027081,-0.051141000000000006,-0.030823000000000003,0.099838,0.007111
87,0.87,0.007070999999999999,-0.012505,-0.044142,-0.034026999999999995,0.095581,0.00499
88,0.88,-0.009429,0.01187,-0.040806,-0.037216,0.095581,0.007111
89,0.89,0.038676999999999996,0.0056689999999999996,-0.018843000000000002,-0.039352,0.094513,0.006058
90,0.9,0.008671,0.04181,0.00012600000000000024,-0.040405,0.093445,0.006058
91,0.91,0.031256,0.009319,-0.0008820000000000007,-0.039352,0.091309,0.002853
92,0.92,-0.016725999999999998,0.027239999999999997,0.021967,-0.037216,0.087051,0.00499
93,0.93,-0.0020789999999999997,0.015576,0.009436,-0.036148,0.083862,0.002853
94,0.94,0.009462000000000002,-0.003793999999999999,0.036444999999999984,-0.031891,0.083862,0.001785
95,0.95,0.017029000000000002,0.012676999999999999,0.020064,-0.029755,0.081726,0.002853
96,0.96,-0.007737000000000002,0.010167999999999995,0.029035000000000002,-0.028702,0.07959,0.0017850000000000001
97,0.97,-0.009457,0.029176,0.015465000000000001,-0.026566000000000003,0.076401,0.000717
98,0.98,0.027804000000000002,0.033833999999999996,0.032545,-0.023361,0.074265,-0.0003360000000000001
99,0.99,-0.001511,0.0153,0.011573,-0.022308,0.073212,-0.0014039999999999999
100,1.0,-0.008884,0.002281,0.023781999999999998,-0.021240000000000002,0.072144,-0.004608
101,1.01,-0.011261,0.018262999999999998,-0.0025769999999999994,-0.021240000000000002,0.068939,-0.004608
102,1.02,-0.018343,0.003386,0.031101,-0.021240000000000002,0.071075,-0.004608
103,1.03,-0.025521000000000002,0.0011280000000000025,-0.002084,-0.019104,0.068939,-0.004608
104,1.04,-0.023732000000000003,0.013611000000000002,0.031629000000000004,-0.018036,0.06681799999999999,-0.005661
105,1.05,-0.021551,-0.013743000000000002,-0.013914,-0.015915000000000002,0.068939,-0.006729000000000001
106,1.06,-0.040836000000000004,-0.003771,0.002703999999999998,-0.018036,0.067871,-0.006729000000000001
107,1.07,-0.026810000000000004,-0.01598,-0.054203999999999995,-0.014846999999999999,0.070007,-0.005661
108,1.08,0.000595,0.0039299999999999995,-0.0013709999999999972,-0.018036,0.068939,-0.004608
109,1.09,0.011311,0.011238,-0.026295,-0.016983,0.064682,-0.0035399999999999997
110,1.1,0.011984999999999999,0.006806,0.008383999999999999,-0.015915000000000002,0.06575,-0.004608
111,1.11,0.028463,-0.035384,-0.002287,-0.014846999999999999,0.060425,-0.002472
112,1.12,0.023881,-0.022663,0.036363,-0.013779,0.05722000000000001,-0.002472
113,1.13,0.072367,-0.012667,-0.023883,-0.014846999999999999,0.051895000000000004,-0.0014039999999999999
114,1.14,0.056612,-0.013993,-0.028895,-0.016983,0.050827,-0.00033599999999999993
115,1.15,0.07774,-0.004607,-0.01863,-0.021240000000000002,0.047638,-0.00033599999999999993
116,1.16,0.077696,0.012328,-0.034194,-0.019104,0.044449,0.000717
117,1.17,0.083819,-0.0032699999999999986,-0.039932999999999996,-0.022308,0.044449,-0.0014039999999999999
118,1.18,0.051601,-0.033171,-0.038028,-0.024429,0.043381,-0.002472
119,1.19,0.025858999999999997,-0.016965,-0.04124,-0.025497,0.041245,-0.005661
120,1.2,0.041187,-0.041617,-0.082603,-0.029755,0.040175999999999996,-0.0035399999999999997
121,1.21,0.0021080000000000005,-0.017495,-0.06074500000000001,-0.031891,0.038055,-0.005661
122,1.22,0.0060420000000000005,-0.012463,-0.037186000000000004,-0.03508,0.039124,-0.004608
123,1.23,-0.013795000000000002,-0.026085000000000004,-0.022393,-0.036148,0.036987,-0.006729000000000001
124,1.24,-0.012005,0.026823000000000003,-0.031869,-0.038284,0.033783,-0.004608
125,1.25,-0.0034730000000000004,0.017566,-0.030906,-0.037216,0.03273,-0.004608
126,1.26,0.004625000000000001,0.007701000000000001,0.00852,-0.034026999999999995,0.03273,-0.0035399999999999997
127,1.27,0.06591,0.0032540000000000017,0.008186000000000002,-0.031891,0.025269,-0.0035399999999999997
128,1.28,0.040569,-0.005178,0.03233599999999999,-0.031891,0.0242,-0.002472
129,1.29,0.041806,0.017351,-0.027582,-0.031891,0.021011000000000002,-0.0035399999999999997
130,1.3,0.065466,0.0008449999999999985,-0.020779,-0.034026999999999995,0.021011000000000002,-0.004608
131,1.31,0.041922,-0.005095000000000001,-0.071892,-0.037216,0.018875,-0.0014039999999999999
132,1.32,0.040285,0.013783000000000002,-0.071438,-0.038284,0.015686000000000002,-0.0035399999999999997
133,1.33,0.002915,0.033162000000000004,-0.054621,-0.039352,0.01355,-0.00354
134,1.34,0.021737,0.00731,-0.017569999999999995,-0.03508,0.010361,-0.002472
135,1.35,0.002134,0.032496,-0.024340999999999998,-0.029755,0.009293000000000001,0.000717
136,1.36,0.006589,0.0046890000000000005,-0.06693400000000001,-0.029755,0.003967,0.003922
137,1.37,0.0013160000000000012,0.016403000000000008,-0.056974000000000004,-0.026566000000000003,0.000763,0.002853
138,1.38,-0.009016,0.058628,-0.100643,-0.024429,0.0028989999999999997,0.00499
139,1.39,-0.035366,0.030157,-0.075089,-0.020172,0.001831,0.006058
140,1.4,0.009033,0.057352999999999994,-0.083097,-0.016983,0.001831,0.006058
141,1.41,0.0072510000000000005,-0.004993999999999998,-0.052238,-0.013779,0.0028989999999999997,0.006058
142,1.42,-0.00017599999999999907,-0.033613,-0.098415,-0.012711,0.003967,0.000717
143,1.43,0.0002139999999999989,-0.040996,-0.0854,-0.014846999999999999,0.0028989999999999997,-0.002472
144,1.44,-0.017152,-0.035911,-0.063618,-0.015915000000000002,0.003967,-0.0035399999999999997
145,1.45,-0.013884,-0.014977,-0.085954,-0.018036,0.001831,-0.00033599999999999993
146,1.46,-0.006305999999999999,-0.0033950000000000004,-0.042575,-0.019104,0.000763,-0.002472
147,1.47,0.03959,0.058984,-0.039789,-0.019104,-0.002426,0.003922
148,1.48,0.046616000000000005,0.008369999999999999,-0.017519999999999997,-0.018036,-0.00563,0.002853
149,1.49,0.032436,0.009529000000000001,-0.019977,-0.018036,-0.007751000000000001,0.003922
150,1.5,0.068191,0.008526,-0.020891999999999997,-0.021240000000000002,-0.010956,0.003922
151,1.51,0.040589,-0.041343,-0.016217,-0.025497,-0.010956,0.0017850000000000001
152,1.52,0.032237,-0.021075,-0.015096,-0.023361,-0.010956,0.003922
153,1.53,0.012854999999999998,-0.002627,0.007040999999999999,-0.027634,-0.010956,0.002853
154,1.54,0.015712,-0.016256,-0.0037119999999999996,-0.026566000000000003,-0.007751000000000001,0.002853
155,1.55,0.009818,-0.02638,-0.014193999999999997,-0.026566000000000003,-0.009888,0.002853
156,1.56,-0.011736,-0.023658000000000002,-0.019745,-0.025497,-0.007751000000000001,0.000717
157,1.57,-0.007895000000000001,-0.037002,-0.022359,-0.026566000000000003,-0.006683,-0.0014039999999999999
158,1.58,-0.007281999999999999,-0.044322,-0.038156999999999996,-0.028702,-0.009888,-0.0014039999999999999
159,1.59,-0.027199,-0.025988999999999998,-0.012977000000000002,-0.030823000000000003,-0.00882,-0.00033599999999999993
160,1.6,-0.013253999999999998,-0.022625,-0.030882999999999997,-0.034026999999999995,-0.00563,-0.00033599999999999993
161,1.61,-0.031411,-0.017433,-0.050621,-0.037216,-0.002426,-0.000336
162,1.62,-0.015448999999999997,-0.015345,-0.039471,-0.040405,-0.001358,-0.000336
163,1.63,-0.004245000000000007,0.012713000000000002,-0.046332,-0.042542,-0.000305,-0.000336
164,1.64,0.029954,-0.008075999999999998,-0.046268000000000004,-0.044677999999999995,0.0028989999999999997,0.0017850000000000001
165,1.65,0.040587,0.015891999999999996,-0.057003,-0.045745999999999995,0.003967,0.0017850000000000001
166,1.66,0.085792,0.005147999999999999,-0.081211,-0.044677999999999995,0.001831,0.0007170000000000003
167,1.67,0.090128,0.019941999999999998,-0.054664,-0.044677999999999995,-0.002426,0.002853
168,1.68,0.0809,0.031627999999999996,-0.062264,-0.041473,0.000763,0.000717
169,1.69,0.065583,0.006048,-0.068236,-0.041473,-0.001358,0.0017850000000000001
170,1.7,0.089785,0.0047799999999999995,-0.07560900000000001,-0.038284,-0.002426,0.002853
171,1.71,0.052217999999999994,-0.022514,-0.091199,-0.039352,-0.0034939999999999997,0.003922
172,1.72,0.05745599999999999,0.004518,-0.09336599999999999,-0.041473,-0.00563,0.002853
173,1.73,0.049227999999999994,-0.029713999999999997,-0.117825,-0.04361,-0.002426,0.0017850000000000001
174,1.74,0.051327,-0.017637,-0.14160699999999998,-0.047867,-0.0013580000000000005,-0.0003359999999999995
175,1.75,0.008295000000000005,-0.026581999999999998,-0.144183,-0.051071,-0.001358,0.000717
176,1.76,0.018297,-0.05494099999999999,-0.16247999999999999,-0.057449,-0.00030499999999999993,-0.002472
177,1.77,0.016026,-0.018435,-0.12846,-0.059586,0.005035,-0.0035399999999999997
178,1.78,0.013887,-0.0011339999999999994,-0.118059,-0.061722000000000006,0.010361,-0.002472
179,1.79,0.034618,0.010440999999999999,-0.10799500000000001,-0.06279,0.017807,-0.0035399999999999997
180,1.8,0.03441,0.031957,-0.13178399999999998,-0.061722000000000006,0.019943000000000002,-0.005661
181,1.81,0.025325,0.020554,-0.096313,-0.064911,0.022078999999999998,-0.006729000000000001
182,1.82,0.050622,0.06156200000000001,-0.086725,-0.06279,0.0242,-0.0035399999999999997
183,1.83,0.039507,0.041056,-0.07248099999999999,-0.061722000000000006,0.026337,-0.005661
184,1.84,0.081854,0.044095,-0.073719,-0.05851699999999999,0.027405000000000002,-0.006729000000000001
185,1.85,0.06131,0.027693000000000002,-0.080456,-0.056396,0.026337,-0.005661
186,1.86,0.049674,0.022238,-0.10601500000000001,-0.056396,0.029526,-0.007797
187,1.87,0.09485,0.022135,-0.130854,-0.055327999999999995,0.026337,-0.005661
188,1.88,0.06718400000000001,0.03044,-0.09551,-0.056396,0.029526,-0.004608
189,1.89,0.031188,0.002017,-0.089421,-0.05851699999999999,0.029526,-0.008865000000000001
190,1.9,0.052338,0.002318,-0.095898,-0.057449,0.031662,-0.006729000000000001
191,1.91,0.042556000000000004,-0.010384000000000001,-0.10014400000000001,-0.060654,0.030594,-0.005661
192,1.92,0.06135,0.023435,-0.04149499999999999,-0.060654,0.034851,-0.006729000000000001
193,1.93,0.058041999999999996,0.056714999999999995,-0.0014230000000000009,-0.065979,0.033783,-0.008865000000000001
194,1.94,0.07244400000000001,0.046875,0.005659,-0.069168,0.031662,-0.012054
195,1.95,0.065946,0.08217,0.082129,-0.07662999999999999,0.0242,-0.012054
196,1.96,0.11453599999999999,0.079337,0.162597,-0.08728,0.016738999999999997,-0.009932999999999999
197,1.97,0.165848,0.06426799999999999,0.22252199999999997,-0.092606,0.015686000000000002,-0.008865000000000001
198,1.98,0.175019,-0.007191,0.235698,-0.09153700000000001,0.01355,-0.006729000000000001
199,1.99,0.172315,-0.009912000000000002,0.206298,-0.084091,0.016738999999999997,-0.006729000000000001
200,2.0,0.104653,0.024752000000000003,0.13739500000000002,-0.075562,0.010361,-0.008865000000000001
201,2.01,0.008888,0.027411,0.078818,-0.07449299999999999,0.011414,-0.009932999999999999
202,2.02,-0.053012000000000004,0.073115,0.029462000000000002,-0.07662999999999999,0.017807,-0.006729000000000001
203,2.03,-0.145957,0.12350499999999999,0.114819,-0.086212,0.035919,-0.0035399999999999997
204,2.04,-0.213556,0.1848,0.14860299999999999,-0.104324,0.044449,-0.0003360000000000004
205,2.05,-0.264394,0.176892,0.208218,-0.121368,0.054030999999999996,0.010315000000000001
206,2.06,-0.30735100000000004,0.136229,0.262387,-0.129898,0.06149299999999999,0.012436
207,2.07,-0.267917,0.042663,0.269262,-0.125641,0.06575,0.017761000000000002
208,2.08,-0.20527399999999998,-0.05903200000000001,0.257851,-0.11817899999999999,0.068939,0.020966
209,2.09,-0.09222000000000001,-0.200021,0.17068599999999998,-0.112854,0.070007,0.017761000000000002
210,2.1,-0.019249000000000002,-0.24517199999999997,0.093698,-0.108597,0.074265,0.014572
211,2.11,0.072781,-0.288979,0.03597,-0.111786,0.074265,0.006058
212,2.12,0.149292,-0.256678,0.060572,-0.1203,0.074265,-0.0003360000000000001
213,2.13,0.200426,-0.251826,0.045505000000000004,-0.129898,0.073212,-0.006729000000000001
214,2.14,0.232667,-0.197963,0.084009,-0.12883,0.073212,-0.01738
215,2.15,0.16206700000000002,-0.168824,0.111802,-0.125641,0.072144,-0.030167000000000003
216,2.16,0.16686800000000002,-0.162699,0.101132,-0.11392200000000001,0.070007,-0.044022000000000006
217,2.17,0.087926,-0.182446,0.097807,-0.107529,0.064682,-0.05574
218,2.18,-0.009651999999999999,-0.180248,0.09463400000000001,-0.101135,0.056167999999999996,-0.072784
219,2.19,-0.018272,-0.230854,0.069172,-0.090485,0.042312999999999996,-0.082367
220,2.2,-0.077106,-0.244483,0.063599,-0.083023,0.035919,-0.08876
221,2.21,-0.11559000000000001,-0.219379,0.014127,-0.075562,0.028457999999999997,-0.08876
222,2.22,-0.16291,-0.136419,-0.012819,-0.072372,0.026337,-0.081299
223,2.23,-0.248121,-0.06508,-0.042270999999999996,-0.068115,0.029526,-0.077042
224,2.24,-0.31999299999999997,-0.005320999999999999,-0.068205,-0.06279,0.033783,-0.070648
225,2.25,-0.41886599999999996,0.057819,-0.020349000000000003,-0.061722000000000006,0.039124,-0.06639099999999999
226,2.26,-0.5094810000000001,0.101596,-0.040815,-0.05426,0.052962999999999996,-0.061065999999999995
227,2.27,-0.5719989999999999,0.10691099999999999,-0.017034999999999998,-0.047867,0.072144,-0.062134
228,2.28,-0.55353,0.09528400000000001,-0.047419,-0.037216,0.09877000000000001,-0.065323
229,2.29,-0.514495,0.072639,-0.076008,-0.023361,0.12114000000000001,-0.06957999999999999
230,2.3,-0.492888,0.093473,-0.186054,-0.014846999999999999,0.146713,-0.068512
231,2.31,-0.474,0.056216999999999996,-0.24814099999999997,-0.011658,0.168015,-0.067459
232,2.32,-0.46759799999999996,0.019761,-0.28836999999999996,-0.016983,0.179733,-0.056792999999999996
233,2.33,-0.512961,0.042845,-0.27727399999999996,-0.034026999999999995,0.186127,-0.042953
234,2.34,-0.479412,4.80000000000003e-05,-0.256621,-0.051071,0.187195,-0.022705
235,2.35,-0.44144300000000003,-0.073949,-0.147252,-0.064911,0.186127,-0.0003359999999999995
236,2.36,-0.335983,-0.124752,-0.08999299999999999,-0.07662999999999999,0.186127,0.01564
237,2.37,-0.281669,-0.179418,-0.061444000000000006,-0.079834,0.185059,0.033752
238,2.38,-0.21681199999999998,-0.18437699999999999,-0.04414,-0.075562,0.186127,0.040146
239,2.39,-0.148862,-0.153666,-0.030826999999999997,-0.065979,0.18399000000000001,0.041199
240,2.4,-0.051583000000000004,-0.061785000000000014,-0.081933,-0.051071,0.182922,0.03801
241,2.41,0.028880000000000006,0.06007700000000001,-0.10491900000000001,-0.041473,0.180801,0.029480000000000003
242,2.42,0.097373,0.16406199999999999,-0.104228,-0.032958999999999995,0.182922,0.019897
243,2.43,0.189474,0.25390999999999997,-0.062464,-0.026566000000000003,0.187195,0.010315000000000001
244,2.44,0.127366,0.350471,-0.053366,-0.015915000000000002,0.196777,-0.002472
245,2.45,0.070401,0.38498899999999997,-0.078395,-0.004196000000000001,0.204239,-0.006729000000000001
246,2.46,-0.026301,0.310934,-0.14626,0.010727,0.213821,-0.012054
247,2.47,-0.11833900000000001,0.211073,-0.183352,0.023499000000000003,0.213821,-0.013123
248,2.48,-0.18528699999999998,0.180555,-0.30639,0.035217,0.209564,-0.012054
249,2.49,-0.19153399999999998,0.158886,-0.400714,0.042679,0.198914,-0.007797
250,2.5,-0.180809,0.116901,-0.490137,0.048004000000000005,0.179733,-0.0035399999999999997
251,2.51,-0.11371099999999999,0.12232,-0.488338,0.03949,0.157364,0.0017850000000000001
252,2.52,0.07389500000000003,0.15155,-0.43320600000000004,0.017105000000000002,0.130722,-0.006729000000000001
253,2.53,0.18947999999999998,0.174371,-0.379542,-0.0009919999999999998,0.123276,-0.016327
254,2.54,0.282682,0.173449,-0.31329,-0.009521,0.112625,-0.034424
255,2.55,0.332325,0.159525,-0.27442300000000003,-0.019104,0.1073,-0.050414999999999995
256,2.56,0.33224000000000004,0.15462599999999999,-0.24013800000000002,-0.021240000000000002,0.10409500000000001,-0.071716
257,2.57,0.299379,0.11678699999999999,-0.241601,-0.018036,0.10835299999999999,-0.08982799999999999
258,2.58,0.17690899999999998,0.105873,-0.27517199999999997,-0.015915000000000002,0.114746,-0.113266
259,2.59,-0.051856999999999986,0.088837,-0.287802,-0.012711,0.13606300000000002,-0.13989300000000002
260,2.6,-0.226498,0.08083,-0.299158,-0.01059,0.157364,-0.152679
261,2.61,-0.367744,0.092537,-0.37506100000000003,-0.012711,0.179733,-0.162262
262,2.62,-0.47278400000000004,0.049951999999999996,-0.40807,-0.015915000000000002,0.203171,-0.165451
263,2.63,-0.575789,0.005734999999999997,-0.44236000000000003,-0.013779,0.233002,-0.16333
264,2.64,-0.595694,0.005926,-0.472804,-0.015915000000000002,0.25109899999999996,-0.156937
265,2.65,-0.58672,-0.011709999999999998,-0.49250200000000005,-0.016983,0.26921100000000003,-0.14735399999999998
266,2.66,-0.520935,-0.037687,-0.558705,-0.016983,0.284134,-0.138824
267,2.67,-0.45997299999999997,-0.010986,-0.595973,-0.015915000000000002,0.29478499999999996,-0.133499
268,2.68,-0.382608,0.043774,-0.637352,-0.018036,0.30223099999999997,-0.128174
269,2.69,-0.282317,0.037029,-0.707125,-0.026566000000000003,0.305435,-0.127106
270,2.7,-0.21073699999999998,0.041208999999999996,-0.6645760000000001,-0.031891,0.309692,-0.12178
271,2.71,-0.14673599999999998,0.062308,-0.6370899999999999,-0.039352,0.31395,-0.11645499999999999
272,2.72,-0.06888899999999999,0.041101,-0.646366,-0.050003,0.321411,-0.113266
273,2.73,-0.012554000000000001,0.02072,-0.63573,-0.053191999999999996,0.32566799999999996,-0.113266
274,2.74,0.032323000000000005,0.00594,-0.654961,-0.060654,0.322479,-0.11538699999999999
275,2.75,0.01705,-0.033157,-0.708677,-0.064911,0.309692,-0.113266
276,2.76,0.039004000000000004,-0.014711000000000004,-0.722557,-0.070236,0.293716,-0.113266
277,2.77,0.05987000000000001,0.049883,-0.7305520000000001,-0.077698,0.270279,-0.11112999999999999
278,2.78,0.111883,0.075644,-0.72488,-0.084091,0.24684099999999998,-0.106873
279,2.79,0.104821,0.180375,-0.749238,-0.09153700000000001,0.22021500000000002,-0.101547
280,2.8,0.118305,0.233539,-0.766242,-0.09581,0.190384,-0.08876
281,2.81,0.101936,0.296149,-0.814315,-0.09581,0.159485,-0.079178
282,2.82,0.11809800000000001,0.303035,-0.902328,-0.09581,0.125397,-0.06957999999999999
283,2.83,0.154847,0.279413,-0.968743,-0.09581,0.091309,-0.062134
284,2.84,0.20317000000000002,0.200324,-1.013658,-0.09793099999999999,0.055099,-0.056792999999999996
285,2.85,0.333741,0.12336300000000001,-1.112316,-0.10539200000000001,0.0242,-0.049347
286,2.86,0.341645,0.068787,-1.208849,-0.108597,-0.006683,-0.047211
287,2.87,0.428629,0.024624,-1.277678,-0.114975,-0.032257,-0.041885000000000006
288,2.88,0.49036,-0.020445999999999992,-1.4391260000000001,-0.12243699999999999,-0.054626,-0.044022000000000006
289,2.89,0.468983,-0.013732,-1.519968,-0.134155,-0.07699600000000001,-0.044022000000000006
290,2.9,0.468029,-0.053898,-1.564484,-0.150131,-0.089783,-0.041885000000000006
291,2.91,0.392658,-0.046947,-1.628563,-0.17038,-0.096176,-0.040817
292,2.92,0.257813,-0.002011000000000006,-1.629765,-0.17996199999999998,-0.09404,-0.039749
293,2.93,0.135318,0.043577999999999985,-1.683114,-0.189545,-0.088715,-0.039749
294,2.94,0.01142,0.107152,-1.705948,-0.19381700000000002,-0.083389,-0.040817
295,2.95,-0.142124,0.163418,-1.716148,-0.192749,-0.07699600000000001,-0.037627999999999995
296,2.96,-0.208196,0.159622,-1.7244490000000001,-0.183151,-0.071671,-0.025908999999999998
297,2.97,-0.178227,0.186557,-1.7964630000000001,-0.169312,-0.07380700000000001,-0.009932999999999999
298,2.98,-0.144793,0.196319,-1.82625,-0.152267,-0.078064,0.011382999999999999
299,2.99,-0.08104199999999999,0.219862,-1.8868599999999998,-0.13308699999999998,-0.078064,0.036942
300,3.0,0.031292000000000014,0.151555,-1.980657,-0.1203,-0.084457,0.063568
301,3.01,0.12751800000000002,0.08002999999999999,-2.131504,-0.10646099999999999,-0.09724400000000001,0.088074
302,3.02,0.23765100000000003,-0.03161,-2.236789,-0.09474199999999999,-0.118546,0.117905
303,3.03,0.284279,-0.07446900000000001,-2.263403,-0.089417,-0.13877899999999999,0.148788
304,3.04,0.262438,-0.054564999999999995,-2.239554,-0.089417,-0.152634,0.172226
305,3.05,0.250374,0.166409,-2.151581,-0.111786,-0.17393499999999998,0.171173
306,3.06,0.327574,0.558737,-1.896381,-0.158661,-0.196304,0.158386
307,3.07,0.430648,0.9761290000000001,-1.5298379999999998,-0.223633,-0.203766,0.130692
308,3.08,0.391457,1.231645,-1.07356,-0.287552,-0.18246500000000002,0.108322
309,3.09,0.324563,1.311302,-0.680547,-0.314178,-0.129196,0.091278
310,3.1,0.22502199999999997,1.298246,-0.284503,-0.302475,-0.056763,0.062515
311,3.11,0.269208,1.29296,-0.017250000000000015,-0.26518200000000003,0.021011000000000002,0.023102000000000004
312,3.12,0.34436700000000003,1.230919,0.225595,-0.21086100000000002,0.08812,-0.023773
313,3.13,0.39679899999999996,1.222338,0.25205900000000003,-0.139481,0.152039,-0.070648
314,3.14,0.366541,1.21496,0.207958,-0.06279,0.199966,-0.110062
315,3.15,0.326265,1.3050540000000002,0.26861,0.0011290000000000015,0.23725900000000003,-0.160126
316,3.16,0.271443,1.251581,0.42328599999999994,0.041611,0.266022,-0.211258
317,3.17,0.216481,1.163257,0.696852,0.058655,0.274536,-0.279434
318,3.18,-0.07781600000000001,1.159569,0.89612,0.060791,0.26709,-0.35827600000000004
319,3.19,0.065828,1.025248,1.170058,0.062912,0.25856,-0.439224
320,3.2,0.047189,0.630586,1.277937,0.06504800000000001,0.233002,-0.502075
321,3.21,-0.18685,0.190859,1.208834,0.086349,0.155228,-0.51593
322,3.22,-0.336586,-0.300413,1.2468190000000001,0.123642,0.070007,-0.465866
323,3.23,-0.23770500000000003,-0.595067,1.272214,0.165176,-0.015213000000000003,-0.384903
324,3.24,-0.079407,-0.7981659999999999,1.154556,0.197144,-0.108963,-0.286896
325,3.25,0.107824,-0.8960739999999999,1.100288,0.220581,-0.186722,-0.18144200000000002
326,3.26,0.22913899999999998,-0.8426170000000001,1.030476,0.22376999999999997,-0.22932399999999997,-0.08982799999999999
327,3.27,0.27973400000000004,-0.497888,0.961025,0.20565799999999998,-0.21548499999999998,0.014572
328,3.28,0.20294500000000001,-0.28413299999999997,0.941426,0.188614,-0.17393499999999998,0.058242999999999996
329,3.29,0.06206500000000001,-0.112947,0.908092,0.166245,-0.131332,0.08167999999999999
330,3.3,-0.08580700000000001,-0.09942100000000001,0.864866,0.147079,-0.088715,0.082748
331,3.31,-0.278482,-0.155971,0.866297,0.131088,-0.057816,0.083817
332,3.32,-0.48371899999999995,-0.22592399999999999,0.8270799999999999,0.127899,-0.030121,0.093399
333,3.33,-0.702641,-0.210641,0.7771520000000001,0.141754,0.0028990000000000005,0.113647
334,3.34,-0.783066,-0.318361,0.692645,0.15773,0.022078999999999998,0.148788
335,3.35,-0.732518,-0.451326,0.5510430000000001,0.170517,0.028457999999999997,0.190338
336,3.36,-0.652791,-0.654758,0.475629,0.174774,0.015686000000000002,0.232956
337,3.37,-0.46260500000000004,-0.8165,0.351197,0.172638,-0.00882,0.276627
338,3.38,-0.204226,-0.966558,0.26809,0.172638,-0.034393,0.317108
339,3.39,0.097724,-1.084674,0.191077,0.181168,-0.058884000000000006,0.34906
340,3.4,0.474067,-1.199243,0.08895,0.19927999999999998,-0.08125299999999999,0.372498
341,3.41,0.861038,-1.2185290000000002,0.010411999999999998,0.202469,-0.10575899999999999,0.378891
342,3.42,1.134781,-1.174065,-0.014907,0.19075,-0.118546,0.371429
343,3.43,1.32979,-0.960052,0.002965,0.170517,-0.132385,0.348007
344,3.44,1.407167,-0.684697,-0.003171,0.13536099999999998,-0.143051,0.314972
345,3.45,1.406716,-0.40838,0.142764,0.09274299999999999,-0.148376,0.280884
346,3.46,1.286266,-0.100036,0.389419,0.049072000000000005,-0.134521,0.244675
347,3.47,0.991145,0.075821,0.571079,0.016052,-0.10682699999999999,0.21270799999999998
348,3.48,0.58557,0.105276,0.657474,0.0064540000000000005,-0.07380700000000001,0.17543
349,3.49,0.137133,0.07658200000000001,0.730709,0.021378,-0.048233,0.15199300000000002
350,3.5,-0.23378000000000002,-0.030318000000000005,0.607777,0.055465999999999994,-0.029068,0.134949
351,3.51,-0.482337,-0.16655999999999999,0.398991,0.099136,-0.015212999999999999,0.14240999999999998
352,3.52,-0.58496,-0.278908,0.14616600000000002,0.14494300000000002,0.003967,0.170105
353,3.53,-0.596488,-0.338001,-0.12130000000000005,0.18649300000000002,0.021011000000000002,0.204193
354,3.54,-0.510224,-0.304998,-0.35602399999999995,0.217377,0.03273,0.23081999999999997
355,3.55,-0.42055600000000004,-0.16808599999999999,-0.6603439999999999,0.244019,0.033783,0.247864
356,3.56,-0.27247899999999997,-0.010901000000000008,-0.7898029999999999,0.26318400000000003,0.038055,0.25
357,3.57,-0.057994999999999984,0.12113299999999999,-0.8849870000000001,0.281296,0.055099,0.24679600000000002
358,3.58,0.175342,0.17388399999999998,-0.979548,0.28875700000000004,0.07959,0.235077
359,3.59,0.399908,0.139872,-1.1138940000000002,0.296219,0.103027,0.21698
360,3.6,0.608025,0.217654,-1.283198,0.300476,0.120071,0.19886800000000002
361,3.61,0.766221,0.38540599999999997,-1.416246,0.30899,0.13179000000000002,0.181824
362,3.62,0.8330629999999999,0.48753500000000005,-1.4557309999999999,0.314316,0.15097,0.166901
363,3.63,0.797983,0.531611,-1.485239,0.311127,0.182922,0.15625
364,3.64,0.749232,0.525605,-1.493026,0.30580100000000005,0.22021500000000002,0.153061
365,3.65,0.666578,0.42481199999999997,-1.506716,0.301544,0.234055,0.15199300000000002
366,3.66,0.5147430000000001,0.370641,-1.418218,0.287689,0.243652,0.161575
367,3.67,0.420559,0.24225300000000002,-1.385491,0.27597,0.255371,0.17543
368,3.68,0.448978,0.128295,-1.281245,0.26318400000000003,0.25856,0.190338
369,3.69,0.438565,0.066273,-1.167548,0.262115,0.253235,0.19886800000000002
370,3.7,0.392716,0.005514000000000002,-1.149842,0.277039,0.23938,0.202057
371,3.71,0.413346,-0.013575,-1.1652129999999998,0.301544,0.21275300000000003,0.203125
372,3.72,0.440399,-0.092624,-1.1307639999999999,0.32603499999999996,0.182922,0.1978
373,3.73,0.5034609999999999,-0.191269,-1.025303,0.330307,0.15416,0.19459500000000002
374,3.74,0.545509,-0.34479,-0.824326,0.30580100000000005,0.114746,0.1978
375,3.75,0.487655,-0.274621,-0.557539,0.237625,0.074265,0.211639
376,3.76,0.333809,0.038390000000000014,-0.07597399999999999,0.131088,0.05722000000000001,0.25
377,3.77,0.020192000000000012,0.371283,0.4945959999999999,0.0043330000000000035,0.040175999999999996,0.301132
378,3.78,-0.189021,0.8592350000000001,1.2563090000000001,-0.12243699999999999,0.025269,0.377823
379,3.79,-0.242193,1.137657,2.039416,-0.208725,-0.00563,0.45665
380,3.8,-0.46024799999999993,1.128592,2.8598689999999998,-0.263046,-0.056763,0.5578609999999999
381,3.81,-0.5634279999999999,1.004313,3.5764669999999996,-0.259857,-0.035446,0.6739649999999999
382,3.82,-0.8295520000000001,0.455617,3.8122809999999996,-0.165054,0.08065800000000001,0.742142
383,3.83,-1.403937,-0.13280899999999998,3.51442,-0.0031280000000000053,0.19252,0.757065
384,3.84,-2.053085,-0.522649,2.80269,0.163055,0.26709,0.711258
385,3.85,-2.2632470000000002,-0.6725760000000001,2.027524,0.291946,0.29158,0.636688
386,3.86,-1.895302,-0.47346499999999997,1.3204770000000001,0.371841,0.288391,0.5397489999999999
387,3.87,-1.154064,0.07116200000000003,0.822832,0.384628,0.264954,0.43428
388,3.88,-0.32755500000000004,0.6922510000000001,0.636957,0.349472,0.24151599999999998,0.339478
389,3.89,0.519413,1.363831,0.841693,0.28875700000000004,0.238327,0.244675
390,3.9,1.313261,1.7439330000000002,1.200931,0.22697399999999998,0.23725900000000003,0.139206
391,3.91,1.859259,1.8919830000000002,1.491021,0.18756099999999998,0.223404,0.027358999999999998
392,3.92,2.040956,1.8828150000000001,1.578761,0.177963,0.205292,-0.09088099999999999
393,3.93,1.909993,1.595907,1.468348,0.181168,0.198914,-0.19528199999999998
394,3.94,1.508965,1.093022,1.299958,0.185425,0.210617,-0.285828
395,3.95,0.735384,0.520139,1.1028959999999999,0.196075,0.22979699999999997,-0.35720799999999997
396,3.96,-0.093291,-0.034420000000000006,0.78437,0.19927999999999998,0.23725900000000003,-0.39769
397,3.97,-0.8480860000000001,-0.583952,0.522861,0.196075,0.22447199999999998,-0.414734
398,3.98,-1.444799,-1.089267,0.269821,0.179031,0.213821,-0.405136
399,3.99,-1.859795,-1.520826,0.008337999999999998,0.147079,0.21489,-0.373184
400,4.0,-1.9758779999999998,-1.8027349999999998,-0.24046599999999999,0.10871900000000001,0.22447199999999998,-0.332703
401,4.01,-1.875218,-1.9328759999999998,-0.39924299999999996,0.054398,0.231934,-0.29328899999999997
402,4.02,-1.6432209999999998,-1.9743110000000001,-0.523532,-0.009521000000000002,0.23619099999999998,-0.26452600000000004
403,4.03,-1.371597,-1.9553740000000002,-0.671625,-0.07449299999999999,0.22979699999999997,-0.247482
404,4.04,-1.082946,-1.9020400000000002,-0.720997,-0.140549,0.20849600000000001,-0.243225
405,4.05,-0.848628,-1.81135,-0.70339,-0.21086100000000002,0.185059,-0.242157
406,4.06,-0.667491,-1.6887470000000002,-0.594187,-0.277969,0.171204,-0.23683200000000001
407,4.07,-0.5407649999999999,-1.411386,-0.44837,-0.331223,0.16375699999999999,-0.23576399999999997
408,4.08,-0.48777600000000004,-1.157765,-0.272316,-0.369583,0.165878,-0.22937
409,4.09,-0.466445,-0.8828729999999999,-0.199669,-0.377029,0.159485,-0.21446199999999999
410,4.1,-0.479652,-0.5541229999999999,-0.087805,-0.361053,0.146713,-0.193161
411,4.11,-0.5479999999999999,-0.321481,-0.094775,-0.314178,0.128601,-0.155869
412,4.12,-0.45483100000000004,-0.146848,-0.048379000000000005,-0.248138,0.099838,-0.12071199999999999
413,4.13,-0.41323699999999997,-0.045295999999999996,-0.122125,-0.172501,0.073212,-0.080231
414,4.14,-0.220207,0.048975,-0.144753,-0.090485,0.043381,-0.039749
415,4.15,-0.03404199999999999,0.19134600000000002,-0.17288800000000001,0.0021969999999999976,0.015686000000000002,-0.012054
416,4.16,0.102131,0.22192199999999998,-0.20787199999999997,0.10553,-0.006682999999999999,0.019897
417,4.17,0.22799299999999997,0.282393,-0.20814699999999997,0.217377,-0.018402,0.045471
418,4.18,0.106139,0.253279,-0.388892,0.37609899999999996,-0.016281,0.075287
419,4.19,-0.109378,0.047510000000000004,-0.5719850000000001,0.447479,-0.006683,0.08167999999999999
420,4.2,-0.26734,-0.292645,-0.951391,0.486893,0.000763,0.087006
421,4.21,-0.339779,-0.72447,-1.3392680000000001,0.49115,-0.0034939999999999997,0.096603
422,4.22,-0.272728,-0.9902569999999999,-1.619334,0.461334,-0.022675,0.113647
423,4.23,-0.06040000000000001,-0.996341,-1.757755,0.40593,-0.037582,0.117905
424,4.24,0.260719,-0.684684,-1.797404,0.328171,-0.053558,0.102997
425,4.25,0.615646,-0.361451,-1.7895580000000002,0.23655700000000002,-0.07486,0.056122000000000005
426,4.26,1.00084,0.102672,-1.7278310000000001,0.158798,-0.11428800000000001,-0.015259000000000003
427,4.27,1.304187,0.46093999999999996,-1.648082,0.09487899999999999,-0.167542,-0.095154
428,4.28,1.4834120000000002,0.647043,-1.476902,0.049072000000000005,-0.21228000000000002,-0.160126
429,4.29,1.534815,0.6626449999999999,-1.2285110000000001,0.014984,-0.24104299999999998,-0.198486
430,4.3,1.431114,0.548179,-1.029528,0.0032649999999999997,-0.271942,-0.21020500000000003
431,4.31,1.06637,0.481883,-0.9426399999999999,0.0054020000000000006,-0.304962,-0.201675
432,4.32,0.6949029999999999,0.5859800000000001,-0.876393,0.016052,-0.356094,-0.192093
433,4.33,0.5078020000000001,0.915,-0.829993,0.017105000000000002,-0.43066400000000005,-0.203812
434,4.34,0.5670149999999999,1.411087,-0.719442,6.100000000000029e-05,-0.5030979999999999,-0.23257399999999998
435,4.35,0.70186,1.8409779999999998,-0.55789,-0.021240000000000002,-0.559555,-0.26452600000000004
436,4.36,0.6759390000000001,2.200441,-0.393205,-0.012711,-0.5872649999999999,-0.287964
437,4.37,0.564078,2.2867319999999998,-0.139019,0.021378,-0.580872,-0.320984
438,4.38,0.08579300000000001,1.746404,0.5824239999999999,0.046936,-0.551041,-0.37744099999999997
439,4.39,-0.313067,1.557572,1.159417,0.035217,-0.523346,-0.41259799999999996
440,4.4,-0.242523,1.77995,1.547852,-0.0020599999999999998,-0.49883999999999995,-0.46479799999999993
441,4.41,-0.47102,2.096101,1.792979,-0.057449,-0.49777200000000005,-0.556412
442,4.42,-0.851193,1.867636,2.22249,-0.07449299999999999,-0.502045,-0.628845
443,4.43,-1.034386,1.003464,2.556273,-0.038284,-0.499908,-0.6650699999999999
444,4.44,-0.9550200000000001,-0.132351,2.693621,0.01178,-0.49883999999999995,-0.683182
445,4.45,-0.8860899999999999,-1.410512,2.515319,0.05014,-0.544647,-0.697021
446,4.46,-0.55055,-2.540162,2.1963220000000003,0.08316,-0.617081,-0.693832
447,4.47,-0.033141000000000004,-3.2715259999999997,1.654062,0.117249,-0.684204,-0.677856
448,4.48,0.4890669999999999,-3.151506,1.1137540000000001,0.1492,-0.712967,-0.628845
449,4.49,0.512568,-2.4042779999999997,0.628283,0.13003499999999998,-0.676743,-0.564926
450,4.5,0.100449,-1.245362,0.24733000000000002,0.044815,-0.5734100000000001,-0.478638
451,4.51,-0.41601000000000005,-0.18001100000000006,0.21809699999999999,-0.089417,-0.440247,-0.373184
452,4.52,-1.025965,0.854641,0.4975430000000001,-0.207657,-0.30284099999999997,-0.265594
453,4.53,-1.671486,1.663925,0.949377,-0.272644,-0.189911,-0.151611
454,4.54,-2.1890959999999997,2.18541,1.332093,-0.27050799999999997,-0.110016,-0.030167000000000003
455,4.55,-2.361182,2.374859,1.6855669999999998,-0.211914,-0.055695,0.108322
456,4.56,-2.267411,1.945228,1.9283290000000002,-0.126694,-0.004562,0.244675
457,4.57,-1.7887540000000002,1.18464,1.7207700000000001,-0.016982999999999998,0.011414,0.370377
458,4.58,-0.777303,0.127697,0.8929219999999999,0.122574,-0.066345,0.512054
459,4.59,0.06742399999999997,-0.456736,0.20214400000000005,0.183289,-0.129196,0.559982
460,4.6,0.858656,-0.9424819999999999,-0.34021999999999997,0.208862,-0.18565399999999999,0.565308
461,4.61,1.586949,-1.3949799999999999,-0.698245,0.203537,-0.226135,0.540817
462,4.62,2.059354,-1.87907,-0.929005,0.168381,-0.26873800000000003,0.481155
463,4.63,2.207825,-2.230037,-1.035376,0.09487899999999999,-0.301773,0.400192
464,4.64,2.120625,-2.462904,-1.003631,-0.005263999999999998,-0.327332,0.319244
465,4.65,1.855004,-2.483556,-0.984182,-0.11392200000000001,-0.340118,0.24572800000000003
466,4.66,1.544194,-2.151585,-0.912795,-0.21511799999999998,-0.352905,0.19354200000000002
467,4.67,1.121003,-1.412379,-0.688818,-0.32057199999999997,-0.377396,0.149857
468,4.68,0.820786,-0.9279629999999999,-0.502711,-0.36319,-0.373138,0.138138
469,4.69,0.617207,-0.556717,-0.290091,-0.378098,-0.346512,0.12322999999999999
470,4.7,0.476498,-0.271198,-0.133055,-0.36744699999999997,-0.312424,0.10405
471,4.71,0.297559,-0.13427,-0.025879000000000003,-0.329102,-0.27407800000000004,0.088074
472,4.72,0.127644,-0.040812,0.020166999999999997,-0.26411399999999996,-0.22080999999999998,0.075287
473,4.73,-0.08113299999999997,-0.069381,0.027576,-0.175705,-0.149429,0.073166
474,4.74,-0.248069,-0.071828,-0.103602,-0.069168,-0.087646,0.077423
475,4.75,-0.39961399999999997,-0.112375,-0.20933600000000002,0.051193,-0.041839999999999995,0.077423
476,4.76,-0.48035100000000003,-0.1533,-0.390144,0.165176,-0.016281,0.073166
477,4.77,-0.553529,-0.195574,-0.658365,0.26532,-0.003494,0.068893
478,4.78,-0.554083,-0.299026,-0.9182680000000001,0.329239,0.003967,0.069962
479,4.79,-0.343943,-0.462766,-1.197761,0.34201,0.003967,0.073166
480,4.8,-0.01183799999999996,-0.6359859999999999,-1.3778569999999999,0.321777,0.001831,0.069962
481,4.81,0.30703600000000003,-0.756662,-1.4170770000000001,0.26318400000000003,-0.00563,0.058242999999999996
482,4.82,0.461081,-0.677013,-1.460582,0.174774,-0.015212999999999999,0.043335000000000005
483,4.83,0.590846,-0.39562600000000003,-1.403708,0.07463099999999999,-0.012024,0.033752
484,4.84,0.628996,-0.004504000000000008,-1.3601809999999999,-0.008453000000000002,-0.007751000000000001,0.044403
485,4.85,0.506007,0.366172,-1.225754,-0.06704700000000001,-0.004562,0.07635499999999999
486,4.86,0.318017,0.577593,-1.028607,-0.098999,0.016738999999999997,0.112579
487,4.87,-0.111152,0.762632,-0.8896290000000001,-0.11604300000000001,0.051895000000000004,0.149857
488,4.88,-0.573216,0.9265129999999999,-0.760484,-0.11604300000000001,0.112625,0.186081
489,4.89,-0.887756,1.066714,-0.65217,-0.10539200000000001,0.19252,0.211639
490,4.9,-1.093004,1.186736,-0.629206,-0.084091,0.27774,0.228683
491,4.91,-1.160275,1.3951639999999998,-0.585828,-0.053191999999999996,0.340591,0.236145
492,4.92,-1.0317020000000001,1.688761,-0.535387,-0.019104,0.392776,0.231888
493,4.93,-0.8616020000000001,2.038716,-0.439833,-0.0052640000000000004,0.44924899999999995,0.231888
494,4.94,-0.757736,2.3228720000000003,-0.291173,-0.027634,0.53447,0.24147
495,4.95,-0.335572,2.2847169999999997,-0.030363,-0.056396,0.612228,0.25
496,4.96,0.21643099999999998,1.828173,0.341159,-0.06279,0.610092,0.267044
497,4.97,0.291975,1.3538620000000001,0.7641859999999999,-0.05851699999999999,0.561096,0.296875
498,4.98,0.48478699999999997,0.996401,1.080039,-0.068115,0.5099640000000001,0.346939
499,4.99,0.402501,0.702724,1.368861,-0.101135,0.46308900000000003,0.40126
500,5.0,0.284479,0.63112,1.758795,-0.182098,0.480133,0.468369
501,5.01,0.340997,0.474109,2.167129,-0.26731900000000003,0.568558,0.509918
502,5.02,0.223462,-0.03756399999999999,2.526049,-0.292877,0.6452479999999999,0.525894
503,5.03,-0.220856,-0.756954,2.920139,-0.261993,0.728348,0.5173800000000001
504,5.04,-0.8761549999999999,-1.586329,2.79802,-0.200195,0.8018489999999999,0.493942
505,5.05,-1.4715690000000001,-2.337498,2.3592169999999997,-0.130966,0.8391270000000001,0.482224
506,5.06,-1.691399,-2.72484,1.7044400000000002,-0.072372,0.82634,0.48754899999999995
507,5.07,-0.708431,-1.550419,0.490329,0.012848000000000002,0.659103,0.493942
508,5.08,-0.017062000000000018,-0.479655,0.09687,0.016052,0.5099640000000001,0.469437
509,5.09,0.599424,0.6010449999999999,0.10741600000000001,-0.011658,0.37468,0.418304
510,5.1,1.205125,1.403563,0.33663000000000004,-0.056396,0.273468,0.332016
511,5.11,1.794314,1.937359,0.731923,-0.09793099999999999,0.21595799999999998,0.214844
512,5.12,2.126777,2.157261,1.164881,-0.129898,0.189316,0.077423
513,5.13,2.2735,2.077271,1.438996,-0.12883,0.180801,-0.05574
514,5.14,2.181325,1.882275,1.727169,-0.09793099999999999,0.187195,-0.180374
515,5.15,1.7526830000000002,1.368148,1.871286,-0.048935000000000006,0.218079,-0.28476
516,5.16,1.051436,0.759212,1.806648,0.0075229999999999984,0.279861,-0.366791
517,5.17,0.229598,0.16785099999999992,1.450542,0.060791,0.334198,-0.41792299999999993
518,5.18,-0.6502859999999999,-0.4827590000000001,0.8064980000000002,0.11299100000000001,0.365082,-0.43710299999999996
519,5.19,-1.3733469999999999,-1.0043360000000001,0.155366,0.156662,0.373611,-0.425385
520,5.2,-1.904102,-1.4056629999999999,-0.42285600000000007,0.172638,0.375732,-0.38703899999999997
521,5.21,-2.211246,-1.7336049999999998,-0.803238,0.156662,0.381073,-0.344421
522,5.22,-2.26607,-1.922234,-0.9994799999999999,0.11511199999999999,0.386398,-0.30075100000000005
523,5.23,-2.107942,-1.956834,-1.086651,0.060791,0.386398,-0.259201
524,5.24,-1.7218240000000002,-1.890182,-1.119559,-0.009520999999999998,0.384262,-0.22724899999999998
525,5.25,-1.3126879999999999,-1.759005,-1.056476,-0.081955,0.384262,-0.20060699999999998
526,5.26,-0.8330770000000001,-1.5772709999999999,-1.024966,-0.152267,0.384262,-0.180374
527,5.27,-0.501497,-1.462974,-0.966087,-0.2034,0.37040700000000004,-0.165451
528,5.28,-0.22143400000000002,-1.308758,-0.9028430000000001,-0.235352,0.34910599999999997,-0.150543
529,5.29,-0.099764,-1.082932,-0.8542270000000001,-0.238556,0.323547,-0.136688
530,5.3,-0.047859,-0.811116,-0.8734049999999999,-0.225769,0.292648,-0.126038
531,5.31,-0.019070000000000004,-0.644732,-0.812304,-0.197006,0.245773,-0.100479
532,5.32,0.006636,-0.442409,-0.761376,-0.145874,0.195709,-0.071716
533,5.33,0.06631000000000001,-0.23491900000000002,-0.720426,-0.077698,0.145645,-0.035492
534,5.34,0.183677,-0.024462,-0.619663,0.014983999999999997,0.091309,0.006057999999999996
535,5.35,0.324905,0.102426,-0.57501,0.132156,0.029526,0.046524
536,5.36,0.485188,0.11769600000000001,-0.6103890000000001,0.25679,-0.032257,0.08167999999999999
537,5.37,0.662725,0.016505000000000006,-0.762161,0.366516,-0.086578,0.100861
538,5.38,0.674085,-0.251593,-0.9989459999999999,0.43150299999999997,-0.140915,0.11151099999999999
539,5.39,0.667009,-0.568823,-1.276029,0.44428999999999996,-0.17819200000000002,0.10618599999999999
540,5.4,0.68511,-0.803542,-1.554274,0.409134,-0.210159,0.092331
541,5.41,0.520476,-0.833987,-1.6982869999999999,0.337753,-0.21974200000000002,0.07849099999999999
542,5.42,0.39531700000000003,-0.6604909999999999,-1.704303,0.24827600000000002,-0.21548499999999998,0.064636
543,5.43,0.31704699999999997,-0.12710700000000005,-1.625001,0.164124,-0.198441,0.045471
544,5.44,0.349136,0.519941,-1.520017,0.089554,-0.181396,0.0017849999999999984
545,5.45,0.5103409999999999,1.004518,-1.3272620000000002,0.044815,-0.17286700000000002,-0.054672000000000005
546,5.46,0.7780739999999999,1.264402,-1.169689,0.034149,-0.18565399999999999,-0.11645499999999999
547,5.47,1.1698899999999999,1.321939,-1.026775,0.042679,-0.21228000000000002,-0.165451
548,5.48,1.52216,1.249484,-0.9465889999999999,0.051193,-0.25383,-0.192093
549,5.49,1.6924599999999999,1.1703629999999998,-0.8837790000000001,0.070374,-0.322006,-0.203812
550,5.5,1.7101110000000002,1.2901,-0.8522559999999999,0.09274299999999999,-0.405106,-0.216583
551,5.51,1.604495,1.429351,-0.782331,0.12150599999999999,-0.50737,-0.245346
552,5.52,1.696926,1.682616,-0.8233440000000001,0.133224,-0.617081,-0.279434
553,5.53,1.432274,1.914771,-0.707946,0.127899,-0.720413,-0.32311999999999996
554,5.54,0.793018,2.1608,-0.347016,0.106598,-0.772614,-0.37744099999999997
555,5.55,0.20188499999999998,2.483131,0.435906,0.045868,-0.753433,-0.46159399999999995
556,5.56,0.25264899999999996,2.52365,1.282877,-0.056396000000000016,-0.695923,-0.5521550000000001
557,5.57,0.360089,2.732129,1.989598,-0.144806,-0.6905819999999999,-0.616058
558,5.58,0.12073299999999998,2.760067,2.33924,-0.152267,-0.706573,-0.669327
559,5.59,0.038738,2.0173669999999997,2.712518,-0.068115,-0.719345,-0.655472
560,5.6,0.016052,0.767212,2.946837,0.033096000000000014,-0.732132,-0.60968
561,5.61,-0.168986,-0.755374,2.79717,0.109787,-0.80777,-0.55748
562,5.62,-0.280738,-2.2958369999999997,2.5517060000000003,0.13536099999999998,-0.9387969999999999,-0.512741
563,5.63,-0.44100100000000003,-3.355984,2.1819889999999997,0.123642,-1.051712,-0.49675
564,5.64,-0.592037,-3.817974,1.777953,0.10446199999999999,-1.1209559999999998,-0.507401
565,5.65,-0.789602,-3.473014,1.31999,0.081024,-1.136932,-0.525513
566,5.66,-1.060042,-2.613912,0.898934,0.043747,-1.077286,-0.523392
567,5.67,-1.3582450000000001,-1.405483,0.5872609999999999,-0.011658000000000002,-0.9558409999999999,-0.49356099999999997
568,5.68,-1.610121,-0.282114,0.5358609999999999,-0.085159,-0.7960510000000001,-0.42645299999999997
569,5.69,-1.889687,0.7258260000000001,0.720072,-0.156525,-0.62561,-0.315659
570,5.7,-2.1687119999999998,1.341084,1.0753620000000002,-0.195938,-0.45623800000000003,-0.184631
571,5.71,-2.161322,1.5675379999999999,1.353115,-0.186356,-0.310287,-0.048279
572,5.72,-2.133511,1.4616799999999999,1.537102,-0.135223,-0.21974200000000002,0.07209799999999998
573,5.73,-2.099791,1.200256,1.540485,-0.070236,-0.17393499999999998,0.18927
574,5.74,-1.7950220000000001,0.825435,1.3299889999999999,-0.0041959999999999975,-0.156891,0.294739
575,5.75,-1.1838819999999999,0.424363,1.103148,0.053328999999999994,-0.175003,0.389542
576,5.76,-0.33721,0.132294,0.8034140000000001,0.10871900000000001,-0.21655300000000002,0.454529
577,5.77,0.549902,-0.15134,0.47329799999999994,0.169449,-0.283661,0.493942
578,5.78,1.414456,-0.382289,0.18777,0.229095,-0.366745,0.5056609999999999
579,5.79,2.1288720000000003,-0.6392180000000001,-0.06523999999999999,0.26532,-0.44238299999999997,0.48754899999999995
580,5.8,2.593798,-0.9641040000000001,-0.222469,0.273834,-0.49883999999999995,0.447067
581,5.81,2.65273,-1.34804,-0.317942,0.24720799999999998,-0.532928,0.39379899999999995
582,5.82,2.35831,-1.6865459999999999,-0.465737,0.189682,-0.5403899999999999,0.325623
583,5.83,1.800813,-1.9096490000000002,-0.622054,0.09806799999999999,-0.538254,0.255325
584,5.84,1.2392100000000001,-1.9953040000000002,-0.744117,-0.011658000000000002,-0.535065,0.19459500000000002
585,5.85,0.647161,-1.9796509999999998,-0.8767389999999999,-0.124573,-0.53186,0.136017
586,5.86,0.167266,-1.884022,-0.9246409999999999,-0.217239,-0.523346,0.096603
587,5.87,-0.19508399999999998,-1.626399,-0.9527629999999999,-0.28436300000000003,-0.50737,0.073166
588,5.88,-0.349752,-1.438623,-0.8724799999999999,-0.334427,-0.47966000000000003,0.058242999999999996
589,5.89,-0.355995,-1.239953,-0.835636,-0.371704,-0.437057,0.052917
590,5.9,-0.368573,-1.066942,-0.806928,-0.394073,-0.37953200000000004,0.042267
591,5.91,-0.32451599999999997,-0.8535590000000001,-0.695882,-0.397278,-0.316681,0.033752
592,5.92,-0.26182,-0.641433,-0.600074,-0.369583,-0.24211100000000002,0.022034
593,5.93,-0.24729299999999999,-0.414571,-0.455093,-0.304596,-0.169678,0.002853
594,5.94,-0.30904699999999996,-0.163913,-0.364775,-0.204468,-0.095108,-0.014191000000000004
595,5.95,-0.383473,0.030648000000000012,-0.328471,-0.09687799999999999,-0.025863999999999998,-0.029099
596,5.96,-0.381847,0.015911,-0.411206,-0.009521000000000002,0.027405000000000002,-0.03656
597,5.97,-0.23305400000000004,-0.145994,-0.447349,0.032027999999999994,0.038055,-0.032303
598,5.98,0.019096,-0.305692,-0.418206,0.027770999999999997,0.03273,-0.023773
599,5.99,0.238878,-0.196242,-0.435332,-0.004196,0.033783,-0.008865000000000001
600,6.0,0.361496,0.053205000000000016,-0.587549,-0.031891,0.047638,0.0028530000000000005
601,6.01,0.410376,0.470706,-0.767822,-0.036148,0.06575,0.027358999999999998
602,6.02,0.346595,1.009039,-0.90976,-0.021240000000000002,0.08065800000000001,0.066772
603,6.03,0.121833,1.39762,-0.957816,0.010727,0.091309,0.11683699999999998
604,6.04,-0.256779,1.695882,-1.018114,0.044815,0.11155699999999999,0.157318
605,6.05,-0.753263,1.945758,-1.042633,0.079956,0.158432,0.183945
606,6.06,-1.1917280000000001,2.054841,-1.0617020000000001,0.10766600000000001,0.23086500000000001,0.196732
607,6.07,-1.307192,1.9943849999999999,-0.93374,0.128967,0.3246,0.204193
608,6.08,-1.2317719999999999,1.9680090000000001,-0.8211930000000001,0.141754,0.441788,0.214844
609,6.09,-1.265269,2.0236259999999997,-0.631247,0.13536099999999998,0.571747,0.228683
610,6.1,-1.396723,2.1167599999999998,-0.422267,0.09806799999999999,0.7326050000000001,0.256393
611,6.11,-1.1956069999999999,1.946187,-0.211261,0.06930499999999999,0.8614959999999999,0.28941300000000003
612,6.12,-0.659176,1.45499,0.11472000000000003,0.06398,0.9126280000000001,0.32243299999999997
613,6.13,-0.391488,0.8835129999999999,0.503524,0.058655,0.906235,0.358658
614,6.14,-0.197486,0.47397799999999995,0.9635469999999999,0.0021969999999999976,0.8987879999999999,0.414047
615,6.15,0.061318,0.145483,1.430752,-0.101135,0.8774719999999999,0.480087
616,6.16,0.07902100000000001,0.07747899999999999,2.028922,-0.249207,0.863632,0.56105
617,6.17,0.29990900000000004,0.093159,2.6233310000000003,-0.372772,0.8860020000000001,0.653732
618,6.18,0.575314,-0.18268,3.079063,-0.405792,0.927551,0.708054
619,6.19,0.293306,-0.80794,3.256081,-0.34081999999999996,0.981873,0.711258
620,6.2,-0.43007399999999996,-1.529703,2.8491,-0.22683699999999998,1.0372620000000001,0.684616
621,6.21,-1.232473,-2.0645130000000003,2.1790830000000003,-0.112854,1.0426030000000002,0.64415
622,6.22,-1.5730819999999999,-2.157203,1.625608,-0.019104,0.9914700000000001,0.593018
623,6.23,-1.3527209999999998,-1.725438,1.048583,0.055465999999999994,0.896652,0.544006
624,6.24,-0.814902,-0.8683209999999999,0.616618,0.095947,0.7666930000000001,0.48754899999999995
625,6.25,-0.09155000000000002,0.11804200000000005,0.344506,0.09699999999999999,0.620758,0.421509
626,6.26,0.680787,1.0287979999999999,0.41629399999999994,0.068237,0.501434,0.345871
627,6.27,1.516364,1.645629,0.75467,0.014984,0.436462,0.244675
628,6.28,2.260254,1.965026,1.149091,-0.039352,0.41195699999999996,0.128555
629,6.29,2.5614369999999997,2.011845,1.496504,-0.077698,0.41409300000000004,0.0028530000000000014
630,6.3,2.412242,1.693552,1.6952990000000001,-0.072372,0.44497700000000007,-0.117523
631,6.31,1.787785,1.1909040000000002,1.781089,-0.027634,0.506775,-0.22724899999999998
632,6.32,0.984883,0.6731189999999999,1.535976,0.04054300000000001,0.563232,-0.317795
633,6.33,0.092242,0.06388100000000002,1.111119,0.117249,0.596252,-0.380646
634,6.34,-0.797425,-0.560276,0.539323,0.19075,0.616486,-0.40408299999999997
635,6.35,-1.503533,-1.1489200000000002,0.014768000000000003,0.240814,0.618622,-0.382767
636,6.36,-1.9690450000000002,-1.594351,-0.49540100000000004,0.262115,0.618622,-0.335907
637,6.37,-2.211601,-1.8362189999999998,-0.8952709999999999,0.26318400000000003,0.622879,-0.28157
638,6.38,-2.178964,-2.009744,-1.149907,0.23655700000000002,0.6271359999999999,-0.2379
639,6.39,-1.974435,-2.057287,-1.323416,0.174774,0.634598,-0.21020500000000003
640,6.4,-1.709387,-2.047043,-1.401657,0.091675,0.6388550000000001,-0.197418
641,6.41,-1.378941,-1.897613,-1.434028,-0.009521000000000002,0.6378020000000001,-0.191025
642,6.42,-0.827498,-1.648738,-1.311553,-0.152267,0.613297,-0.179306
643,6.43,-0.5647340000000001,-1.3951959999999999,-1.104783,-0.22683699999999998,0.588791,-0.165451
644,6.44,-0.344056,-1.1662860000000002,-0.8751469999999999,-0.27157600000000004,0.5568390000000001,-0.14840699999999998
645,6.45,-0.094065,-0.6962149999999999,-0.677585,-0.277969,0.499313,-0.10899400000000001
646,6.46,0.025207,-0.340296,-0.569459,-0.238556,0.442856,-0.084503
647,6.47,0.156106,-0.053127000000000014,-0.6390939999999999,-0.166107,0.37254299999999996,-0.056792999999999996
648,6.48,0.350582,0.200023,-0.699617,-0.06279,0.296906,-0.026978
649,6.49,0.5040439999999999,0.36973,-0.7212529999999999,0.06930499999999999,0.21168499999999998,0.008179000000000002
650,6.5,0.75276,0.387759,-0.816549,0.215256,0.130722,0.041199
651,6.51,0.884884,0.22842300000000001,-1.019823,0.346283,0.047638,0.075287
652,6.52,0.952471,-0.06997800000000001,-1.2247219999999999,0.43362399999999995,-0.030121,0.096603
653,6.53,0.9165479999999999,-0.43932,-1.39174,0.46878100000000006,-0.09724400000000001,0.105118
654,6.54,0.840957,-0.790131,-1.6193899999999999,0.45173599999999997,-0.14624,0.102997
655,6.55,0.689812,-0.8793219999999999,-1.6856400000000002,0.41020200000000007,-0.17819200000000002,0.096603
656,6.56,0.48724300000000004,-0.8524450000000001,-1.701502,0.338821,-0.18779,0.084885
657,6.57,0.212977,-0.486112,-1.604744,0.251465,-0.18246500000000002,0.063568
658,6.58,-0.096554,0.493462,-1.457139,0.118317,-0.155823,0.011382999999999999
659,6.59,-0.051582,1.080078,-1.357124,0.054398,-0.147308,-0.040817
660,6.6,0.30454499999999995,1.4450100000000001,-1.193807,0.029892000000000002,-0.164352,-0.099411
661,6.61,0.766476,1.62471,-1.008141,0.040543,-0.197372,-0.14840699999999998
662,6.62,1.111207,1.698823,-0.805664,0.075699,-0.25383,-0.179306
663,6.63,1.25794,1.8289090000000001,-0.7018979999999999,0.114044,-0.326263,-0.201675
664,6.64,1.176291,2.08161,-0.59767,0.160919,-0.40936300000000003,-0.219788
665,6.65,1.125797,2.3959,-0.542675,0.19075,-0.496704,-0.2379
666,6.66,1.024378,2.701387,-0.40987399999999996,0.189682,-0.595779,-0.26771500000000004
667,6.67,0.658529,2.6551169999999997,-0.0012060000000000124,0.159851,-0.663956,-0.30714400000000003
668,6.68,0.05906100000000002,2.571286,0.775668,0.10446199999999999,-0.659698,-0.371048
669,6.69,0.08019,2.358149,1.6505470000000002,0.023499000000000003,-0.598984,-0.45201099999999994
670,6.7,0.101765,2.3015380000000003,2.3865849999999997,-0.07344099999999999,-0.544647,-0.531906
671,6.71,-0.184556,2.078338,2.495038,-0.098999,-0.516953,-0.603287
672,6.72,-0.382766,1.160574,2.660093,-0.039352,-0.535065,-0.6171260000000001
673,6.73,-0.459503,-0.12855099999999994,2.750207,0.054398,-0.5616909999999999,-0.589432
674,6.74,-0.540779,-1.541854,2.588253,0.131088,-0.627747,-0.555344
675,6.75,-0.42001400000000005,-2.740949,2.220687,0.159851,-0.721481,-0.525513
676,6.76,-0.373262,-3.449286,1.745112,0.15240499999999998,-0.8333280000000001,-0.5052800000000001
677,6.77,-0.35432199999999997,-3.481471,1.258934,0.134293,-0.913223,-0.499954
678,6.78,-0.6124,-2.421377,0.64386,0.048004000000000005,-0.8855290000000001,-0.479706
679,6.79,-1.0258459999999998,-1.331486,0.381849,-0.06279,-0.7555689999999999,-0.43710299999999996
680,6.8,-1.441149,-0.293319,0.312365,-0.191681,-0.5872649999999999,-0.37532
681,6.81,-1.8634240000000002,0.568812,0.551118,-0.29394499999999996,-0.4328,-0.2901
682,6.82,-2.19758,1.2361090000000001,0.915432,-0.341888,-0.311356,-0.18782000000000001
683,6.83,-2.2940549999999997,1.701715,1.335708,-0.339752,-0.23892199999999997,-0.071716
684,6.84,-2.136863,1.824859,1.697371,-0.281158,-0.17713900000000002,0.046524
685,6.85,-1.6361620000000001,1.613569,1.8682599999999998,-0.18528699999999998,-0.139847,0.16583299999999998
686,6.86,-0.9073559999999999,1.211673,1.721182,-0.078766,-0.117477,0.27876300000000004
687,6.87,0.03892499999999999,0.668956,1.359319,0.005401999999999997,-0.12387100000000001,0.367172
688,6.88,0.673542,0.093806,0.892041,0.068237,-0.154755,0.41511499999999996
689,6.89,1.11975,-0.46736700000000003,0.389341,0.117249,-0.20695500000000003,0.43428
690,6.9,1.4320620000000002,-0.957644,-0.03460699999999997,0.156662,-0.26236,0.426834
691,6.91,1.605055,-1.416402,-0.391997,0.176895,-0.313492,0.402328
692,6.92,1.602637,-1.76873,-0.6877300000000001,0.172638,-0.36141999999999996,0.362915
693,6.93,1.541046,-2.00494,-0.761663,0.13855,-0.405106,0.318176
694,6.94,1.403478,-2.022334,-0.8491780000000001,0.091675,-0.44131499999999996,0.281952
695,6.95,1.258046,-1.85106,-0.924538,0.014983999999999997,-0.44664,0.256393
696,6.96,1.041068,-1.6791099999999999,-0.9675229999999999,-0.059586,-0.42852799999999996,0.228683
697,6.97,0.707677,-1.3694899999999999,-0.962929,-0.151199,-0.39444,0.185013
698,6.98,0.505795,-1.201082,-0.8834780000000001,-0.18103,-0.3806,0.15625
699,6.99,0.396041,-1.086743,-0.798134,-0.18528699999999998,-0.367813,0.124298
700,7.0,0.251725,-0.891066,-0.666909,-0.165054,-0.34225500000000003,0.100861
701,7.01,0.11496500000000001,-0.599825,-0.6039359999999999,-0.108597,-0.301773,0.089142
702,7.02,0.071198,-0.323789,-0.572307,-0.013779,-0.260223,0.077423
703,7.03,-0.006044000000000001,-0.201355,-0.5610069999999999,0.103394,-0.22399899999999998,0.065704
704,7.04,-0.169382,-0.115685,-0.478307,0.225906,-0.193115,0.053986
705,7.05,-0.364498,-0.129857,-0.486314,0.328171,-0.162216,0.041199
706,7.06,-0.617589,-0.349292,-0.525809,0.388885,-0.12387100000000001,0.027358999999999998
707,7.07,-0.679157,-0.612617,-0.655195,0.398483,-0.08125299999999999,0.013503999999999999
708,7.08,-0.685472,-0.859284,-0.76165,0.363327,-0.036514,-0.001404
709,7.09,-0.599364,-0.845873,-0.90722,0.30580100000000005,0.007156000000000002,-0.01738
710,7.1,-0.5029170000000001,-0.633279,-1.04183,0.241882,0.049774,-0.025908999999999998
711,7.11,-0.381065,-0.166325,-1.118096,0.17157,0.08812,-0.007797
712,7.12,-0.258667,0.4765860000000001,-1.194649,0.11617999999999999,0.125397,0.030548000000000006
713,7.13,-0.30325799999999997,0.985332,-1.161339,0.086349,0.158432,0.077423
714,7.14,-0.532758,1.290039,-1.051811,0.076767,0.198914,0.12322999999999999
715,7.15,-0.8532120000000001,1.425712,-0.892774,0.077835,0.259628,0.161575
716,7.16,-1.107314,1.392679,-0.815724,0.087418,0.341644,0.187149
717,7.17,-1.3487069999999999,1.481502,-0.8733879999999999,0.11299100000000001,0.417282,0.21270799999999998
718,7.18,-1.507292,1.772951,-1.001997,0.1492,0.49505600000000005,0.236145
719,7.19,-1.273535,2.0604310000000003,-1.112884,0.179031,0.576004,0.25106799999999996
720,7.2,-0.9558040000000001,2.175196,-1.027954,0.17157,0.649506,0.256393
721,7.21,-0.68877,2.138012,-0.716783,0.10553,0.71875,0.271301
722,7.22,-0.300998,2.125572,-0.305244,-0.0073850000000000035,0.781601,0.298996
723,7.23,0.214879,1.978539,0.372141,-0.11711099999999999,0.806107,0.33521999999999996
724,7.24,0.623731,1.719071,1.170485,-0.189545,0.783737,0.386353
725,7.25,0.383837,1.581583,1.876971,-0.24706999999999998,0.757111,0.454529
726,7.26,0.237853,1.519261,2.3354880000000002,-0.292877,0.783737,0.531219
727,7.27,0.375668,0.9752649999999999,2.7756950000000002,-0.297134,0.849777,0.579163
728,7.28,0.368162,0.0009400000000000519,3.1784529999999998,-0.27050799999999997,0.9051819999999999,0.584488
729,7.29,-0.14910199999999998,-1.041121,3.331931,-0.231094,0.9712219999999999,0.553589
730,7.3,-0.857708,-1.9628259999999997,3.03782,-0.192749,1.056442,0.506729
731,7.31,-1.71481,-2.949863,2.008371,-0.124573,1.1363370000000002,0.44813500000000006
732,7.32,-1.7513169999999998,-3.050842,1.2670299999999999,-0.063843,1.1150360000000001,0.44067399999999995
733,7.33,-1.340444,-2.460966,0.677924,-0.020172,1.0266110000000002,0.443878
734,7.34,-0.5945580000000001,-1.531778,0.17036500000000002,6.100000000000029e-05,0.8764190000000001,0.443878
735,7.35,0.112639,-0.4758060000000001,-0.19485999999999998,-0.016982999999999998,0.703842,0.421509
736,7.36,0.906407,0.45307,-0.128404,-0.070236,0.55896,0.372498
737,7.37,1.6671200000000002,1.220592,0.154248,-0.154388,0.44711300000000004,0.285156
738,7.38,2.398994,1.7460779999999998,0.610839,-0.220444,0.376801,0.166901
739,7.39,2.768349,1.9731900000000002,1.053383,-0.250275,0.34591700000000003,0.031615999999999984
740,7.4,2.7708470000000003,1.766018,1.362625,-0.250275,0.359756,-0.094086
741,7.41,2.33416,1.320745,1.62986,-0.220444,0.392776,-0.209137
742,7.42,1.5621129999999999,0.8283389999999999,1.7177,-0.171432,0.443924,-0.306076
743,7.43,0.603329,0.37538,1.522725,-0.09793099999999999,0.498245,-0.382767
744,7.44,-0.41109700000000005,-0.10753500000000002,1.0641479999999999,-0.006316999999999996,0.541916,-0.425385
745,7.45,-1.378213,-0.558477,0.49965600000000004,0.091675,0.5579069999999999,-0.42218
746,7.46,-2.083254,-0.919106,-0.05568700000000002,0.176895,0.562164,-0.385971
747,7.47,-2.484025,-1.1826450000000002,-0.49235100000000004,0.23655700000000002,0.564285,-0.344421
748,7.48,-2.587866,-1.4108129999999999,-0.785971,0.259995,0.570679,-0.298615
749,7.49,-2.3127169999999997,-1.561999,-0.9877450000000001,0.245071,0.581329,-0.25387600000000005
750,7.5,-1.861416,-1.691473,-1.143989,0.202469,0.586655,-0.220856
751,7.51,-1.319517,-1.695702,-1.28433,0.13003499999999998,0.584534,-0.19528199999999998
752,7.52,-0.812599,-1.657227,-1.370217,0.051193,0.5674899999999999,-0.179306
753,7.53,-0.41296099999999997,-1.6113680000000001,-1.367818,-0.037215999999999985,0.548309,-0.16333
754,7.54,-0.162825,-1.447686,-1.297972,-0.11711099999999999,0.532333,-0.150543
755,7.55,-0.011771999999999998,-1.307708,-1.257287,-0.17996199999999998,0.516357,-0.142029
756,7.56,0.096352,-1.157184,-1.205514,-0.21405,0.49185200000000007,-0.137756
757,7.57,0.21764299999999998,-0.9911479999999999,-1.2237049999999998,-0.223633,0.44818100000000005,-0.126038
758,7.58,0.253471,-0.765235,-1.187921,-0.20553600000000002,0.386398,-0.11112999999999999
759,7.59,0.43128500000000003,-0.511763,-1.186316,-0.159729,0.31501799999999996,-0.08982799999999999
760,7.6,0.6198819999999999,-0.27243,-1.123417,-0.081955,0.233002,-0.06425499999999999
761,7.61,0.832872,-0.060339,-1.007892,0.019241,0.152039,-0.038696
762,7.62,0.945218,0.046820000000000014,-0.899017,0.12150599999999999,0.067871,-0.013123
763,7.63,0.966368,0.13023900000000002,-0.9511440000000001,0.20565799999999998,-0.012024000000000005,0.0017849999999999997
764,7.64,0.907876,0.094101,-1.017567,0.26318400000000003,-0.082321,-0.0014039999999999999
765,7.65,0.74565,-0.017712000000000002,-1.162994,0.285553,-0.129196,-0.020584
766,7.66,0.56581,-0.10601600000000001,-1.2975299999999999,0.290878,-0.162216,-0.035492
767,7.67,0.35364,-0.129404,-1.343459,0.277039,-0.181396,-0.052536
768,7.68,0.09825200000000002,0.06931600000000003,-1.342832,0.24295,-0.184586,-0.079178
769,7.69,-0.07961499999999999,0.450912,-1.325603,0.201401,-0.17713900000000002,-0.11538699999999999
770,7.7,-0.134787,0.8617739999999999,-1.305426,0.166245,-0.161148,-0.162262
771,7.71,0.123213,1.093693,-1.323887,0.158798,-0.16860999999999998,-0.203812
772,7.72,0.5439970000000001,1.217914,-1.430949,0.17157,-0.20483400000000002,-0.231506
773,7.73,0.9916389999999999,1.310491,-1.441605,0.197144,-0.25596599999999997,-0.23683200000000001
774,7.74,1.105024,1.422884,-1.524277,0.22697399999999998,-0.31561300000000003,-0.224045
775,7.75,1.05332,1.6901419999999998,-1.580136,0.244019,-0.39231900000000003,-0.209137
776,7.76,0.963743,1.959271,-1.5141850000000001,0.238693,-0.485001,-0.20060699999999998
777,7.77,0.9343799999999999,2.2272950000000002,-1.0882479999999999,0.154526,-0.622406,-0.21020500000000003
778,7.78,0.677862,2.341144,-0.497113,0.06930499999999999,-0.674606,-0.242157
779,7.79,0.334108,2.271936,0.2890170000000001,0.017105000000000002,-0.689529,-0.306076
780,7.8,-0.11393300000000002,2.265504,1.4384,-0.021240000000000002,-0.6564939999999999,-0.39769
781,7.81,0.225275,2.425949,2.475684,-0.11392200000000001,-0.563828,-0.522324
782,7.82,0.42141300000000004,2.4274310000000003,3.0916639999999997,-0.25453200000000004,-0.511627,-0.682114
783,7.83,0.25044,1.635567,3.517314,-0.28436300000000003,-0.512695,-0.782242
784,7.84,0.061824999999999984,0.408104,3.676331,-0.18528699999999998,-0.487122,-0.800354
785,7.85,-0.066715,-0.8901160000000001,3.374547,-0.013779,-0.487122,-0.772659
786,7.86,-0.04175,-2.061075,2.561141,0.159851,-0.560623,-0.721527
787,7.87,0.138277,-3.032795,1.7131759999999998,0.286621,-0.70018,-0.658676
788,7.88,0.259959,-3.3754809999999997,1.146895,0.336685,-0.856766,-0.588364
789,7.89,-0.018704999999999968,-2.954688,0.739392,0.31005900000000003,-0.933472,-0.522324
790,7.9,-0.393527,-1.9555490000000002,0.43200500000000003,0.20993,-0.919617,-0.445618
791,7.91,-0.850692,-0.751209,0.312583,0.070374,-0.849319,-0.35827600000000004
792,7.92,-1.570554,0.387149,0.43925200000000003,-0.065979,-0.732132,-0.273056
793,7.93,-2.267582,1.170136,0.7721,-0.167175,-0.58194,-0.172913
794,7.94,-2.86551,1.622628,1.128111,-0.22683699999999998,-0.44131499999999996,-0.06425499999999999
795,7.95,-3.0704569999999998,1.887615,1.534822,-0.25346399999999997,-0.323074,0.064636
796,7.96,-2.67332,1.671041,1.9142970000000001,-0.225769,-0.252762,0.191406
797,7.97,-1.9021439999999998,1.1500489999999999,2.143508,-0.12350499999999999,-0.23999,0.310715
798,7.98,-0.778774,0.653889,1.861472,0.020308999999999997,-0.247437,0.41723599999999994
799,7.99,0.244601,0.115249,1.3092979999999999,0.143875,-0.275131,0.48754899999999995
800,8.0,1.136886,-0.436341,0.694751,0.225906,-0.326263,0.531219
801,8.01,1.983825,-0.9976809999999999,0.057892,0.26318400000000003,-0.374207,0.5397489999999999
802,8.02,2.568658,-1.524909,-0.467683,0.253601,-0.42852799999999996,0.507797
803,8.03,2.675537,-1.9470580000000002,-0.824284,0.192886,-0.47860699999999995,0.457718
804,8.04,2.4795119999999997,-2.366151,-0.971873,0.09806799999999999,-0.512695,0.392746
805,8.05,2.0214849999999998,-2.626001,-1.0868360000000001,-0.016983,-0.5276029999999999,0.325623
806,8.06,1.402691,-2.671535,-1.082251,-0.132019,-0.538254,0.26597600000000005
807,8.07,0.8644440000000001,-2.537442,-0.975856,-0.238556,-0.546783,0.21377600000000002
808,8.08,0.435036,-2.198706,-0.9067370000000001,-0.32057199999999997,-0.542511,0.17543
809,8.09,0.175769,-1.719496,-0.790167,-0.378098,-0.5297390000000001,0.14666700000000002
810,8.1,0.077093,-1.204434,-0.603538,-0.405792,-0.496704,0.129623
811,8.11,0.04723,-0.792443,-0.455621,-0.418579,-0.44451899999999994,0.109375
812,8.12,0.080042,-0.36296799999999996,-0.32218600000000003,-0.403671,-0.37846399999999997,0.094467
813,8.13,0.110402,-0.010913000000000006,-0.18784800000000001,-0.35572800000000004,-0.300705,0.08167999999999999
814,8.14,0.130616,0.269227,-0.048239,-0.26731900000000003,-0.222946,0.067841
815,8.15,0.026677999999999997,0.312602,0.02706,-0.137344,-0.156891,0.050797
816,8.16,-0.11573199999999999,0.25793699999999997,0.011275,0.014983999999999997,-0.088715,0.035873
817,8.17,-0.311305,0.037272,-0.155542,0.163055,-0.032257,0.026291000000000002
818,8.18,-0.530332,-0.33524499999999996,-0.45531400000000005,0.273834,0.008223999999999999,0.016708
819,8.19,-0.582692,-0.7071890000000001,-0.782037,0.328171,0.039124,0.017761000000000002
820,8.2,-0.537813,-0.9970459999999999,-1.03524,0.323914,0.068939,0.016708
821,8.21,-0.39449,-0.9950610000000001,-1.2078440000000001,0.268509,0.095581,0.007111
822,8.22,-0.26645,-0.74934,-1.251359,0.179031,0.129669,-0.008865000000000001
823,8.23,-0.09360399999999999,-0.30753800000000003,-1.288231,0.086349,0.158432,-0.01738
824,8.24,0.10641700000000001,0.30638000000000004,-1.33182,0.010727,0.186127,-0.0014040000000000007
825,8.25,0.176513,0.962717,-1.287888,-0.042542,0.20742800000000003,0.043335000000000005
826,8.26,0.045045,1.470025,-1.190999,-0.06704700000000001,0.213821,0.128555
827,8.27,-0.381963,1.6987709999999998,-0.9805729999999999,-0.046799,0.235123,0.214844
828,8.28,-0.675541,1.818871,-0.826694,-0.024429,0.28093,0.257446
829,8.29,-0.891496,1.959798,-0.759948,0.020308999999999997,0.359756,0.285156
830,8.3,-0.7946310000000001,2.170737,-0.676493,0.077835,0.44072,0.294739
831,8.31,-0.543908,2.262222,-0.512016,0.126831,0.518478,0.290482
832,8.32,-0.513882,2.201381,-0.323356,0.13855,0.610092,0.27876300000000004
833,8.33,-0.5133479999999999,2.081914,-0.170638,0.09806799999999999,0.728348,0.273438
834,8.34,-0.176965,1.7222819999999999,0.017357999999999985,0.03949,0.8114319999999999,0.280884
835,8.35,0.161882,1.121669,0.333915,0.007523,0.8210139999999999,0.287277
836,8.36,0.273267,0.491446,0.7094779999999999,-0.025497,0.805038,0.311783
837,8.37,0.284903,-0.33003499999999997,1.591502,-0.167175,0.742188,0.373566
838,8.38,-0.08974900000000001,-0.47554799999999997,2.3023029999999998,-0.33016999999999996,0.7294010000000001,0.46411099999999994
839,8.39,-0.064762,-0.527261,2.905739,-0.438828,0.773087,0.567444
840,8.4,-0.29335700000000003,-0.782578,3.140384,-0.426041,0.8103640000000001,0.633484
841,8.41,-0.882467,-1.1228719999999999,3.074965,-0.303528,0.8348690000000001,0.647339
842,8.42,-1.596485,-1.48206,2.742341,-0.12883,0.824219,0.61644
843,8.43,-1.949034,-1.7745060000000001,2.313309,0.042679,0.791199,0.568512
844,8.44,-1.7250189999999999,-1.661675,1.835982,0.160919,0.749649,0.522705
845,8.45,-0.9926530000000001,-1.14303,1.39999,0.220581,0.6921229999999999,0.48648100000000005
846,8.46,-0.15484200000000006,-0.226116,0.9643010000000001,0.240814,0.609039,0.43855299999999997
847,8.47,0.671205,0.698886,0.795097,0.23655700000000002,0.514221,0.376755
848,8.48,1.419809,1.5626659999999999,0.853226,0.220581,0.432205,0.293671
849,8.49,2.047741,2.051707,1.1130209999999998,0.193939,0.377869,0.19886800000000002
850,8.5,2.451233,2.170394,1.2894729999999999,0.165176,0.348038,0.083817
851,8.51,2.552107,1.922236,1.435351,0.158798,0.3246,-0.033371
852,8.52,2.1781770000000003,1.463803,1.522365,0.177963,0.31076,-0.143082
853,8.53,1.50034,0.9693729999999999,1.520721,0.208862,0.31076,-0.234695
854,8.54,0.66832,0.47561499999999995,1.465565,0.251465,0.337387,-0.299683
855,8.55,-0.17082199999999995,-0.018414000000000014,1.115267,0.295151,0.357635,-0.338028
856,8.56,-0.968038,-0.480117,0.749146,0.333496,0.368286,-0.342285
857,8.57,-1.75135,-1.067453,0.142004,0.344147,0.37468,-0.305008
858,8.58,-1.9234580000000001,-1.339761,-0.192377,0.33136,0.383194,-0.26239
859,8.59,-1.911791,-1.508384,-0.43093100000000006,0.302597,0.403442,-0.218719
860,8.6,-1.7619509999999998,-1.6643439999999998,-0.64037,0.262115,0.436462,-0.191025
861,8.61,-1.5696860000000001,-1.7276,-0.821626,0.204605,0.46308900000000003,-0.176117
862,8.62,-1.404209,-1.7424849999999998,-0.986456,0.132156,0.485458,-0.178238
863,8.63,-1.230145,-1.7389150000000002,-1.073813,0.05119300000000001,0.499313,-0.184631
864,8.64,-1.131019,-1.732477,-1.0681530000000001,-0.035080000000000014,0.5110319999999999,-0.188889
865,8.65,-0.9949180000000001,-1.678291,-1.0121120000000001,-0.119247,0.514221,-0.189957
866,8.66,-0.821139,-1.521041,-0.975625,-0.189545,0.502502,-0.185699
867,8.67,-0.6357510000000001,-1.2485030000000001,-0.9239629999999999,-0.243881,0.48226899999999995,-0.165451
868,8.68,-0.44830699999999996,-0.9621270000000001,-0.842709,-0.28009,0.456696,-0.136688
869,8.69,-0.266092,-0.6699649999999999,-0.706088,-0.296082,0.42688000000000004,-0.101547
870,8.7,-0.11585999999999999,-0.44041199999999997,-0.530567,-0.287552,0.40023800000000004,-0.06318700000000001
871,8.71,0.132927,-0.30241799999999996,-0.440396,-0.252396,0.36615,-0.025908999999999998
872,8.72,0.322734,-0.23346399999999998,-0.424054,-0.195938,0.32566799999999996,-0.0003359999999999995
873,8.73,0.496142,-0.32205300000000003,-0.5015,-0.126694,0.274536,0.019897
874,8.74,0.760247,-0.37441199999999997,-0.676111,-0.015915000000000002,0.185059,0.033752
875,8.75,0.9060299999999999,-0.394688,-0.748043,0.042679000000000016,0.12646500000000002,0.040146
876,8.76,0.921092,-0.43284700000000004,-0.7823939999999999,0.079956,0.076401,0.045471
877,8.77,0.807443,-0.44360900000000003,-0.930378,0.09062200000000001,0.036987,0.047592
878,8.78,0.659395,-0.456207,-1.069768,0.09062200000000001,-0.004562,0.046524
879,8.79,0.54611,-0.470463,-1.262758,0.087418,-0.053558,0.049727999999999994
880,8.8,0.44761899999999993,-0.452908,-1.363306,0.084229,-0.101501,0.061447
881,8.81,0.370936,-0.323392,-1.288538,0.06504800000000001,-0.132385,0.073166
882,8.82,0.374244,-0.09046699999999999,-1.2267190000000001,0.034149,-0.140915,0.072098
883,8.83,0.395428,0.23557399999999998,-1.253319,-0.0020599999999999998,-0.165421,0.058242999999999996
884,8.84,0.474045,0.552624,-1.262311,-0.020172,-0.200562,0.030548000000000002
885,8.85,0.7200439999999999,0.760599,-1.2167700000000001,-0.016983,-0.24104299999999998,-0.00354
886,8.86,0.891012,0.8793770000000001,-1.1067360000000002,-0.0009919999999999998,-0.279404,-0.028045999999999998
887,8.87,1.045609,0.902473,-1.15876,0.023499000000000003,-0.32521100000000003,-0.038696
888,8.88,1.068346,0.969952,-1.214397,0.05014,-0.374207,-0.035492
889,8.89,0.9895309999999999,1.1073309999999998,-1.313991,0.081024,-0.41894499999999996,-0.031235000000000002
890,8.9,0.552253,1.628412,-1.0928280000000001,0.133224,-0.47753900000000005,-0.05146799999999999
891,8.91,0.43649899999999997,2.170402,-0.8888010000000001,0.14813199999999999,-0.492447,-0.104736
892,8.92,0.414102,2.687505,-0.611272,0.11617999999999999,-0.493515,-0.198486
893,8.93,0.387234,2.979403,-0.277897,0.08316,-0.47860699999999995,-0.282639
894,8.94,0.21626199999999998,3.0187180000000002,0.170762,0.102341,-0.420013,-0.355072
895,8.95,0.10145,2.806103,0.520839,0.165176,-0.32521100000000003,-0.431778
896,8.96,-0.20736999999999997,2.347115,0.735744,0.210983,-0.270874,-0.49781800000000004
897,8.97,-0.418735,2.088302,0.9482290000000001,0.19500699999999999,-0.25383,-0.560669
898,8.98,-0.8593540000000001,1.8597009999999998,0.991475,0.11938499999999999,-0.287918,-0.622452
899,8.99,-1.0562610000000001,0.741552,1.5976860000000002,0.044815,-0.36141999999999996,-0.63205
900,9.0,-0.791407,-0.685941,2.276434,0.037354000000000005,-0.404037,-0.5862430000000001
901,9.01,-0.539101,-2.226645,2.5495080000000003,0.043747,-0.45196499999999995,-0.530838
902,9.02,-0.313775,-3.3819150000000002,2.391466,0.03096,-0.499908,-0.49568199999999996
903,9.03,-0.143215,-3.7636160000000003,1.9708150000000002,0.0054020000000000006,-0.564896,-0.48291000000000006
904,9.04,-0.20149,-3.244711,1.505816,-0.025497,-0.638397,-0.476517
905,9.05,-0.604499,-2.107039,1.227745,-0.060654,-0.65863,-0.46479799999999993
906,9.06,-1.573944,-0.11657099999999998,1.204324,-0.13308699999999998,-0.47860699999999995,-0.38169899999999995
907,9.07,-2.182844,1.047032,1.383645,-0.176773,-0.266617,-0.265594
908,9.08,-2.641016,1.756995,1.639948,-0.198074,-0.03865099999999999,-0.142029
909,9.09,-3.0552509999999997,1.996491,1.8021900000000002,-0.184219,0.149902,-0.020584
910,9.1,-3.096621,1.883343,1.8574709999999999,-0.130966,0.254303,0.098724
911,9.11,-3.1349139999999998,1.5716620000000001,1.790802,-0.060654,0.317154,0.223358
912,9.12,-2.651151,1.125074,1.6941439999999999,0.008591000000000001,0.356567,0.362915
913,9.13,-1.744666,0.662502,1.4567860000000001,0.068237,0.38533,0.485413
914,9.14,-0.854475,0.14016099999999998,1.062267,0.11299100000000001,0.398117,0.579163
915,9.15,-0.00684499999999999,-0.454561,0.606813,0.137482,0.38000500000000004,0.6324310000000001
916,9.16,0.72682,-1.000363,0.09197000000000001,0.147079,0.340591,0.64415
917,9.17,1.290254,-1.467272,-0.355688,0.13961800000000002,0.30223099999999997,0.622833
918,9.18,1.6354440000000001,-1.839816,-0.677419,0.10766600000000001,0.263885,0.571701
919,9.19,1.744723,-2.0868349999999998,-0.8316110000000001,0.05014,0.244705,0.509918
920,9.2,1.6397830000000002,-2.230495,-0.895538,-0.031891,0.23725900000000003,0.445999
921,9.21,1.3737629999999998,-2.1395299999999997,-0.949938,-0.12883,0.240448,0.38209499999999996
922,9.22,1.016829,-1.920879,-0.9713700000000001,-0.235352,0.243652,0.320297
923,9.23,0.612445,-1.610583,-0.90349,-0.326965,0.255371,0.261719
924,9.24,0.404555,-1.304932,-0.834966,-0.383423,0.26174899999999995,0.211639
925,9.25,0.270825,-0.987701,-0.6942729999999999,-0.408997,0.254303,0.171173
926,9.26,0.358738,-0.694487,-0.521269,-0.40260300000000004,0.25216700000000003,0.13281199999999999
927,9.27,0.516877,-0.49065299999999995,-0.377804,-0.379166,0.256424,0.105118
928,9.28,0.59854,-0.34095,-0.329571,-0.344009,0.26709,0.079559
929,9.29,0.5985010000000001,-0.269991,-0.315298,-0.29394499999999996,0.293716,0.055054
930,9.3,0.425461,-0.259932,-0.271854,-0.224701,0.318222,0.025223
931,9.31,0.124324,-0.29788400000000004,-0.20813,-0.139481,0.35231,-0.004607999999999999
932,9.32,-0.20416099999999998,-0.272855,-0.24940700000000002,-0.040405,0.392776,-0.025908999999999998
933,9.33,-0.593266,-0.246581,-0.357514,0.057587,0.423676,-0.037627999999999995
934,9.34,-0.917725,-0.29399200000000003,-0.513651,0.132156,0.45137,-0.038696
935,9.35,-1.038859,-0.46235,-0.76053,0.169449,0.478012,-0.018448
936,9.36,-0.9225180000000001,-0.514961,-0.7931729999999999,0.14494300000000002,0.498245,0.003922
937,9.37,-0.7826390000000001,-0.399455,-0.810938,0.10446199999999999,0.535522,0.026291000000000002
938,9.38,-0.650672,-0.161304,-0.825622,0.081024,0.60051,0.046524
939,9.39,-0.567945,0.124852,-0.923968,0.07357799999999999,0.679337,0.069962
940,9.4,-0.513166,0.34532199999999996,-1.02912,0.07144199999999999,0.759232,0.09765599999999999
941,9.41,-0.578038,0.411303,-1.07002,0.06718400000000001,0.8210139999999999,0.136017
942,9.42,-0.642096,0.533565,-1.0707209999999998,0.055465999999999994,0.8860020000000001,0.185013
943,9.43,-0.650432,0.621247,-1.0461770000000001,0.041611,0.9658969999999999,0.24893200000000001
944,9.44,-0.766937,0.746738,-1.139691,0.03096,1.0681610000000001,0.320297
945,9.45,-0.850305,0.732535,-1.3019370000000001,0.020309,1.1629639999999999,0.384216
946,9.46,-0.880249,0.622071,-1.42031,0.0032650000000000005,1.233276,0.44281000000000004
947,9.47,-0.6286430000000001,0.465171,-1.362157,-0.01059,1.274826,0.48968500000000004
948,9.48,-0.34820500000000004,0.311544,-1.092597,-0.024429,1.297195,0.516312
949,9.49,-0.122732,0.29791,-0.7982,-0.040405,1.322754,0.513123
950,9.5,0.0010630000000000014,0.517282,-0.524307,-0.078766,1.340866,0.492874
951,9.51,0.107774,1.010658,-0.32422399999999996,-0.13841199999999998,1.320633,0.47476199999999996
952,9.52,0.212031,1.606441,0.189702,-0.190613,1.264175,0.468369
953,9.53,0.10919299999999997,2.236975,0.813846,-0.230026,1.203445,0.490738
954,9.54,-0.183029,2.918694,1.407135,-0.248138,1.1565860000000001,0.5386810000000001
955,9.55,-1.220358,3.369985,2.124017,-0.21830700000000003,1.116104,0.6324310000000001
956,9.56,-1.536735,3.069902,2.427353,-0.140549,1.134201,0.702728
957,9.57,-1.46333,2.414909,2.594303,-0.045745999999999995,1.166168,0.761322
958,9.58,-1.558423,1.4840209999999998,2.894773,0.044815,1.236481,0.786896
959,9.59,-1.4963030000000002,0.35683000000000004,3.159065,0.10553,1.3611149999999999,0.774109
960,9.6,-1.4405270000000001,-0.706688,3.2620720000000003,0.13855,1.515579,0.726166
961,9.61,-1.438402,-1.77817,3.077497,0.14494300000000002,1.6924130000000002,0.667572
962,9.62,-1.524758,-2.798035,2.5577080000000003,0.134293,1.857529,0.624969
963,9.63,-1.593386,-3.4132629999999997,1.786662,0.127899,1.961914,0.5983430000000001
964,9.64,-1.6656810000000002,-3.520265,0.86785,0.118317,1.9800259999999998,0.580231
965,9.65,-1.5251549999999998,-3.029309,0.06582199999999999,0.09699999999999999,1.902267,0.570633
966,9.66,-1.110651,-2.1297,-0.5106189999999999,0.05014,1.7584529999999998,0.5493319999999999
967,9.67,-0.706014,-1.052006,-0.814091,-0.028702,1.591202,0.514175
968,9.68,-0.23366599999999998,0.14385399999999998,-0.6316390000000001,-0.135223,1.44313,0.45665
969,9.69,0.308871,1.265984,-0.11991400000000002,-0.21937600000000002,1.338745,0.365051
970,9.7,0.806828,2.101502,0.486727,-0.260925,1.2822719999999999,0.24679600000000002
971,9.71,1.045472,2.6193779999999998,1.163036,-0.251328,1.2726899999999999,0.105118
972,9.72,1.027937,2.6837590000000002,1.658298,-0.19381700000000002,1.301453,-0.044022000000000006
973,9.73,0.863758,2.2361020000000003,1.989855,-0.102203,1.3504639999999999,-0.169724
974,9.74,0.47610399999999997,1.5016639999999999,2.077037,0.003264999999999997,1.419693,-0.26239
975,9.75,-0.33907200000000004,0.22179400000000002,1.6457979999999999,0.15240499999999998,1.52623,-0.326309
976,9.76,-0.913223,-0.52171,0.978607,0.23548899999999998,1.567764,-0.315659
977,9.77,-1.372641,-1.086186,0.08984799999999997,0.296219,1.5613860000000002,-0.269852
978,9.78,-1.625689,-1.523479,-0.6503180000000001,0.332428,1.516632,-0.203812
979,9.79,-1.7058520000000001,-1.745912,-1.243299,0.328171,1.459106,-0.13456700000000002
980,9.8,-1.6291790000000002,-1.799249,-1.553535,0.2845,1.4069209999999999,-0.073837
981,9.81,-1.436659,-1.6918990000000003,-1.7349139999999998,0.208862,1.363235,-0.030167000000000003
982,9.82,-1.205483,-1.531344,-1.706252,0.101273,1.325958,-0.012054
983,9.83,-0.952789,-1.393377,-1.495999,-0.01803600000000001,1.2982639999999999,-0.01738
984,9.84,-0.699527,-1.1587969999999999,-1.2462389999999999,-0.11604300000000001,1.2769469999999998,-0.037627999999999995
985,9.85,-0.544991,-0.9322309999999999,-0.998166,-0.191681,1.270569,-0.062134
986,9.86,-0.391306,-0.772274,-0.8341649999999999,-0.231094,1.257782,-0.086624
987,9.87,-0.315581,-0.539495,-0.7719520000000001,-0.237488,1.233276,-0.105804
988,9.88,-0.200429,-0.439305,-0.737152,-0.234283,1.191727,-0.11645499999999999
989,9.89,-0.152006,-0.432841,-0.691104,-0.211914,1.138474,-0.106873
990,9.9,-0.119775,-0.452455,-0.706856,-0.186356,1.076691,-0.073837
991,9.91,-0.097754,-0.5722550000000001,-0.776695,-0.156525,1.020218,-0.033371
992,9.92,-0.070189,-0.667195,-0.8889379999999999,-0.121368,0.9552459999999999,0.017761000000000002
993,9.93,-0.148775,-0.680396,-1.000791,-0.070236,0.87854,0.066772
994,9.94,-0.110421,-0.584142,-1.2566629999999999,-0.012711,0.781601,0.102997
995,9.95,-0.017933000000000004,-0.402619,-1.396118,0.037354000000000005,0.670822,0.136017
996,9.96,0.125972,-0.236069,-1.4679389999999999,0.07357799999999999,0.573883,0.16477999999999998
997,9.97,0.296042,-0.21257800000000002,-1.435678,0.091675,0.502502,0.195663
998,9.98,0.505645,-0.26602600000000004,-1.434388,0.079956,0.456696,0.220169
999,9.99,0.67986,-0.321312,-1.333795,0.061859000000000004,0.431137,0.24572800000000003
1000,10.0,0.7797930000000001,-0.405889,-1.308416,0.049072000000000005,0.42688000000000004,0.26597600000000005
1001,10.01,0.8971309999999999,-0.41987399999999997,-1.3250520000000001,0.026702999999999998,0.42581199999999997,0.279816
1002,10.02,0.858067,-0.192483,-1.404259,0.005401999999999999,0.404495,0.28941300000000003
1003,10.03,0.6973060000000001,0.094954,-1.442962,-0.003128,0.383194,0.292603
1004,10.04,0.48314799999999997,0.520984,-1.514945,-0.0052640000000000004,0.36189299999999996,0.28834499999999996
1005,10.05,0.260905,0.870625,-1.580455,6.100000000000029e-05,0.335266,0.27555799999999997
1006,10.06,0.15320899999999998,1.195941,-1.536306,0.008591,0.303299,0.257446
1007,10.07,0.16586800000000002,1.469454,-1.533101,0.019241,0.256424,0.23402399999999998
1008,10.08,0.33366599999999996,1.836572,-1.566194,0.040543,0.152039,0.17968800000000001
1009,10.09,0.432467,2.1939349999999997,-1.4859719999999998,0.06398,0.089188,0.127487
1010,10.1,0.6811560000000001,2.5796360000000003,-1.364946,0.082092,0.026337,0.050797000000000016
1011,10.11,0.872654,2.728009,-1.10684,0.076767,-0.042908,-0.025908999999999998
1012,10.12,0.956868,2.710768,-0.688861,0.054398,-0.092972,-0.08343500000000001
1013,10.13,0.9043709999999999,2.5223,-0.294222,0.078903,-0.107895,-0.127106
1014,10.14,0.337982,1.922437,0.052248,0.158798,-0.11108399999999999,-0.159073
1015,10.15,-0.350286,1.433571,0.378369,0.237625,-0.096176,-0.18676800000000002
1016,10.16,-1.15244,1.166196,0.58835,0.25041199999999997,-0.090851,-0.25387600000000005
1017,10.17,-1.5183280000000001,0.8672850000000001,0.935182,0.18756099999999998,-0.090851,-0.351883
1018,10.18,-1.673628,0.404602,1.348439,0.095947,-0.122803,-0.46159399999999995
1019,10.19,-1.548109,-0.170918,1.7337040000000001,0.040543,-0.118546,-0.5351100000000001
1020,10.2,-1.258821,-0.8670899999999999,1.848061,0.046936,-0.052490000000000016,-0.563873
1021,10.21,-0.957852,-1.5286870000000001,1.552785,0.10766600000000001,0.044449,-0.55748
1022,10.22,-0.742319,-1.944553,1.060323,0.172638,0.12114000000000001,-0.520187
1023,10.23,-0.625275,-1.9883680000000001,0.535597,0.21311999999999998,0.141388,-0.466934
1024,10.24,-0.699254,-1.487052,0.402319,0.202469,0.125397,-0.392365
1025,10.25,-0.853294,-0.645995,0.6079979999999999,0.141754,0.134995,-0.299683
1026,10.26,-1.040153,0.23909299999999997,1.019865,0.06504800000000001,0.185059,-0.193161
1027,10.27,-1.2181790000000001,1.15184,1.403629,-0.0020599999999999998,0.28093,-0.065323
1028,10.28,-1.564609,1.712116,1.7577779999999998,-0.029755,0.38533,0.053985999999999985
1029,10.29,-1.9894610000000001,2.006209,1.802788,-0.023361,0.46308900000000003,0.16583299999999998
1030,10.3,-2.424233,1.9818200000000001,1.6633240000000002,0.0011289999999999998,0.502502,0.276627
1031,10.31,-2.507454,1.517519,1.48006,0.044815,0.5046390000000001,0.378891
1032,10.32,-1.9961919999999997,0.842902,1.209217,0.118317,0.475876,0.472641
1033,10.33,-1.067826,0.07364100000000001,0.8307040000000001,0.19927999999999998,0.439651,0.533356
1034,10.34,-0.23116600000000004,-0.6090720000000001,0.477645,0.24614,0.42153900000000005,0.5525359999999999
1035,10.35,0.47525200000000006,-1.176009,0.018561999999999995,0.25679,0.429001,0.5397489999999999
1036,10.36,1.03852,-1.540257,-0.438695,0.234421,0.438583,0.509918
1037,10.37,1.39134,-1.7328270000000001,-0.8214610000000001,0.176895,0.442856,0.465179
1038,10.38,1.521169,-1.8728069999999999,-1.0409680000000001,0.10553,0.431137,0.41618299999999997
1039,10.39,1.425806,-1.8909099999999999,-1.1479629999999998,0.019241,0.42474399999999995,0.36824
1040,10.4,1.138701,-1.8624900000000002,-1.111392,-0.072372,0.41621400000000003,0.327759
1041,10.41,0.709022,-1.748894,-1.065943,-0.162918,0.417282,0.300064
1042,10.42,0.32764499999999996,-1.4519799999999998,-0.949823,-0.235352,0.436462,0.280884
1043,10.43,0.08018600000000001,-1.048525,-0.860815,-0.28009,0.464157,0.271301
1044,10.44,-0.12323599999999998,-0.701647,-0.8121729999999999,-0.299271,0.501434,0.256393
1045,10.45,-0.182922,-0.466765,-0.718306,-0.292877,0.530197,0.23934899999999998
1046,10.46,-0.109134,-0.325868,-0.630111,-0.275833,0.5568390000000001,0.21377600000000002
1047,10.47,-0.054322,-0.17926199999999998,-0.566203,-0.241745,0.569611,0.190338
1048,10.48,0.07544899999999999,-0.099703,-0.546621,-0.186356,0.5674899999999999,0.169037
1049,10.49,0.253176,-0.098767,-0.47635299999999997,-0.114975,0.553635,0.150925
1050,10.5,0.393868,-0.155067,-0.44058,-0.026566000000000003,0.5387270000000001,0.131744
1051,10.51,0.500379,-0.25503400000000004,-0.510984,0.077835,0.5206149999999999,0.113647
1052,10.52,0.531552,-0.32684,-0.667755,0.175842,0.49398800000000004,0.094467
1053,10.53,0.43739300000000003,-0.36849,-0.8957959999999999,0.255737,0.45883199999999996,0.077423
1054,10.54,0.23188899999999998,-0.422241,-1.097787,0.289825,0.43539399999999995,0.059311
1055,10.55,0.132953,-0.564098,-1.319266,0.262115,0.403442,0.047592
1056,10.56,0.04454799999999999,-0.586349,-1.321748,0.21418800000000002,0.39598099999999997,0.045471
1057,10.57,-0.027618,-0.472521,-1.338148,0.163055,0.398117,0.046524
1058,10.58,-0.187943,-0.26609,-1.2534610000000002,0.117249,0.41409300000000004,0.04866
1059,10.59,-0.325022,0.039589,-1.126787,0.09062200000000001,0.456696,0.061447
1060,10.6,-0.379108,0.361552,-1.130479,0.078903,0.5121,0.083817
1061,10.61,-0.443553,0.5795060000000001,-1.036705,0.076767,0.565353,0.117905
1062,10.62,-0.507288,0.686556,-0.9516600000000001,0.078903,0.620758,0.16050699999999998
1063,10.63,-0.5870890000000001,0.683478,-0.903423,0.086349,0.684662,0.203125
1064,10.64,-0.65044,0.727474,-1.014702,0.106598,0.743256,0.240402
1065,10.65,-0.6764479999999999,0.8075640000000001,-1.114889,0.128967,0.799713,0.280884
1066,10.66,-0.5368569999999999,0.81016,-1.184741,0.150269,0.852982,0.308578
1067,10.67,-0.26010900000000003,0.760576,-1.1624709999999998,0.17157,0.884933,0.321365
1068,10.68,-0.002148000000000011,0.725958,-0.969202,0.179031,0.8987879999999999,0.32456999999999997
1069,10.69,0.251772,0.850455,-0.7339439999999999,0.179031,0.904114,0.327759
1070,10.7,0.313431,1.1857280000000001,-0.5544180000000001,0.170517,0.9126280000000001,0.332016
1071,10.71,0.25513,1.7181939999999998,-0.553585,0.15773,0.917953,0.337341
1072,10.72,0.16447,2.146665,-0.43599499999999997,0.158798,0.9030459999999999,0.340546
1073,10.73,-0.11078800000000004,2.362069,-0.126372,0.156662,0.879608,0.351196
1074,10.74,-0.619052,2.329414,0.341514,0.14494300000000002,0.8561709999999999,0.386353
1075,10.75,-1.204966,2.291261,0.701149,0.10446199999999999,0.8647,0.467316
1076,10.76,-1.39622,2.145833,0.928199,0.060791,0.889191,0.5642550000000001
1077,10.77,-1.259361,1.644579,1.12606,0.057587,0.900909,0.671844
1078,10.78,-0.8769979999999999,0.859038,1.516824,0.077835,0.9445950000000001,0.757065
1079,10.79,-0.66418,-0.073405,1.9974150000000002,0.093811,1.028748,0.77623
1080,10.8,-0.416475,-1.064116,2.478907,0.077835,1.1310120000000001,0.744278
1081,10.81,-0.35187199999999996,-1.890581,2.846376,0.038422000000000005,1.2354129999999999,0.678238
1082,10.82,-0.393487,-2.563951,2.9243189999999997,-0.009521,1.341934,0.610062
1083,10.83,-0.571876,-2.9468520000000002,2.538774,-0.03508,1.4228969999999999,0.5525359999999999
1084,10.84,-0.7466649999999999,-2.8958630000000003,1.8273400000000002,-0.028702,1.435684,0.516312
1085,10.85,-0.776153,-2.4361919999999997,1.0365440000000001,-0.007384999999999998,1.367508,0.48968500000000004
1086,10.86,-0.598541,-1.580243,0.374362,0.003265,1.232208,0.457718
1087,10.87,-0.15675499999999998,-0.6077050000000002,-0.07354400000000001,-0.019104,1.078812,0.407654
1088,10.88,0.296817,0.492127,-0.285381,-0.065979,0.937134,0.337341
1089,10.89,0.778593,1.390782,-0.11537,-0.111786,0.8295440000000001,0.232956
1090,10.9,1.164517,1.960419,0.244398,-0.14161700000000002,0.768829,0.107254
1091,10.91,1.409789,2.3061990000000003,0.7005819999999999,-0.129898,0.728348,-0.033371
1092,10.92,1.4488459999999999,2.358654,1.0867870000000002,-0.075562,0.705978,-0.164398
1093,10.93,1.312985,2.0591169999999996,1.390773,-0.0009919999999999998,0.703842,-0.269852
1094,10.94,0.984275,1.511676,1.5862690000000002,0.061859000000000004,0.745392,-0.346558
1095,10.95,0.436332,0.862189,1.579772,0.110855,0.822083,-0.400879
1096,10.96,-0.306871,0.132658,1.116114,0.161987,0.889191,-0.427505
1097,10.97,-0.9863579999999998,-0.483349,0.47181999999999996,0.21205100000000002,0.926483,-0.414734
1098,10.98,-1.49756,-0.993348,-0.199577,0.23655700000000002,0.933945,-0.382767
1099,10.99,-1.873614,-1.221342,-0.739503,0.23123200000000002,0.934998,-0.33696
1100,11.0,-1.995437,-1.364196,-1.046369,0.201401,0.9328770000000001,-0.289032
1101,11.01,-1.970954,-1.3412110000000002,-1.11372,0.15240499999999998,0.9403229999999999,-0.234695
1102,11.02,-1.5963129999999999,-1.295614,-1.122619,0.036285000000000005,0.9637600000000001,-0.180374
1103,11.03,-1.203553,-1.261026,-1.081641,-0.047867000000000014,0.9658969999999999,-0.161194
1104,11.04,-0.8284590000000001,-1.241155,-1.001479,-0.125641,0.969086,-0.159073
1105,11.05,-0.307054,-1.200868,-1.006901,-0.21511799999999998,0.9595030000000001,-0.170776
1106,11.06,-0.054613,-1.0944,-0.9953780000000001,-0.250275,0.942459,-0.189957
1107,11.07,0.149141,-0.9125129999999999,-0.979151,-0.261993,0.921158,-0.20700100000000002
1108,11.08,0.270137,-0.7572810000000001,-0.91596,-0.261993,0.889191,-0.217651
1109,11.09,0.38296199999999997,-0.592342,-0.898177,-0.250275,0.847656,-0.218719
1110,11.1,0.416501,-0.454801,-0.877035,-0.234283,0.790131,-0.211258
1111,11.11,0.51888,-0.36521,-0.9164709999999999,-0.199142,0.700653,-0.193161
1112,11.12,0.5994,-0.282042,-0.9376389999999999,-0.144806,0.594116,-0.16758699999999999
1113,11.13,0.615942,-0.23024699999999998,-0.9456,-0.06704700000000001,0.47267200000000004,-0.132431
1114,11.14,0.6448189999999999,-0.09773,-0.989475,0.026703,0.342712,-0.095154
1115,11.15,0.836758,0.202455,-1.101208,0.19500699999999999,0.139252,-0.035492
1116,11.16,0.789618,0.181258,-1.117265,0.295151,0.018875000000000003,0.0028530000000000014
1117,11.17,0.847332,-0.09064900000000001,-1.2293120000000002,0.34201,-0.07486000000000001,0.042267
1118,11.18,0.8102600000000001,-0.545902,-1.381325,0.33989,-0.159027,0.072098
1119,11.19,0.810754,-1.0865,-1.5998219999999999,0.299408,-0.20483400000000002,0.100861
1120,11.2,0.961363,-1.455293,-1.839738,0.22376999999999997,-0.226135,0.130692
1121,11.21,0.956142,-1.4333040000000001,-2.0222599999999997,0.141754,-0.247437,0.148788
1122,11.22,0.724981,-1.093904,-2.092834,0.06718400000000001,-0.25703400000000004,0.14240999999999998
1123,11.23,0.409453,-0.3922030000000001,-1.985642,6.099999999999856e-05,-0.247437,0.105118
1124,11.24,0.07710800000000001,0.41694499999999995,-1.717852,-0.07344099999999999,-0.21228000000000002,0.03801
1125,11.25,-0.176611,1.060684,-1.346442,-0.130966,-0.16860999999999998,-0.05146799999999999
1126,11.26,-0.189673,1.5358,-0.9401520000000001,-0.14161700000000002,-0.12493900000000001,-0.142029
1127,11.27,-0.091654,1.86641,-0.73261,-0.10539200000000001,-0.09829700000000001,-0.209137
1128,11.28,0.087716,2.058248,-0.787321,-0.037216,-0.084457,-0.243225
1129,11.29,0.125317,2.226213,-0.965873,0.042679,-0.10257000000000001,-0.240021
1130,11.3,-0.02797,2.489303,-1.091012,0.118317,-0.145172,-0.226181
1131,11.31,0.039836,2.805228,-1.226957,0.160919,-0.198441,-0.219788
1132,11.32,0.1128,2.960808,-1.3207790000000001,0.15240499999999998,-0.26873800000000003,-0.217651
1133,11.33,0.029606,2.888407,-1.118115,0.11617999999999999,-0.313492,-0.205933
1134,11.34,0.004578,2.5745720000000003,-0.894273,0.102341,-0.304962,-0.203812
1135,11.35,0.029512000000000007,1.993154,-0.69407,0.126831,-0.27833600000000003,-0.217651
1136,11.36,0.081616,1.318907,-0.540904,0.15773,-0.264481,-0.245346
1137,11.37,0.08416,0.737047,-0.378425,0.163055,-0.27407800000000004,-0.261337
1138,11.38,0.13981,0.6417619999999999,-0.137389,0.12043800000000002,-0.291122,-0.28476
1139,11.39,0.377423,0.790091,0.152853,0.014983999999999997,-0.310287,-0.338028
1140,11.4,0.473196,0.8597229999999999,0.688355,-0.135223,-0.34544400000000003,-0.403015
1141,11.41,0.664283,0.592194,1.450129,-0.256668,-0.391251,-0.454147
1142,11.42,0.573997,-0.17996700000000002,2.122661,-0.296082,-0.424271,-0.492493
1143,11.43,0.464679,-1.056463,2.582784,-0.261993,-0.45196499999999995,-0.514862
1144,11.44,0.498547,-2.461186,2.412717,-0.060654,-0.585129,-0.550018
1145,11.45,0.374525,-2.847092,2.084506,0.070374,-0.6905819999999999,-0.555344
1146,11.46,0.292072,-2.6865330000000003,1.8677740000000003,0.172638,-0.763031,-0.541489
1147,11.47,0.07772200000000001,-2.032234,1.530267,0.23123200000000002,-0.748108,-0.513794
1148,11.48,-0.217376,-1.208305,1.256191,0.225906,-0.692719,-0.46479799999999993
1149,11.49,-0.523664,-0.352272,1.031639,0.169449,-0.622406,-0.401947
1150,11.5,-0.778698,0.439471,0.9718979999999999,0.079956,-0.525467,-0.32418800000000003
1151,11.51,-1.09839,1.117435,0.9634659999999999,-0.005263999999999998,-0.41043100000000005,-0.2379
1152,11.52,-1.35856,1.568065,1.104696,-0.069168,-0.29856900000000003,-0.145218
1153,11.53,-1.344493,1.7709130000000002,1.189717,-0.09793099999999999,-0.196304,-0.035492
1154,11.54,-1.374898,1.5485309999999999,1.400174,-0.085159,-0.12493900000000001,0.073166
1155,11.55,-1.3681370000000002,1.171301,1.506966,-0.028702,-0.10257000000000001,0.169037
1156,11.56,-1.116502,0.839318,1.492926,0.049072000000000005,-0.116409,0.257446
1157,11.57,-0.7179270000000001,0.5094270000000001,1.231143,0.133224,-0.150497,0.326691
1158,11.58,-0.18986000000000006,0.253089,0.835353,0.201401,-0.18246500000000002,0.367172
1159,11.59,0.25149,-0.10727200000000003,0.43667100000000003,0.23974600000000001,-0.196304,0.381027
1160,11.6,0.640621,-0.490726,0.041399999999999985,0.24827600000000002,-0.189911,0.376755
1161,11.61,0.9006719999999999,-0.866826,-0.242731,0.23016399999999998,-0.180328,0.366104
1162,11.62,1.063512,-1.2469620000000001,-0.484941,0.177963,-0.167542,0.353333
1163,11.63,1.193743,-1.6415819999999999,-0.707278,0.106598,-0.149429,0.337341
1164,11.64,1.288677,-1.838302,-0.870964,0.017104999999999995,-0.149429,0.32456999999999997
1165,11.65,1.311554,-1.920604,-0.9785219999999999,-0.072372,-0.161148,0.311783
1166,11.66,1.289879,-1.817174,-1.010472,-0.157593,-0.171799,0.300064
1167,11.67,1.190539,-1.662421,-1.062006,-0.228958,-0.169678,0.279816
1168,11.68,1.094965,-1.456819,-1.059388,-0.28329499999999996,-0.151566,0.256393
1169,11.69,0.9039370000000001,-1.2281549999999999,-0.9894350000000001,-0.31738299999999997,-0.12705999999999998,0.221237
1170,11.7,0.764083,-1.026497,-0.907653,-0.33016999999999996,-0.090851,0.183945
1171,11.71,0.55005,-0.750089,-0.772805,-0.31738299999999997,-0.046112,0.148788
1172,11.72,0.357454,-0.4945,-0.649783,-0.282227,0.0039669999999999974,0.1147
1173,11.73,0.31852199999999997,-0.205975,-0.556653,-0.207657,0.051895000000000004,0.085938
1174,11.74,0.27305300000000005,-0.06148300000000001,-0.433309,-0.10006699999999999,0.095581,0.05719
1175,11.75,0.23644899999999996,0.030025,-0.439909,0.036285000000000005,0.13606300000000002,0.028426999999999997
1176,11.76,0.091536,0.054295,-0.49821499999999996,0.175842,0.17866500000000002,0.00499
1177,11.77,-0.037036,-0.058746000000000013,-0.689466,0.293015,0.21275300000000003,-0.011002
1178,11.78,-0.12481199999999999,-0.325864,-0.8606219999999999,0.366516,0.22979699999999997,-0.022705
1179,11.79,-0.08350700000000001,-0.6518189999999999,-0.972146,0.385696,0.24258400000000002,-0.031235000000000002
1180,11.8,-0.05665,-0.9652459999999999,-1.173683,0.359055,0.24791,-0.05574
1181,11.81,-0.088939,-1.001442,-1.271042,0.300476,0.263885,-0.08343500000000001
1182,11.82,-0.105805,-0.802669,-1.369892,0.22376999999999997,0.30223099999999997,-0.099411
1183,11.83,-0.13625,-0.46230200000000005,-1.4641870000000001,0.159851,0.358688,-0.08343500000000001
1184,11.84,-0.189211,0.07819999999999999,-1.528549,0.11192300000000001,0.419418,-0.037627999999999995
1185,11.85,-0.41274399999999994,0.598405,-1.501072,0.060791,0.470551,0.053985999999999985
1186,11.86,-0.60926,0.8412850000000001,-1.39879,0.025635,0.499313,0.125366
1187,11.87,-0.8079689999999999,1.044014,-1.164344,-0.006316999999999998,0.541916,0.19459500000000002
1188,11.88,-0.96678,1.079899,-1.022784,-0.022308,0.601578,0.257446
1189,11.89,-0.9444899999999999,1.13771,-0.870461,-0.008452999999999999,0.676147,0.30538899999999997
1190,11.9,-0.7589359999999999,1.182358,-0.819098,0.036285000000000005,0.752838,0.341614
1191,11.91,-0.34408099999999997,1.110027,-0.829881,0.110855,0.802917,0.355453
1192,11.92,0.109516,1.228092,-0.8550260000000001,0.174774,0.8146359999999999,0.355453
1193,11.93,0.393993,1.5882209999999999,-0.855514,0.179031,0.796524,0.344803
1194,11.94,0.849973,2.125681,-0.71327,0.11511199999999999,0.7677609999999999,0.339478
1195,11.95,1.465344,2.391637,-0.395611,0.046936,0.715561,0.334152
1196,11.96,1.703829,2.25829,-0.00979499999999997,0.034149,0.631409,0.326691
1197,11.97,1.604506,1.91372,0.292717,0.056534,0.547241,0.325623
1198,11.98,1.460785,1.4112639999999999,0.38410900000000003,0.09487899999999999,0.478012,0.334152
1199,11.99,1.228518,0.8189850000000001,0.415858,0.11617999999999999,0.430069,0.350128
1200,12.0,0.7585310000000001,0.379251,0.49545500000000003,0.085281,0.419418,0.381027
1201,12.01,0.5797359999999999,0.177984,0.6733600000000001,-0.008453000000000002,0.45030200000000004,0.426834
1202,12.02,0.44941099999999995,-0.070511,1.119212,-0.126694,0.454575,0.460922
1203,12.03,0.269706,-0.196107,1.9154959999999999,-0.249207,0.46096800000000004,0.512054
1204,12.04,0.347963,-0.411563,2.736723,-0.328033,0.515289,0.56105
1205,12.05,0.176742,-0.8269770000000001,3.184723,-0.329102,0.582397,0.5855560000000001
1206,12.06,-0.264031,-1.436426,3.09483,-0.259857,0.642059,0.5951390000000001
1207,12.07,-0.869181,-1.9177680000000001,2.582774,-0.151199,0.651642,0.588745
1208,12.08,-1.21081,-2.1534560000000003,1.9413209999999999,-0.029755000000000007,0.617554,0.573837
1209,12.09,-1.117068,-1.805182,1.246499,0.055465999999999994,0.549377,0.5418850000000001
1210,12.1,-0.675025,-1.032076,0.580001,0.09062200000000001,0.438583,0.498199
1211,12.11,-0.023978999999999973,-0.10814200000000003,0.29489899999999997,0.07357799999999999,0.29478499999999996,0.43855299999999997
1212,12.12,0.582627,0.83706,0.344404,0.026702999999999998,0.176529,0.358658
1213,12.13,1.09324,1.582857,0.639361,-0.019104,0.101974,0.25851399999999997
1214,12.14,1.402403,2.066525,1.0473940000000002,-0.036148,0.051895000000000004,0.140274
1215,12.15,1.6811009999999997,2.297461,1.481251,-0.015915000000000002,0.034851,0.01564
1216,12.16,1.877005,2.177142,1.686985,0.040543,0.031662,-0.10366800000000001
1217,12.17,1.982415,1.7576720000000001,1.7482630000000001,0.102341,0.045502,-0.21232600000000001
1218,12.18,1.7635919999999998,1.035419,1.6728470000000002,0.14494300000000002,0.070007,-0.308197
1219,12.19,1.293712,0.344483,1.515231,0.176895,0.106232,-0.37532
1220,12.2,0.763134,-0.286919,1.082493,0.210983,0.15097,-0.420059
1221,12.21,0.13751800000000006,-0.882009,0.474662,0.241882,0.176529,-0.43603500000000006
1222,12.22,-0.487408,-1.406325,-0.16726200000000002,0.25679,0.179733,-0.425385
1223,12.23,-0.953837,-1.762188,-0.7057100000000001,0.24614,0.168015,-0.396622
1224,12.24,-1.226259,-1.984693,-1.1478190000000001,0.198212,0.147766,-0.36039699999999997
1225,12.25,-1.33449,-2.1054060000000003,-1.413176,0.114044,0.12114000000000001,-0.328445
1226,12.26,-1.2787709999999999,-2.120075,-1.5422360000000002,0.009658999999999994,0.09877000000000001,-0.302872
1227,12.27,-1.022399,-2.041498,-1.548549,-0.09687799999999999,0.076401,-0.282639
1228,12.28,-0.728597,-1.7942639999999999,-1.441539,-0.187424,0.058289,-0.266663
1229,12.29,-0.40777399999999997,-1.4352770000000001,-1.232515,-0.25453200000000004,0.044449,-0.25601199999999996
1230,12.3,-0.217768,-1.044678,-1.063568,-0.290756,0.025269,-0.23896799999999999
1231,12.31,-0.065589,-0.686844,-0.9422950000000001,-0.299271,0.008223999999999999,-0.220856
1232,12.32,0.021398,-0.37583099999999997,-0.810263,-0.295013,-0.00563,-0.201675
1233,12.33,0.059057000000000005,-0.175583,-0.700799,-0.272644,-0.016281,-0.184631
1234,12.34,0.065992,-0.087408,-0.580991,-0.23216199999999998,-0.022675,-0.164398
1235,12.35,0.08920700000000001,-0.10833399999999999,-0.486831,-0.174637,-0.027999999999999997,-0.151611
1236,12.36,0.13214800000000002,-0.243876,-0.467009,-0.09687799999999999,-0.041839999999999995,-0.13563499999999998
1237,12.37,0.25409699999999996,-0.366001,-0.597332,-0.019104,-0.061020000000000005,-0.119644
1238,12.38,0.398549,-0.550515,-0.8648370000000001,0.051193,-0.096176,-0.1026
1239,12.39,0.620324,-0.684786,-1.095515,0.109787,-0.151566,-0.08876
1240,12.4,0.885555,-0.703617,-1.199211,0.160919,-0.211227,-0.068512
1241,12.41,1.0869739999999999,-0.678669,-1.313092,0.18649300000000002,-0.27407800000000004,-0.05146799999999999
1242,12.42,1.10505,-0.6639430000000001,-1.271975,0.18222,-0.318817,-0.044022000000000006
1243,12.43,0.9434239999999999,-0.628979,-1.3417540000000001,0.13855,-0.34118699999999996,-0.044022000000000006
1244,12.44,0.7941819999999999,-0.598544,-1.282209,0.082092,-0.34970100000000004,-0.046143
1245,12.45,0.5921390000000001,-0.487858,-1.230676,0.026702999999999998,-0.351837,-0.04509
1246,12.46,0.52946,-0.312205,-1.0474940000000001,-0.015915000000000002,-0.351837,-0.038696
1247,12.47,0.43290500000000004,0.02018700000000001,-0.8941100000000001,-0.053191999999999996,-0.346512,-0.035492
1248,12.48,0.342213,0.5229729999999999,-0.713252,-0.07449299999999999,-0.3284,-0.044022000000000006
1249,12.49,0.312731,0.927104,-0.627583,-0.070236,-0.318817,-0.082367
1250,12.5,0.346031,1.271649,-0.601807,-0.030823000000000003,-0.32521100000000003,-0.13456700000000002
1251,12.51,0.517756,1.32287,-0.717028,0.021378000000000005,-0.34544400000000003,-0.184631
1252,12.52,0.760843,1.220205,-0.8385809999999999,0.06718400000000001,-0.3806,-0.21553000000000003
1253,12.53,0.857648,1.040806,-0.9511290000000001,0.099136,-0.407227,-0.228302
1254,12.54,0.779928,0.819086,-1.055914,0.123642,-0.429596,-0.22192399999999998
1255,12.55,0.548108,0.643031,-1.258371,0.150269,-0.458359,-0.202744
1256,12.56,0.33403499999999997,0.710958,-1.329908,0.169449,-0.510559,-0.184631
1257,12.57,0.27487399999999995,0.9613860000000001,-1.353966,0.176895,-0.565948,-0.179306
1258,12.58,0.425479,1.310026,-1.221249,0.150269,-0.602173,-0.194214
1259,12.59,0.61578,1.6798560000000002,-1.135746,0.110855,-0.597916,-0.21446199999999999
1260,12.6,0.6797890000000001,2.096366,-0.986693,0.093811,-0.560623,-0.228302
1261,12.61,0.64674,2.309114,-0.9168930000000001,0.11511199999999999,-0.495651,-0.241089
1262,12.62,0.6037,2.1833299999999998,-0.753545,0.147079,-0.457291,-0.26239
1263,12.63,0.404789,1.7829700000000002,-0.417724,0.153473,-0.46368400000000004,-0.291153
1264,12.64,0.11449300000000001,1.603944,0.239378,0.114044,-0.500977,-0.329514
1265,12.65,0.30853,1.74655,0.817743,0.037353999999999984,-0.515884,-0.380646
1266,12.66,0.227307,1.816989,1.275431,-0.029755,-0.556366,-0.44988999999999996
1267,12.67,0.057172,1.283097,1.8416099999999997,-0.041473,-0.601105,-0.491425
1268,12.68,-0.027353,0.13103600000000004,2.4504509999999997,-0.022308,-0.636261,-0.509537
1269,12.69,-0.165398,-1.260584,2.74549,-0.008453,-0.669281,-0.518066
1270,12.7,-0.327139,-2.380332,2.794466,-0.004196,-0.723618,-0.532974
1271,12.71,-0.298694,-3.015527,2.437552,6.0999999999999416e-05,-0.789658,-0.544693
1272,12.72,-0.16902999999999999,-3.12335,1.9470939999999999,0.021378,-0.841858,-0.558533
1273,12.73,-0.089537,-2.679634,1.419095,0.051193,-0.857834,-0.562805
1274,12.74,-0.215606,-1.873802,0.883999,0.049072000000000005,-0.821625,-0.5361630000000001
1275,12.75,-0.355873,-0.956944,0.52383,-0.022308,-0.707642,-0.47438
1276,12.76,-0.621583,-0.234508,0.452347,-0.140549,-0.543579,-0.390228
1277,12.77,-1.119956,0.774055,0.556535,-0.28009,-0.297501,-0.226181
1278,12.78,-1.4771290000000001,1.3058319999999999,0.618386,-0.29394499999999996,-0.171799,-0.12071199999999999
1279,12.79,-1.7352889999999999,1.7000950000000001,0.637197,-0.27157600000000004,-0.07380700000000001,-0.01844800000000001
1280,12.8,-1.899401,1.793691,0.682891,-0.233231,-0.018402,0.082748
1281,12.81,-1.7023720000000002,1.526507,0.746082,-0.206589,0.009293000000000001,0.190338
1282,12.82,-1.20271,0.9957969999999999,0.72959,-0.182098,0.011414,0.28834499999999996
1283,12.83,-0.375631,0.42276,0.470822,-0.151199,-0.018402,0.366104
1284,12.84,0.5503799999999999,-0.082207,0.094653,-0.09793099999999999,-0.07486,0.41618299999999997
1285,12.85,1.362018,-0.59563,-0.352044,-0.047867,-0.137711,0.44067399999999995
1286,12.86,2.0226759999999997,-1.170256,-0.853261,-0.025497,-0.186722,0.44067399999999995
1287,12.87,2.375698,-1.719627,-1.1478469999999998,-0.053191999999999996,-0.23252899999999999,0.41618299999999997
1288,12.88,2.469242,-2.248314,-1.35985,-0.130966,-0.260223,0.373566
1289,12.89,2.179586,-2.434914,-1.549531,-0.241745,-0.271942,0.327759
1290,12.9,1.66146,-2.48686,-1.670555,-0.359985,-0.279404,0.271301
1291,12.91,1.063962,-2.2570080000000003,-1.738144,-0.45906099999999994,-0.281525,0.22442600000000001
1292,12.92,0.518316,-1.919961,-1.70008,-0.516586,-0.279404,0.18927
1293,12.93,0.144302,-1.456353,-1.554721,-0.534698,-0.259155,0.167969
1294,12.94,0.004296000000000001,-1.129895,-1.479715,-0.524048,-0.217606,0.148788
1295,12.95,0.062573,-0.857574,-1.328915,-0.503799,-0.171799,0.130692
1296,12.96,0.22637600000000002,-0.5713630000000001,-1.159694,-0.461197,-0.134521,0.113647
1297,12.97,0.47757299999999997,-0.24296700000000002,-1.018786,-0.37384,-0.099365,0.10405
1298,12.98,0.641486,0.008598999999999996,-0.870526,-0.23216199999999998,-0.07913200000000001,0.098724
1299,12.99,0.7393609999999999,0.221619,-0.736679,-0.059586,-0.067413,0.102997
1300,13.0,0.709864,0.322561,-0.694963,0.10871900000000001,-0.046112,0.12004100000000001
1301,13.01,0.612436,0.207006,-0.915041,0.249344,-0.037582,0.133881
1302,13.02,0.418955,-0.174249,-1.223154,0.337753,-0.046112,0.145599
1303,13.03,0.284267,-0.613734,-1.479298,0.362259,-0.055695,0.158386
1304,13.04,0.208017,-0.868166,-1.64353,0.330307,-0.059952,0.15945399999999998
1305,13.05,-0.026963,-0.8392780000000001,-1.66375,0.262115,-0.042908,0.144531
1306,13.06,-0.250244,-0.5743050000000001,-1.621473,0.19500699999999999,0.019943000000000002,0.133881
1307,13.07,-0.35732600000000003,-0.15716,-1.767043,0.142807,0.100906,0.138138
1308,13.08,-0.376372,0.446796,-1.9047060000000002,0.099136,0.153107,0.167969
1309,13.09,-0.385038,0.974124,-1.875916,0.06504800000000001,0.17440799999999998,0.200989
1310,13.1,-0.505268,1.362536,-1.8120740000000002,0.053328999999999994,0.177597,0.232956
1311,13.11,-0.645842,1.745434,-1.6585349999999999,0.051193,0.185059,0.27769499999999997
1312,13.12,-0.7979149999999999,2.1293159999999998,-1.5771190000000002,0.053328999999999994,0.21914699999999998,0.31604
1313,13.13,-0.9069659999999999,2.574449,-1.582984,0.066116,0.28093,0.344803
1314,13.14,-0.822966,3.255214,-1.734391,0.101273,0.35231,0.354385
1315,13.15,-0.17955699999999994,3.989639,-1.5249,0.160919,0.49291999999999997,0.332016
1316,13.16,0.302686,4.033449,-1.10814,0.173706,0.5909270000000001,0.309647
1317,13.17,0.621814,3.9950910000000004,-0.678818,0.147079,0.680405,0.313919
1318,13.18,0.8879459999999999,3.791291,-0.105116,0.078903,0.731537,0.343735
1319,13.19,1.166539,3.060372,0.606466,0.035217,0.724075,0.381027
1320,13.2,0.913607,2.0708900000000003,1.4084079999999999,0.026702999999999998,0.691055,0.432159
1321,13.21,0.539918,1.10415,2.118851,0.014984,0.713425,0.48754899999999995
1322,13.22,-0.039455999999999936,0.05061000000000005,2.57111,-0.025497,0.77095,0.531219
1323,13.23,-0.802086,-0.914866,2.600372,-0.11071800000000001,0.835938,0.5823520000000001
1324,13.24,-1.347579,-1.7125669999999997,2.465932,-0.208725,0.9030459999999999,0.646271
1325,13.25,-1.822183,-2.388559,2.059798,-0.268372,0.9563139999999999,0.695282
1326,13.26,-2.365792,-2.9527930000000002,1.484976,-0.250275,0.937134,0.731491
1327,13.27,-2.441026,-3.1664529999999997,0.8858299999999999,-0.184219,0.8561709999999999,0.763458
1328,13.28,-1.809549,-2.807071,0.337455,-0.12883,0.750717,0.791153
1329,13.29,-0.70404,-1.745934,-0.01413600000000001,-0.12350499999999999,0.625015,0.782623
1330,13.3,0.33019,-0.64873,-0.11218800000000001,-0.16078199999999998,0.49291999999999997,0.711258
1331,13.31,1.396598,0.396413,0.11121099999999999,-0.212982,0.382126,0.5866239999999999
1332,13.32,2.4867529999999998,1.5145309999999998,0.526415,-0.268372,0.29797399999999996,0.406586
1333,13.33,3.392287,2.290314,1.045108,-0.295013,0.231934,0.1978
1334,13.34,3.975825,2.6054880000000002,1.645874,-0.306732,0.226608,0.003921999999999995
1335,13.35,3.840779,2.367271,1.9867130000000002,-0.274765,0.270279,-0.172913
1336,13.36,3.2610200000000003,1.786787,1.9203310000000002,-0.189545,0.330994,-0.315659
1337,13.37,2.170896,1.112593,1.39749,-0.089417,0.382126,-0.432846
1338,13.38,0.805611,0.379284,0.576723,0.010727,0.41195699999999996,-0.507401
1339,13.39,-0.569832,-0.516061,-0.271277,0.089554,0.430069,-0.5383
1340,13.4,-1.696375,-1.47123,-1.122436,0.128967,0.417282,-0.514862
1341,13.41,-2.411879,-2.360288,-1.7600770000000001,0.134293,0.38745100000000005,-0.469055
1342,13.42,-2.729755,-2.966621,-2.108864,0.122574,0.35336300000000004,-0.41046099999999996
1343,13.43,-2.593669,-3.2882339999999997,-2.252844,0.089554,0.326736,-0.351883
1344,13.44,-2.2764919999999997,-3.4199599999999997,-2.139049,0.033096,0.326736,-0.309265
1345,13.45,-1.6622439999999998,-3.1961209999999998,-2.117258,-0.027633999999999995,0.339523,-0.2901
1346,13.46,-1.1625860000000001,-2.905742,-2.16171,-0.088348,0.34910599999999997,-0.292221
1347,13.47,-0.686868,-2.545969,-2.172858,-0.157593,0.342712,-0.30714400000000003
1348,13.48,-0.273733,-2.10026,-2.130867,-0.221512,0.330994,-0.312469
1349,13.49,0.011523000000000005,-1.6047360000000002,-2.0319830000000003,-0.273712,0.305435,-0.30714400000000003
1350,13.5,0.189651,-1.077872,-1.934694,-0.296082,0.274536,-0.285828
1351,13.51,0.21614499999999998,-0.49067700000000003,-1.8260720000000001,-0.279037,0.21168499999999998,-0.25387600000000005
1352,13.52,0.203875,0.098791,-1.581958,-0.20233199999999998,0.132858,-0.222977
1353,13.53,0.16586700000000001,0.5817319999999999,-1.279733,-0.072372,0.035918999999999986,-0.184631
1354,13.54,0.17851199999999998,0.957701,-0.959706,0.11192299999999998,-0.067413,-0.140961
1355,13.55,0.27924499999999997,0.9855709999999999,-0.8588530000000001,0.319641,-0.192047,-0.095154
1356,13.56,0.6888890000000001,0.456908,-1.0402930000000001,0.547607,-0.37206999999999996,-0.04509
1357,13.57,0.9240790000000001,-0.24858900000000006,-1.153894,0.5827640000000001,-0.458359,-0.032303
1358,13.58,1.146203,-0.8913709999999999,-1.32216,0.522049,-0.499908,-0.031235000000000002
1359,13.59,1.2290969999999999,-1.041221,-1.491201,0.382492,-0.505234,-0.038696
1360,13.6,0.978101,-0.366931,-1.6888290000000001,0.238693,-0.48925799999999997,-0.041885000000000006
1361,13.61,0.5174449999999999,0.941742,-1.863359,0.13536099999999998,-0.43066400000000005,-0.041885000000000006
1362,13.62,0.261386,2.429739,-1.863674,0.09487899999999999,-0.369949,-0.037627999999999995
1363,13.63,0.29907399999999995,3.5287029999999997,-1.7079060000000001,0.100204,-0.32521100000000003,-0.030167000000000003
1364,13.64,0.42353100000000005,4.103642,-1.363493,0.127899,-0.303894,-0.022705
1365,13.65,0.628947,4.481808999999999,-1.083284,0.169449,-0.283661,-0.020584
1366,13.66,1.025978,4.768857,-0.9514610000000001,0.233368,-0.307098,-0.05574
1367,13.67,1.414814,4.776848,-0.7011,0.28022800000000003,-0.382721,-0.13030999999999998
1368,13.68,1.599712,4.335473,-0.156675,0.283432,-0.461563,-0.257065
1369,13.69,1.360006,3.471657,0.672481,0.24720799999999998,-0.5499729999999999,-0.42112700000000003
1370,13.7,0.8393790000000001,2.3267189999999998,1.6618110000000001,0.188614,-0.588318,-0.595825
1371,13.71,0.571843,0.698392,2.784202,0.089554,-0.546783,-0.749222
1372,13.72,0.335468,-0.8663430000000001,3.580133,-0.031891,-0.476471,-0.881317
1373,13.73,0.5705140000000001,-1.7567240000000002,3.739531,-0.143738,-0.416824,-0.985718
1374,13.74,0.459372,-2.216523,3.231405,-0.184219,-0.44451899999999994,-1.079453
1375,13.75,-0.033030999999999984,-2.30335,2.408868,-0.103256,-0.53186,-1.1273959999999998
1376,13.76,-0.8273590000000001,-1.9719939999999998,1.903241,0.014984000000000003,-0.626678,-1.099701
1377,13.77,-1.185777,-1.413238,1.7571740000000002,0.078903,-0.63945,-1.010208
1378,13.78,-1.15951,-0.7182649999999999,1.7151040000000002,0.077835,-0.617081,-0.879181
1379,13.79,-1.121903,-0.11875200000000002,1.789779,0.035217,-0.580872,-0.716202
1380,13.8,-1.359091,0.46252299999999996,1.903373,-0.023361,-0.5371859999999999,-0.5265810000000001
1381,13.81,-2.294843,0.969068,1.859213,-0.072372,-0.44984399999999997,-0.326309
1382,13.82,-3.4185519999999996,1.176909,1.393718,-0.090485,-0.36248800000000003,-0.128174
1383,13.83,-4.51347,1.095888,0.811669,-0.090485,-0.293243,0.085938
1384,13.84,-4.594352,0.8312200000000001,0.558318,-0.090485,-0.22506700000000002,0.294739
1385,13.85,-3.6983919999999997,0.47474399999999994,0.595132,-0.063843,-0.132385,0.459854
1386,13.86,-2.551382,0.027801999999999997,0.612159,-0.016983,-0.010956,0.5504
1387,13.87,-0.636263,-0.4825200000000001,0.38727,0.046936,0.076401,0.627106
1388,13.88,0.462261,-1.427443,0.09035900000000001,0.117249,0.08065800000000001,0.6761020000000001
1389,13.89,1.50434,-2.508701,-0.182996,0.165176,0.12646500000000002,0.699539
1390,13.9,2.4571240000000003,-3.37839,-0.665542,0.163055,0.197845,0.698471
1391,13.91,3.5624599999999997,-3.9983690000000003,-1.356759,0.103394,0.235123,0.662247
1392,13.92,4.395008,-4.411569999999999,-1.768391,-0.0041959999999999975,0.191452,0.6026
1393,13.93,4.686941,-4.372935,-1.809584,-0.145874,0.119019,0.5237729999999999
1394,13.94,4.311093,-3.848152,-1.685662,-0.299271,0.060425,0.43855299999999997
1395,13.95,3.19251,-2.979062,-1.509787,-0.43350200000000005,0.015686000000000002,0.350128
1396,13.96,1.782829,-2.0385619999999998,-1.255362,-0.515518,0.022078999999999998,0.262772
1397,13.97,0.5553710000000001,-1.219655,-0.9441229999999999,-0.5368189999999999,0.072144,0.195663
