,ts,ax,ay,az,wx,wy,wz
0,0.0,-0.014632,-0.006741,0.100591,0.00235,-0.016769,-0.0025329999999999997
1,0.01,-0.008143000000000001,0.01438,0.12113900000000001,0.009811,-0.014633000000000002,-0.0046689999999999995
2,0.02,-0.020132,0.019174,0.161413,0.009811,-0.0071719999999999996,-0.0046689999999999995
3,0.03,0.015609,0.045939,0.14935199999999998,0.014069,-0.001846,-0.005722
4,0.04,-0.027222000000000003,0.00988,0.055783000000000006,0.014069,0.002411,-0.005722
5,0.05,-0.035901999999999996,-0.041104,-0.006935000000000004,0.016205,-0.001846,-0.0046689999999999995
6,0.06,-0.04628,-0.0796,-0.066456,0.011932,-0.0039829999999999996,-0.0014650000000000002
7,0.07,-0.04835,-0.061837,-0.09777999999999999,0.008743,-0.00824,-0.000397
8,0.08,-0.029403,-0.031116000000000005,-0.097057,0.00235,-0.009308,0.002792
9,0.09,0.005021000000000001,-0.022772,-0.050364,0.001282,-0.015701,0.00386
10,0.1,0.044273000000000014,-0.023653999999999998,-0.070208,0.00021400000000000002,-0.01889,0.0017240000000000005
11,0.11,0.039268,0.0036439999999999975,-0.008848,0.00235,-0.01889,0.004929
12,0.12,0.03027,0.04521,0.023354000000000003,0.005554,-0.024215999999999998,0.00386
13,0.13,0.00044100000000000004,0.018981,0.038848,0.006606999999999999,-0.026351999999999997,0.002792
14,0.14,-0.006284999999999999,0.035776999999999996,0.042825,0.009811,-0.02742,0.004929
15,0.15,0.004188999999999997,0.026933999999999996,0.084716,0.011932,-0.028488,0.0006559999999999999
16,0.16,-0.022192,-0.008511999999999997,0.09361799999999999,0.015137000000000001,-0.026351999999999997,0.0017239999999999998
17,0.17,-0.03707,-0.030256,0.030430000000000002,0.016205,-0.021027,0.0017239999999999998
18,0.18,-0.026563999999999997,-0.019178999999999998,0.008965,0.015137000000000001,-0.016769,0.002792
19,0.19,-0.047585,-0.05202999999999999,-0.009492999999999998,0.009811,-0.011444,0.0006560000000000001
20,0.2,-0.022328999999999998,-0.05581799999999999,-0.028087,0.003418,-0.009308,0.0017239999999999998
21,0.21,-0.030534,-0.053860000000000005,-0.04063,0.0012820000000000002,-0.00824,0.00386
22,0.22,-0.010971,-0.032082,-0.054937,-0.001907,-0.00824,0.002792
23,0.23,0.026937,-0.048676,-0.058869000000000005,-0.008301000000000001,-0.010376,0.0017239999999999998
24,0.24,0.010684,-0.018536,-0.042928000000000015,-0.010437,-0.011444,0.00386
25,0.25,-0.016412,-0.014027000000000001,0.016676,-0.013626,-0.014633000000000002,0.002792
26,0.26,-0.017804,0.040076,0.015792,-0.012558,-0.009308,0.00386
27,0.27,-0.03444,0.063052,0.034788,-0.0061649999999999995,-0.00824,0.00386
28,0.28,-0.001059000000000001,0.067967,0.042001,-0.005111999999999999,-0.005051,0.0017239999999999998
29,0.29,0.003324000000000001,0.03022,0.050562,-0.0008389999999999995,-0.0007929999999999999,-0.000397
30,0.3,0.00975,0.062020000000000006,0.06607,0.003418,-0.002914,-0.00039700000000000016
31,0.31,0.038624,-0.004291,0.045718,0.008743,-0.001846,-0.000397
32,0.32,0.017159999999999998,-0.0009979999999999989,0.003146,0.010879999999999999,-0.002914,-0.000397
33,0.33,0.013890999999999999,-0.027096,-0.041984,0.011932,-0.002914,0.0006560000000000001
34,0.34,0.027989,-0.014747999999999999,-0.038633999999999995,0.008743,-0.005051,0.0006560000000000001
35,0.35,0.009376,-0.022779,-0.055787,0.005554,-0.0061189999999999994,0.005997
36,0.36,-0.015869,-0.063723,-0.072934,0.0012820000000000002,-0.001846,0.00386
37,0.37,-0.033091,-0.046286,-0.053777,-0.002975,-0.001846,0.002792
38,0.38,0.005301,-0.01399000000000001,-0.060189,-0.004044,-0.0007929999999999999,0.000656
39,0.39,-0.037298000000000005,0.0047079999999999995,-0.006555999999999999,-0.007233,0.001343,0.0006560000000000001
40,0.4,0.037488,-0.010706,-0.0046630000000000005,-0.007233,0.003479,-0.0014650000000000002
41,0.41,0.008839,0.032501999999999996,-0.015222,-0.0061649999999999995,0.007736,-0.001465
42,0.42,0.012301000000000001,0.018857,0.043543,-0.002975,0.008804000000000001,0.0006560000000000001
43,0.43,0.020931,0.00834,0.025071,0.00021400000000000002,0.010925,-0.000397
44,0.44,-0.026815,0.042412,0.02735,0.00235,0.007736,-0.0014650000000000002
45,0.45,0.016615,0.026351999999999997,0.012756000000000005,0.003418,0.007736,0.0027919999999999998
46,0.46,0.020298,0.00047499999999999973,0.006037000000000001,0.0044859999999999995,0.006668,0.002792
47,0.47,-0.016262000000000002,-0.002555,-0.016352999999999996,0.0044859999999999995,0.006668,0.002792
48,0.48,0.0060869999999999995,-0.00014099999999999963,-0.015266,0.00235,0.009872,0.005997
49,0.49,-0.008588,-0.029044,0.015674999999999994,0.00235,0.010925,0.004929
50,0.5,-0.017145,-0.044307,-0.040887,-0.0008390000000000001,0.011993,0.004929
51,0.51,-0.017754,-0.023576,-0.027150999999999998,-0.0008390000000000001,0.008804000000000001,0.00386
52,0.52,0.022484,0.040075,-0.030008,-0.0008390000000000001,0.0056,0.0017239999999999998
53,0.53,0.024335,0.0052899999999999996,0.0013230000000000013,0.0012820000000000002,0.0056,0.002792
54,0.54,0.040201,0.052234,-0.006738000000000001,0.003418,0.0056,0.002792
55,0.55,0.053551999999999995,0.04415,0.024245,0.007675,-0.0007929999999999999,0.002792
56,0.56,0.081225,0.052615999999999996,-0.005155,0.008743,0.00027500000000000007,0.00386
57,0.57,0.063335,0.054613999999999996,0.035745000000000006,0.011932,-0.0007929999999999999,-0.000397
58,0.58,0.046256,0.031266,0.07703499999999999,0.015137000000000001,-0.001846,0.0017239999999999998
59,0.59,0.021582,-0.009217999999999995,0.028846,0.018326,-0.002914,-0.000397
60,0.6,0.020497,-0.012155,0.007428,0.022598,-0.005051,0.0017239999999999998
61,0.61,-0.0007659999999999992,-0.015321,-0.031411,0.023651,-0.00824,0.0017239999999999998
62,0.62,0.024551000000000003,-0.00025599999999999934,-0.047698000000000004,0.022598,-0.011444,0.0017239999999999998
63,0.63,-0.005133999999999998,-0.013819999999999999,-0.039633999999999996,0.017258000000000003,-0.010376,0.0017239999999999998
64,0.64,-0.02248,-0.041068,-0.048985,0.016205,-0.009308,0.002792
65,0.65,-0.0034800000000000005,0.009776,-0.057638999999999996,0.011932,-0.0061189999999999994,0.002792
66,0.66,-0.02434,-0.016549,0.0066659999999999974,0.005554,-0.002914,0.0017239999999999998
67,0.67,-0.040812,0.007915,0.021174000000000002,0.00235,0.001343,0.0006559999999999999
68,0.68,-0.020999,-0.019466,0.040038,0.00235,0.005600000000000001,0.0017239999999999998
69,0.69,-0.027173000000000003,0.004572,0.055383,0.00021400000000000002,0.0056,0.000656
70,0.7,0.011022,-0.007118000000000001,0.018362,0.003418,0.004547,-0.000397
71,0.71,0.022375000000000003,-0.043265,0.010611,0.00235,0.001343,-0.002533
72,0.72,0.058635,0.0065930000000000025,-0.004190999999999999,0.005554,-0.005051,-0.000397
73,0.73,0.055642,0.012989999999999998,-0.017185,0.006606999999999999,-0.0071719999999999996,-0.0003970000000000002
74,0.74,0.049784,-0.0009779999999999997,-0.045716,0.008743,-0.009308,0.0006560000000000001
75,0.75,0.061346000000000005,0.010422000000000004,-0.048499,0.007675,-0.00824,-0.000397
76,0.76,0.034645999999999996,-0.027627,-0.030881,0.003418,-0.0061189999999999994,-0.0025329999999999997
77,0.77,0.025867,-0.024738,-0.018655,0.00235,-0.0071719999999999996,-0.0025329999999999997
78,0.78,0.022876,-0.039288,-0.012496,0.00021400000000000002,-0.009308,-0.0014650000000000002
79,0.79,-0.023318000000000002,-0.0013960000000000016,-0.031876999999999996,-0.0008390000000000001,-0.011444,-0.0025329999999999997
80,0.8,-0.009275,-0.023778,-0.037745999999999995,-0.002975,-0.013565,-0.000397
81,0.81,-0.028183,0.0029600000000000013,-0.024763999999999998,-0.005111999999999999,-0.014633000000000002,-0.001465
82,0.82,-0.025044,0.004636,0.004815,-0.004044,-0.011444,0.002792
83,0.83,0.004691000000000001,0.01051,-0.0039970000000000006,-0.002975,-0.009308,0.002792
84,0.84,-0.018821,-0.0005020000000000023,0.044125,-0.004044,-0.00824,0.00386
85,0.85,0.012629000000000001,0.028763,0.021918,-0.0008390000000000001,-0.0061189999999999994,0.005997
86,0.86,0.002844,-0.013541,0.021137,-0.002975,-0.00824,0.008118
87,0.87,0.015847999999999998,-0.00731,0.035948,-0.005111999999999999,-0.011444,0.005997
88,0.88,-0.015005000000000001,0.0023630000000000005,0.057477,-0.005111999999999999,-0.011444,0.008118
89,0.89,-0.002411,-0.002376,0.040223,-0.002975,-0.011444,0.010254000000000001
90,0.9,0.005765999999999999,0.009871,0.083012,0.0012820000000000002,-0.009308,0.00705
91,0.91,0.0067929999999999996,0.057464,0.102925,0.001282,-0.00824,0.002792
92,0.92,0.022175,0.034564,0.11132,0.008743,-0.0061189999999999994,0.00386
93,0.93,0.0008989999999999989,0.015490999999999996,0.04949,0.013000000000000001,-0.010376,0.0006560000000000001
94,0.94,-0.019136,-0.00018099999999999974,0.033969,0.015137000000000001,-0.0071719999999999996,-0.000397
95,0.95,-0.044976999999999996,-0.019184,-0.027076000000000003,0.013000000000000001,-0.002914,0.0017239999999999998
96,0.96,-0.044022000000000006,-0.007116000000000002,-0.058796,0.015137000000000001,-0.001846,0.0017239999999999998
97,0.97,-0.063157,-0.033578,-0.091546,0.013000000000000001,-0.001846,0.00386
98,0.98,-0.06905499999999999,-0.043169,-0.064467,0.007675,0.0013429999999999994,0.00386
99,0.99,-0.033176,0.005824000000000001,-0.0584,0.007675,0.002411,0.00705
100,1.0,-0.018394999999999998,-0.0013120000000000009,-0.080813,0.007675,0.00027500000000000007,0.005997
101,1.01,0.002485,0.0037909999999999992,-0.083649,0.005554,-0.001846,0.004929
102,1.02,-0.003273,0.0030150000000000003,-0.06661900000000001,0.0012820000000000002,0.001343,0.004929
103,1.03,-0.015275,0.02416,-0.021686,0.00235,0.001343,0.0017239999999999998
104,1.04,-0.011554,0.0011569999999999985,-0.002771,0.003418,-0.001846,0.0017239999999999998
105,1.05,-0.05706,0.00992,-0.014666000000000004,0.0044859999999999995,-0.002914,0.0017239999999999998
106,1.06,-0.030423000000000002,0.028827,-0.024124,0.006606999999999999,-0.002914,0.002792
107,1.07,0.005679,0.002357,0.018734999999999998,0.006606999999999999,-0.001846,0.002792
108,1.08,0.015374,-0.035682,0.0050409999999999995,0.008743,0.002411,0.00386
109,1.09,0.013163999999999999,-0.008468,0.013086000000000002,0.009811,0.003479,0.002792
110,1.1,0.016817,-0.017854,0.041089999999999995,0.009811,0.0056,0.00386
111,1.11,-0.021151,-0.012371,0.0091,0.011932,0.0056,0.004929
112,1.12,-0.020995,-0.010887,0.029557,0.011932,0.0056,0.00386
113,1.13,-0.043273,-0.031528,-0.0006019999999999999,0.008743,0.0056,0.00386
114,1.14,-0.043869,-0.028266000000000003,-0.039484,0.008743,0.006668,0.002792
115,1.15,-0.07471900000000001,0.0004429999999999998,-0.027106,0.006606999999999999,0.006668,0.002792
116,1.16,-0.07132100000000001,0.009469000000000002,-0.011881000000000001,0.006606999999999999,0.007736,0.0017239999999999998
117,1.17,-0.03696,0.046466,0.029168,0.008743,0.009872,-0.000397
118,1.18,-0.0014700000000000008,0.02715,0.029902,0.009811,0.014130000000000002,0.0017240000000000005
119,1.19,-0.00021099999999999936,0.043617,0.067513,0.013000000000000001,0.020523,0.0017240000000000005
120,1.2,0.006706,0.014403999999999998,0.061141999999999995,0.014069,0.02478,0.002792
121,1.21,0.016006,0.006869,0.089635,0.017258000000000003,0.02478,0.0017239999999999998
122,1.22,-0.006661,-0.014782999999999998,0.024767,0.017258000000000003,0.025848000000000003,0.0017239999999999998
123,1.23,-0.0303,-0.015928,-0.012162000000000001,0.018326,0.02478,0.0006560000000000001
124,1.24,-0.038147,-0.059497,-0.006640000000000001,0.015137000000000001,0.023712,-0.0025329999999999997
125,1.25,-0.016156999999999998,-0.049717000000000004,-0.043466999999999985,0.016205,0.022644,-0.00039700000000000016
126,1.26,0.010792,-0.02101,-0.044554,0.010879999999999999,0.022644,0.0006560000000000001
127,1.27,-0.011087,-0.037793,-0.012252,0.014069,0.020523,0.0006560000000000001
128,1.28,0.004398,-0.005425999999999999,0.001254,0.015137000000000001,0.026917,0.0017239999999999998
129,1.29,0.017961,0.020641999999999997,-0.034460000000000005,0.014069,0.034363,0.0017239999999999998
130,1.3,0.027318000000000002,0.032174,-0.037906999999999996,0.009811,0.042892,0.000656
131,1.31,0.051716,0.033817,-0.08041,0.010879999999999999,0.042892,0.002792
132,1.32,0.083041,0.030657999999999998,-0.12229200000000001,0.020462,0.026917,0.004929
133,1.33,0.083845,0.056041999999999995,-0.12056800000000001,0.014069,0.007736,0.010254000000000001
134,1.34,0.135962,0.03754,-0.134055,0.0012820000000000002,-0.009308,0.013443
135,1.35,0.171073,0.107252,-0.11557200000000001,-0.004044,-0.023163,0.0177
136,1.36,0.12799000000000002,0.116592,-0.125155,-0.0008390000000000001,-0.0466,0.024094
137,1.37,0.185334,0.14377,-0.11535,0.001282,-0.083878,0.02623
138,1.38,0.290719,0.083913,-0.08522,-0.0008390000000000001,-0.11264,0.033691000000000006
139,1.39,0.47033400000000003,-0.028455,-0.245675,-0.01683,-0.116898,0.04541
140,1.4,0.488601,-0.078007,-0.403088,-0.040253,-0.094528,0.05499299999999999
141,1.41,0.48943000000000003,-0.13024000000000002,-0.585723,-0.07115199999999999,-0.070023,0.070969
142,1.42,0.523948,-0.205244,-0.669856,-0.109497,-0.057250999999999996,0.077362
143,1.43,0.519951,-0.339573,-0.604562,-0.14572100000000002,-0.06897,0.075226
144,1.44,0.448273,-0.42489899999999997,-0.505783,-0.172348,-0.080688,0.072037
145,1.45,0.360036,-0.472203,-0.42111899999999997,-0.196854,-0.08280900000000001,0.07310499999999999
146,1.46,0.309754,-0.42719399999999996,-0.321755,-0.22135900000000003,-0.058303999999999995,0.07310499999999999
147,1.47,0.376573,-0.380387,-0.246558,-0.23201,-0.026351999999999997,0.076294
148,1.48,0.41826899999999995,-0.328216,-0.294236,-0.22987399999999997,-0.0039829999999999996,0.077362
149,1.49,0.494237,-0.30898200000000003,-0.370001,-0.226685,0.015198,0.080551
150,1.5,0.568782,-0.274829,-0.422886,-0.22880599999999998,0.036499000000000004,0.084824
151,1.51,0.613796,-0.24297800000000003,-0.402362,-0.244797,0.046082,0.085876
152,1.52,0.651223,-0.214592,-0.286375,-0.26503000000000004,0.050339,0.089081
153,1.53,0.683008,-0.116799,-0.11094100000000001,-0.27355999999999997,0.043961,0.089081
154,1.54,0.683381,-0.056166999999999995,-0.04887799999999999,-0.279938,0.033295,0.093338
155,1.55,0.672642,0.049192,0.013276,-0.27355999999999997,0.034363,0.096542
156,1.56,0.667966,0.11423299999999999,0.023229,-0.260773,0.027969,0.10293599999999999
157,1.57,0.719229,0.160444,-0.027016000000000002,-0.241592,0.026917,0.10293599999999999
158,1.58,0.693596,0.159399,-0.103361,-0.236267,0.035431,0.098663
159,1.59,0.673988,0.179887,-0.192364,-0.235199,0.049286,0.096542
160,1.6,0.664714,0.077914,-0.24360500000000002,-0.235199,0.063126,0.08694500000000001
161,1.61,0.638166,0.008545999999999998,-0.290873,-0.241592,0.085495,0.076294
162,1.62,0.633699,-0.022304,-0.325679,-0.247986,0.10786400000000002,0.060318
163,1.63,0.561258,-0.101909,-0.30883499999999997,-0.260773,0.13983199999999998,0.043274
164,1.64,0.516098,-0.18893,-0.268936,-0.268219,0.158997,0.027298000000000003
165,1.65,0.41250600000000004,-0.298238,-0.210644,-0.281006,0.17924500000000002,0.010254000000000001
166,1.66,0.314116,-0.432145,-0.11924000000000001,-0.296982,0.198425,-0.005722
167,1.67,0.21222,-0.569604,-0.005616999999999997,-0.319366,0.225052,-0.008926
168,1.68,0.070107,-0.737899,0.14532899999999999,-0.35025,0.270859,-0.011063
169,1.69,-0.064426,-0.8705950000000001,0.291617,-0.38327,0.337967,-0.016388
170,1.7,-0.406339,-1.0717299999999998,0.436003,-0.417358,0.42211899999999997,-0.02597
171,1.71,-0.7170920000000001,-1.297584,0.438468,-0.435471,0.492432,-0.020645
172,1.72,-1.1084180000000001,-1.261395,0.117173,-0.438675,0.5499569999999999,-0.006790000000000001
173,1.73,-1.527198,-1.214532,-0.268592,-0.432281,0.597885,0.00705
174,1.74,-1.709877,-0.8955620000000001,-0.7308640000000001,-0.392868,0.594696,0.034744
175,1.75,-1.6458970000000002,-0.50488,-1.220333,-0.354507,0.567001,0.05925
176,1.76,-1.485838,0.103748,-1.491365,-0.330017,0.482849,0.069901
177,1.77,-1.279367,0.8278260000000001,-1.628829,-0.320419,0.392288,0.084824
178,1.78,-0.8698600000000001,1.621718,-1.552247,-0.319366,0.301743,0.080551
179,1.79,-0.409186,2.176559,-1.417899,-0.316162,0.208008,0.061386
180,1.8,0.052769999999999984,2.486624,-1.219455,-0.29486100000000004,0.10893199999999999,0.037949000000000004
181,1.81,0.47231999999999996,2.647263,-1.188137,-0.252243,0.032242,0.011322
182,1.82,0.9703459999999999,2.632797,-1.166569,-0.204315,-0.017838,-0.028107
183,1.83,1.124106,2.368989,-1.138841,-0.149979,-0.057250999999999996,-0.082428
184,1.84,0.8331430000000001,1.9584380000000001,-1.100055,-0.07968099999999999,-0.08494600000000001,-0.153793
185,1.85,0.34431300000000004,1.363703,-1.067652,-0.011505,-0.073227,-0.214523
186,1.86,-0.27237,0.750428,-1.161533,0.037506,-0.029555999999999995,-0.268845
187,1.87,-0.8416020000000001,0.16631799999999994,-1.2978379999999998,0.067337,0.026917000000000003,-0.30932600000000005
188,1.88,-1.333647,-0.330284,-1.460792,0.06413300000000001,0.09295700000000001,-0.327438
189,1.89,-1.7372610000000002,-0.817483,-1.6028040000000001,0.041763,0.147278,-0.328506
190,1.9,-1.93697,-1.199316,-1.7242240000000002,-0.0019070000000000024,0.185638,-0.306137
191,1.91,-2.029866,-1.430536,-1.8459020000000002,-0.055175999999999996,0.208008,-0.279495
192,1.92,-1.9060650000000001,-1.5017479999999999,-1.9562830000000002,-0.12442,0.200546,-0.24540700000000001
193,1.93,-1.5973469999999999,-1.509493,-1.9834209999999999,-0.191528,0.16539,-0.205994
194,1.94,-1.1899469999999999,-1.344752,-1.9747810000000001,-0.254379,0.111069,-0.169785
195,1.95,-0.8606590000000001,-1.090343,-1.8064830000000003,-0.309769,0.058868,-0.14209000000000002
196,1.96,-0.5054069999999999,-0.756944,-1.670052,-0.35131799999999996,0.004546999999999999,-0.11438
197,1.97,-0.287056,-0.466871,-1.404276,-0.379013,-0.044464,-0.097336
198,1.98,-0.176955,-0.191606,-1.232559,-0.376877,-0.076416,-0.076035
199,1.99,-0.16075899999999999,-0.022506,-1.106632,-0.35131799999999996,-0.096664,-0.057922
200,2.0,-0.14064200000000002,0.06845599999999999,-1.0513860000000002,-0.309769,-0.114777,-0.041946
201,2.01,-0.287846,0.070004,-1.109332,-0.268219,-0.128616,-0.019577
202,2.02,-0.49296899999999994,0.070216,-1.179134,-0.23201,-0.139267,-0.0003969999999999998
203,2.03,-0.626801,0.068121,-1.28975,-0.20857199999999998,-0.14565999999999998,0.011322
204,2.04,-0.8014979999999999,0.11631,-1.35995,-0.180878,-0.158447,0.020905
205,2.05,-0.9263129999999999,0.169753,-1.476907,-0.144653,-0.186142,0.023041
206,2.06,-0.9461040000000001,0.168673,-1.565024,-0.116959,-0.209579,0.019836000000000003
207,2.07,-0.9376129999999999,0.158229,-1.644322,-0.095657,-0.233017,0.012375
208,2.08,-0.8601209999999999,0.086623,-1.7389830000000002,-0.085007,-0.263901,0.0017239999999999998
209,2.09,-0.776934,-0.021235000000000004,-1.791596,-0.087128,-0.306519,-0.013183999999999998
210,2.1,-0.488221,0.061935000000000004,-1.879299,-0.10524000000000001,-0.370438,-0.030227999999999998
211,2.11,-0.31287600000000004,0.224976,-1.886998,-0.120148,-0.42796300000000004,-0.041946
212,2.12,-0.192189,0.615993,-1.9757240000000003,-0.12442,-0.50679,-0.052597000000000005
213,2.13,-0.129743,1.031075,-2.07177,-0.11802699999999999,-0.588806,-0.063248
214,2.14,-0.2652,1.510631,-2.1732099999999996,-0.10524000000000001,-0.675095,-0.07710299999999999
215,2.15,-0.537886,1.9241560000000002,-2.202195,-0.09138500000000001,-0.748596,-0.084564
216,2.16,-0.948973,2.237666,-2.0678360000000002,-0.06475800000000001,-0.79335,-0.08989
217,2.17,-1.5861450000000001,2.340856,-1.951559,-0.0029749999999999985,-0.82637,-0.087753
218,2.18,-2.346145,2.355391,-1.851806,0.088638,-0.843414,-0.07496599999999999
219,2.19,-3.0011650000000003,2.3860240000000004,-1.672007,0.17385899999999999,-0.8423459999999999,-0.050476
220,2.2,-3.447236,2.586913,-1.4955559999999999,0.217529,-0.833817,-0.030227999999999998
221,2.21,-3.5505,2.970293,-1.13986,0.18876600000000002,-0.8359530000000001,-0.024902
222,2.22,-3.3370330000000004,3.246608,-0.621949,0.104614,-0.813583,-0.018509
223,2.23,-2.804009,3.278888,0.026901000000000064,0.020462,-0.750732,-0.0025330000000000005
224,2.24,-2.129666,2.888484,0.7988770000000001,-0.02002,-0.643143,0.027298000000000003
225,2.25,-1.50912,2.292664,1.4208129999999999,-0.03067,-0.476959,0.06777999999999999
226,2.26,-0.662691,1.650102,1.8096279999999998,-0.047714,-0.32995599999999997,0.106125
227,2.27,0.396429,1.0199639999999999,2.252452,-0.087128,-0.238342,0.12423699999999999
228,2.28,1.669182,0.210969,2.7148529999999997,-0.109497,-0.199997,0.114639
229,2.29,2.6575509999999998,-0.5638,3.140888,-0.089264,-0.22236599999999998,0.069901
230,2.3,3.050023,-1.320886,3.259521,-0.018951,-0.25325,0.012375
231,2.31,2.96576,-1.752946,2.743112,0.080109,-0.268173,-0.043015
232,2.32,2.448258,-1.8863580000000002,1.893154,0.163208,-0.259644,-0.076035
233,2.33,1.8337310000000002,-1.6732470000000002,0.8054020000000001,0.19409200000000001,-0.212769,-0.073898
234,2.34,1.29536,-1.229579,-0.08950200000000003,0.14935299999999999,-0.143539,-0.046204
235,2.35,0.7888970000000001,-0.572054,-0.59722,0.052413999999999995,-0.051926,-0.001465000000000001
236,2.36,0.38776700000000003,-0.026851999999999987,-0.460132,-0.067963,0.046082,0.042206
237,2.37,0.13608599999999998,0.476243,-0.164979,-0.139328,0.119583,0.095474
238,2.38,0.039486,0.813976,0.016642999999999998,-0.174484,0.1409,0.148727
239,2.39,0.069938,0.955772,0.263442,-0.17662,0.136627,0.201996
240,2.4,0.254143,0.739822,0.443296,-0.12548800000000002,0.104675,0.24780300000000002
241,2.41,0.575639,0.286839,0.5486449999999999,-0.035994999999999985,0.050339,0.272308
242,2.42,1.02109,-0.382627,0.470418,0.06413300000000001,-0.019958,0.28721599999999997
243,2.43,1.318,-0.7774439999999999,0.248678,0.156815,-0.094528,0.294678
244,2.44,1.593113,-1.324514,-0.028531,0.226059,-0.140335,0.275497
245,2.45,1.6955900000000002,-1.8661259999999997,-0.299453,0.264404,-0.18721,0.23822
246,2.46,1.637838,-2.300325,-0.6999810000000001,0.272934,-0.199997,0.192413
247,2.47,1.371059,-2.6786529999999997,-1.109565,0.244171,-0.186142,0.15618900000000002
248,2.48,1.08125,-2.875591,-1.4719010000000001,0.175995,-0.14565999999999998,0.123169
249,2.49,0.8465010000000001,-2.9072259999999996,-1.7527400000000002,0.074783,-0.097733,0.108261
250,2.5,0.565017,-2.6861040000000003,-1.7122990000000002,-0.048782,-0.041260000000000005,0.106125
251,2.51,0.235475,-2.258218,-1.608188,-0.172348,0.009872,0.108261
252,2.52,0.156822,-1.940434,-1.2804,-0.277817,0.056732000000000005,0.112518
253,2.53,0.092958,-1.606324,-0.840058,-0.345993,0.09295700000000001,0.112518
254,2.54,0.134682,-1.2010399999999999,-0.529142,-0.377945,0.115326,0.106125
255,2.55,0.09768099999999999,-0.7763720000000001,-0.22735900000000006,-0.366226,0.120651,0.09227
256,2.56,0.159951,-0.39426100000000003,-0.01522899999999999,-0.309769,0.12171900000000001,0.072037
257,2.57,0.286497,-0.23022800000000002,0.04773,-0.22880599999999998,0.125977,0.048599
258,2.58,0.385702,-0.153636,-0.048632,-0.11589100000000001,0.131302,0.0177
259,2.59,0.545287,-0.142528,-0.377765,-0.0008389999999999995,0.137695,-0.013184
260,2.6,0.757223,-0.182619,-0.797423,0.09396399999999999,0.14941400000000002,-0.036621
261,2.61,1.0076479999999999,-0.24676199999999998,-1.205809,0.155746,0.14515699999999998,-0.053665
262,2.62,1.254565,-0.143816,-1.44328,0.198364,0.1409,-0.06219500000000001
263,2.63,1.408621,-0.02488699999999999,-1.715701,0.21966599999999997,0.14941400000000002,-0.064316
264,2.64,1.334538,0.131294,-1.898643,0.217529,0.164322,-0.066452
265,2.65,1.059685,0.283991,-1.968486,0.190903,0.198425,-0.066452
266,2.66,0.655927,0.36528499999999997,-2.108805,0.160004,0.25488299999999997,-0.07496599999999999
267,2.67,0.259687,0.49175100000000005,-2.249014,0.133377,0.307068,-0.090942
268,2.68,-0.20579899999999998,0.507211,-2.31475,0.10994000000000001,0.361404,-0.110123
269,2.69,-0.68902,0.525442,-2.299891,0.090775,0.41893,-0.131424
270,2.7,-1.072366,0.533359,-2.1808490000000003,0.067337,0.46260100000000004,-0.13888499999999998
271,2.71,-1.2672860000000001,0.716338,-2.032423,0.028976,0.5126649999999999,-0.128235
272,2.72,-1.179992,1.05217,-1.8237130000000001,-0.022156,0.57872,-0.09628300000000001
273,2.73,-0.806405,1.483775,-1.567769,-0.07115199999999999,0.646896,-0.046204
274,2.74,-0.12703700000000007,1.9102689999999998,-1.21458,-0.103104,0.706543,-0.0003969999999999981
275,2.75,0.668921,2.35429,-0.85531,-0.095657,0.735306,0.02623
276,2.76,1.082702,2.696065,-0.40681100000000003,-0.043457,0.702286,0.016647
277,2.77,1.2847899999999999,3.142807,-0.035545999999999994,0.011931999999999998,0.647964,0.008118
278,2.78,1.6373360000000001,3.724195,0.36698000000000003,-0.02641300000000001,0.641571,0.033691000000000006
279,2.79,2.462543,4.405076,1.228424,-0.172348,0.63092,0.08161900000000001
280,2.8,2.924675,4.73522,2.504009,-0.268219,0.524384,0.12103299999999999
281,2.81,2.792017,4.277101999999999,3.868144,-0.233078,0.357147,0.173233
282,2.82,2.202825,3.21525,4.951606,-0.131866,0.20694,0.232895
283,2.83,1.362109,2.1733729999999998,5.140015,0.00021400000000000583,0.19628900000000002,0.300003
284,2.84,0.394054,0.872188,4.540808,0.175995,0.271927,0.350067
285,2.85,-0.695876,-0.451926,3.4398050000000002,0.3965,0.360336,0.35220300000000004
286,2.86,-1.7439380000000002,-1.666296,2.067346,0.602097,0.339035,0.314911
287,2.87,-2.349398,-2.743821,0.9506030000000001,0.721405,0.260208,0.26271100000000003
288,2.88,-2.511283,-3.363058,0.047123000000000026,0.727798,0.194153,0.212646
289,2.89,-2.3240529999999997,-3.163383,-0.67099,0.569077,0.156876,0.167908
290,2.9,-1.70938,-2.524403,-0.9755719999999999,0.26973,0.14515699999999998,0.11891199999999999
291,2.91,-0.893483,-1.570912,-0.620049,-0.05304,0.146225,0.064575
292,2.92,0.23998600000000006,-0.4660960000000001,0.17116199999999993,-0.318298,0.138763,0.009186
293,2.93,1.088315,0.4997900000000001,1.108347,-0.459976,0.10893199999999999,-0.063248
294,2.94,1.588792,1.2943129999999998,1.9980229999999999,-0.489807,0.095093,-0.159134
295,2.95,1.697546,1.671961,2.521894,-0.390732,0.102539,-0.236893
296,2.96,1.373002,1.3500809999999999,2.464907,-0.209641,0.120651,-0.311462
297,2.97,0.925283,0.8389989999999999,2.148172,-0.007233000000000003,0.143021,-0.357269
298,2.98,0.272516,0.13963699999999998,1.454861,0.18771400000000002,0.150482,-0.38603200000000004
299,2.99,-0.329144,-0.627313,0.741266,0.343231,0.133438,-0.40307600000000005
300,3.0,-0.9005350000000001,-1.3732959999999999,0.06757500000000005,0.44444300000000003,0.11319000000000001,-0.410522
301,3.01,-1.196509,-2.215604,-0.411124,0.497696,0.085495,-0.41479499999999997
302,3.02,-1.443616,-2.863289,-0.8601469999999999,0.499832,0.070587,-0.41479499999999997
303,3.03,-1.522468,-3.324347,-1.223618,0.454025,0.041824,-0.408401
304,3.04,-1.566914,-3.6362089999999996,-1.493371,0.365601,0.003478999999999996,-0.384964
305,3.05,-1.341774,-3.719939,-1.6638009999999999,0.243103,-0.049789,-0.333832
306,3.06,-0.9319700000000001,-3.637021,-1.731181,0.11314400000000001,-0.10945099999999999,-0.26672399999999996
307,3.07,-0.475904,-3.398225,-1.64831,-0.010437000000000002,-0.18721,-0.1996
308,3.08,-0.1029,-2.951698,-1.458951,-0.116959,-0.271362,-0.141022
309,3.09,0.15943400000000002,-2.460232,-1.133621,-0.19046,-0.36084,-0.09628300000000001
310,3.1,0.23432600000000003,-1.867846,-0.765556,-0.219223,-0.43968199999999996,-0.07284500000000001
311,3.11,0.20640300000000003,-1.302083,-0.48253199999999996,-0.20538299999999998,-0.48654200000000003,-0.054733000000000004
312,3.12,0.163652,-0.86869,-0.31154699999999996,-0.156372,-0.500397,-0.043015
313,3.13,0.12203599999999999,-0.5576369999999999,-0.263,-0.083939,-0.503586,-0.037689
314,3.14,-0.029332,-0.37345,-0.42301300000000003,-0.010437000000000002,-0.511047,-0.02597
315,3.15,-0.112268,-0.323685,-0.667782,0.060944000000000005,-0.5195770000000001,0.0027919999999999998
316,3.16,-0.17801,-0.398769,-1.060066,0.117401,-0.522766,0.039017
317,3.17,-0.298435,-0.484096,-1.439865,0.157883,-0.5195770000000001,0.083755
318,3.18,-0.5700689999999999,-0.42871499999999996,-1.720334,0.18132,-0.5270229999999999,0.11358599999999999
319,3.19,-1.046875,-0.274899,-1.8647349999999998,0.177048,-0.537674,0.131683
320,3.2,-1.474957,0.054481999999999975,-1.963166,0.154678,-0.556854,0.126358
321,3.21,-1.776859,0.916487,-1.8473110000000001,0.088638,-0.569641,0.084824
322,3.22,-1.628309,1.565477,-1.627632,0.057739,-0.540878,0.056061
323,3.23,-1.249282,2.251475,-1.374034,0.039642000000000004,-0.475891,0.02623
324,3.24,-1.088938,2.8736189999999997,-1.192854,0.052413999999999995,-0.42582700000000007,-0.015319999999999999
325,3.25,-1.049827,3.333969,-1.009829,0.11314400000000001,-0.395996,-0.050476
326,3.26,-1.237307,3.678297,-1.002772,0.215408,-0.366165,-0.09414700000000001
327,3.27,-1.557869,3.894798,-1.084071,0.318741,-0.34274299999999996,-0.13355999999999998
328,3.28,-1.951429,3.863577,-1.0578,0.395432,-0.30545,-0.165512
329,3.29,-2.4436240000000002,3.620969,-0.992042,0.435913,-0.247925,-0.17511
330,3.3,-2.794249,3.19418,-0.8684959999999999,0.463608,-0.211716,-0.150604
331,3.31,-2.742818,2.930289,-0.797615,0.479584,-0.260712,-0.10266099999999999
332,3.32,-2.429452,3.0620830000000003,-0.741625,0.403961,-0.375763,-0.065384
333,3.33,-2.025923,3.17245,0.05120899999999995,0.13018799999999994,-0.450333,-0.030227999999999998
334,3.34,-1.9079409999999999,2.828818,1.864232,-0.17448399999999994,-0.383209,0.05499299999999999
335,3.35,-2.005946,2.200159,3.539882,-0.234131,-0.211716,0.13063
336,3.36,-1.281158,1.1183239999999999,4.241475,-0.15850799999999998,0.015198000000000003,0.139145
337,3.37,-0.20062,-0.142575,4.314705,-0.096725,0.155807,0.05925
338,3.38,0.631315,-1.435719,4.183194,0.0002139999999999989,0.11853,-0.066452
339,3.39,1.431383,-2.210398,3.837599,0.19516,0.034363,-0.156998
340,3.4,2.6276200000000003,-2.664491,2.844591,0.414612,0.007736,-0.203873
341,3.41,4.000666000000001,-2.3437900000000003,1.554658,0.53392,-0.028488,-0.20494099999999998
342,3.42,4.959322,-1.6030149999999999,0.491258,0.480652,-0.088135,-0.19001800000000002
343,3.43,4.93961,-0.484807,-0.21029800000000004,0.263336,-0.169098,-0.146347
344,3.44,4.3458309999999996,0.498446,-0.41853999999999997,-0.056244000000000016,-0.24259899999999998,-0.07496599999999999
345,3.45,3.26657,1.241735,0.0036399999999999775,-0.37262,-0.30545,0.011322
346,3.46,1.8759970000000001,1.6756810000000002,0.652014,-0.54306,-0.349121,0.10719300000000001
347,3.47,0.4866790000000001,1.8619990000000002,1.18271,-0.567566,-0.341675,0.208389
348,3.48,-0.619175,1.820631,1.7263680000000001,-0.51857,-0.311844,0.29361
349,3.49,-1.344211,1.534901,2.336288,-0.397125,-0.288406,0.358597
350,3.5,-1.689245,0.854568,2.6903,-0.204315,-0.25325,0.38096599999999997
351,3.51,-1.91095,0.24384700000000006,2.4152709999999997,0.01939400000000001,-0.212769,0.39373800000000003
352,3.52,-1.765813,-0.659721,1.827209,0.210083,-0.144592,0.389481
353,3.53,-1.6605869999999998,-1.403126,1.097983,0.360275,-0.077484,0.367111
354,3.54,-1.3621860000000001,-2.274686,0.17538099999999998,0.472137,0.005600000000000001,0.343674
355,3.55,-0.938474,-3.306458,-0.654443,0.510483,0.083374,0.31811500000000004
356,3.56,-0.35008900000000004,-4.198873000000001,-1.387066,0.479584,0.14408900000000002,0.31279
357,3.57,0.23431100000000002,-4.979037,-1.9763529999999998,0.39117399999999997,0.188828,0.302139
358,3.58,0.631212,-5.492599,-2.366164,0.254822,0.218658,0.277634
359,3.59,1.032009,-5.612633,-2.500866,0.08757000000000001,0.237839,0.244614
360,3.6,1.370454,-5.391708,-2.470375,-0.07434099999999999,0.24955700000000003,0.19880699999999998
361,3.61,1.525469,-4.88279,-2.297182,-0.209641,0.24421700000000002,0.145538
362,3.62,1.411392,-4.081646,-1.9750419999999997,-0.315094,0.234634,0.096542
363,3.63,1.368127,-3.256402,-1.626263,-0.3918,0.21759,0.053925
364,3.64,1.3286870000000002,-2.243214,-1.2517200000000002,-0.42800900000000003,0.195221,0.012374999999999995
365,3.65,1.242377,-1.131525,-1.1139370000000002,-0.41630600000000006,0.167526,-0.029160000000000002
366,3.66,1.143139,-0.04751099999999997,-0.8792110000000001,-0.371552,0.152618,-0.060059
367,3.67,0.9768469999999999,0.750065,-0.708411,-0.279938,0.15473900000000002,-0.086685
368,3.68,0.811221,1.198616,-0.529311,-0.14679,0.160065,-0.11119100000000001
369,3.69,0.6397390000000001,1.282951,-0.519849,0.008743,0.162201,-0.141022
370,3.7,0.441938,1.049049,-0.6923279999999999,0.14083900000000002,0.18457,-0.163391
371,3.71,0.14234000000000002,0.731126,-1.062442,0.238846,0.225052,-0.176178
372,3.72,-0.22641600000000006,0.244918,-1.4645860000000002,0.28038,0.263397,-0.172974
373,3.73,-0.423863,-0.07991399999999997,-1.7284540000000002,0.271866,0.319855,-0.15274000000000001
374,3.74,-0.694312,-0.11767000000000001,-1.9885150000000003,0.230316,0.386963,-0.132492
375,3.75,-0.8363799999999999,0.25600100000000003,-2.25674,0.161072,0.446625,-0.109055
376,3.76,-0.923536,1.330219,-2.3268009999999997,0.016204999999999997,0.523331,-0.071777
377,3.77,-0.590532,2.128158,-2.040782,-0.083939,0.567001,-0.046204
378,3.78,0.116651,2.899649,-1.579667,-0.170227,0.5968319999999999,-0.020645
379,3.79,0.987642,3.6615330000000004,-1.1412129999999998,-0.204315,0.5936279999999999,0.005996999999999999
380,3.8,1.8643049999999999,4.276682,-0.768223,-0.17128,0.5595399999999999,0.037949000000000004
381,3.81,2.3452990000000002,4.5002699999999995,-0.550668,-0.07008400000000001,0.5030819999999999,0.05499299999999999
382,3.82,2.480532,4.378095,-0.24782300000000002,0.065201,0.437042,0.034744
383,3.83,1.6559240000000002,4.428193,-0.114575,0.21859699999999999,0.378448,-0.009995
384,3.84,1.394176,4.390288,0.117256,0.25589,0.413605,-0.006790000000000001
385,3.85,1.912653,3.6135099999999998,1.157744,0.06413300000000001,0.467926,0.021973
386,3.86,1.614754,2.5682150000000004,2.7463040000000003,-0.093521,0.43809499999999996,0.05925
387,3.87,0.9983780000000001,1.2915590000000001,4.077567,-0.073288,0.369919,0.143402
388,3.88,-0.212129,-0.023608000000000073,5.116566000000001,-0.021088,0.391235,0.285095
389,3.89,-1.1419860000000002,-0.6934130000000001,4.96157,0.005554,0.492432,0.451263
390,3.9,-1.512592,-1.13711,4.375611,0.044968,0.542496,0.598282
391,3.91,-1.3007389999999999,-1.201993,3.271057,0.18876600000000002,0.48710600000000004,0.6653899999999999
392,3.92,-1.242477,-0.981036,1.706662,0.31553600000000004,0.286835,0.616379
393,3.93,-1.4353989999999999,-0.666805,0.417709,0.27719099999999997,0.020522999999999986,0.501343
394,3.94,-1.497215,0.061523,0.040291,0.079056,-0.158447,0.35220300000000004
395,3.95,-1.33691,1.066583,0.760115,-0.16276600000000002,-0.181885,0.181763
396,3.96,-0.671276,2.171882,1.772623,-0.318298,-0.06897,0.0017239999999999894
397,3.97,0.408843,2.673674,2.30634,-0.371552,0.10786400000000002,-0.213455
398,3.98,1.221673,2.607986,2.446336,-0.342789,0.278305,-0.396683
399,3.99,1.304835,1.6355110000000002,2.559349,-0.234131,0.4104,-0.5202479999999999
400,4.0,1.323762,0.659734,2.0781240000000003,-0.075409,0.456207,-0.576706
401,4.01,1.2725540000000002,-0.222203,1.4463219999999999,0.072662,0.39975,-0.564987
402,4.02,1.3366129999999998,-1.116508,1.085503,0.190903,0.278305,-0.50853
403,4.03,1.216027,-1.9751599999999998,0.45045100000000005,0.28891,0.115326,-0.459534
404,4.04,0.944702,-2.866261,-0.12066399999999995,0.338974,-0.059372,-0.41586300000000004
405,4.05,0.5785279999999999,-3.53928,-0.622326,0.33046,-0.22236599999999998,-0.3871
406,4.06,0.022660999999999987,-4.1693370000000005,-0.882484,0.289978,-0.370438,-0.382828
407,4.07,-0.57314,-4.655825,-1.0643,0.22285500000000003,-0.47802700000000004,-0.38603200000000004
408,4.08,-1.074402,-4.889512,-1.1571209999999998,0.138702,-0.545135,-0.38603200000000004
409,4.09,-1.5196370000000001,-4.795554,-1.187028,0.030045,-0.5760350000000001,-0.379639
410,4.1,-1.775194,-4.334653,-1.175157,-0.08606,-0.587753,-0.340225
411,4.11,-1.7958919999999998,-3.701104,-1.042073,-0.17555199999999999,-0.569641,-0.272049
412,4.12,-1.5390030000000001,-2.99796,-0.7650319999999999,-0.220291,-0.546204,-0.201736
413,4.13,-1.3360020000000001,-2.206497,-0.455647,-0.19259600000000002,-0.5259550000000001,-0.14741500000000002
414,4.14,-1.0440559999999999,-1.495039,-0.25690599999999997,-0.12228399999999999,-0.489746,-0.10266099999999999
415,4.15,-0.770313,-0.9288690000000001,-0.258698,-0.024277,-0.442871,-0.084564
416,4.16,-0.559177,-0.633776,-0.316407,0.07372999999999999,-0.38855,-0.088821
417,4.17,-0.442888,-0.639738,-0.43863800000000003,0.152557,-0.356583,-0.09840399999999999
418,4.18,-0.526812,-0.8263159999999999,-0.590188,0.212204,-0.348068,-0.099472
419,4.19,-0.6382770000000001,-1.049998,-0.819792,0.258011,-0.340607,-0.076035
420,4.2,-0.80853,-1.221157,-1.246301,0.293167,-0.33421300000000004,-0.027038999999999997
421,4.21,-0.974147,-1.309056,-1.821973,0.299561,-0.33847,0.030487
422,4.22,-1.283066,-1.265189,-2.264662,0.27719099999999997,-0.356583,0.07843
423,4.23,-1.700279,-1.151485,-2.575311,0.217529,-0.370438,0.082687
424,4.24,-1.798497,-0.689125,-2.701551,0.10781900000000001,-0.38855,0.061386
425,4.25,-1.612369,0.142471,-2.631671,-0.054108,-0.38960300000000003,0.024094
426,4.26,-1.148654,1.3359969999999999,-2.1608669999999996,-0.204315,-0.366165,-0.021713
427,4.27,-0.8847219999999999,2.444704,-1.4754479999999999,-0.281006,-0.33314499999999997,-0.054733000000000004
428,4.28,-0.606241,3.4033050000000005,-0.867144,-0.266098,-0.293732,-0.057922
429,4.29,-0.617314,4.12918,-0.293948,-0.17662,-0.291611,-0.052597000000000005
430,4.3,-0.79469,4.49151,0.153521,-0.045593000000000015,-0.29693600000000003,-0.045151
431,4.31,-1.1539549999999998,4.516065,0.334884,0.092896,-0.27989200000000003,-0.045151
432,4.32,-1.617686,4.22947,0.15709700000000001,0.230316,-0.211716,-0.047272
433,4.33,-1.85815,3.56394,-0.382015,0.358154,-0.111572,-0.035552999999999994
434,4.34,-2.03404,2.772816,-0.836405,0.457214,-0.045531999999999996,-0.009995
435,4.35,-1.6490240000000003,2.265907,-1.069577,0.48918199999999995,-0.098785,0.009186
436,4.36,-1.13162,2.266973,-0.928718,0.316605,-0.22023,-0.0003969999999999998
437,4.37,-0.703062,1.8536759999999999,0.7777680000000001,-0.104172,-0.241531,0.024094
438,4.38,-0.5928760000000001,1.282275,3.249722,-0.44186400000000003,-0.14565999999999998,0.1008
439,4.39,-0.139179,0.620614,5.1821839999999995,-0.506851,0.006668000000000007,0.096542
440,4.4,0.49765,-0.07866799999999996,5.757912999999999,-0.435471,0.168594,-0.06752000000000001
441,4.41,0.574671,-0.460521,5.174846,-0.319366,0.203751,-0.28376799999999996
442,4.42,0.6267550000000001,-0.36799899999999997,4.3123309999999995,-0.131866,0.164322,-0.417984
443,4.43,1.622231,0.057569999999999975,2.921031,0.102493,0.138763,-0.44248999999999994
444,4.44,3.2503130000000002,0.6411640000000001,1.769822,0.233521,0.10360699999999999,-0.34874
445,4.45,4.796665,1.270525,1.148448,0.199432,0.071655,-0.211319
446,4.46,5.27848,1.6250120000000001,1.047541,0.05987499999999999,-0.061508000000000014,-0.068573
447,4.47,4.727499,1.927281,0.9187780000000001,-0.087128,-0.299057,0.080551
448,4.48,3.262686,2.010022,0.6693979999999999,-0.206436,-0.5195770000000001,0.216919
449,4.49,1.7950380000000001,1.812977,0.501111,-0.262894,-0.631424,0.33409099999999997
450,4.5,0.461792,1.382443,0.653556,-0.27355999999999997,-0.672974,0.409729
451,4.51,-0.7759510000000001,0.987183,1.149211,-0.25651599999999997,-0.652725,0.44061300000000003
452,4.52,-1.749727,0.421518,1.6535490000000002,-0.193665,-0.557922,0.433167
453,4.53,-2.438593,-0.307245,1.912175,-0.10524000000000001,-0.422638,0.39907800000000004
454,4.54,-2.7797330000000002,-1.092856,1.8688220000000002,0.005553999999999997,-0.244736,0.344742
455,4.55,-2.975427,-1.88756,1.4348530000000002,0.133377,-0.050858,0.30958600000000003
456,4.56,-2.699808,-2.462066,0.66814,0.242035,0.12171900000000001,0.30958600000000003
457,4.57,-2.0360139999999998,-3.230039,-0.12902200000000005,0.291031,0.247421,0.324509
458,4.58,-1.007897,-3.871254,-0.748084,0.299561,0.296417,0.350067
459,4.59,-0.07667800000000002,-4.509309,-1.18394,0.26866100000000004,0.284698,0.36499000000000004
460,4.6,0.6907989999999999,-4.880658,-1.442403,0.19622799999999999,0.260208,0.385223
461,4.61,1.260003,-5.065747,-1.546215,0.102493,0.234634,0.390549
462,4.62,1.829537,-4.910736,-1.4252719999999999,-0.008300999999999996,0.22398400000000002,0.368179
463,4.63,2.242422,-4.477412,-1.334335,-0.12442,0.232513,0.310654
464,4.64,2.253289,-3.6990760000000003,-1.070998,-0.217087,0.23144499999999998,0.22329699999999997
465,4.65,1.943139,-2.620413,-0.758887,-0.27355999999999997,0.24421700000000002,0.149796
466,4.66,1.685745,-1.975587,-0.334471,-0.281006,0.25488299999999997,0.05925
467,4.67,1.358883,-1.431506,-0.078059,-0.22561599999999998,0.248489,-0.01425200000000001
468,4.68,0.9622,-1.023883,-0.17422700000000002,-0.131866,0.227173,-0.068573
469,4.69,0.717275,-0.7579319999999999,-0.46001800000000004,-0.027481000000000002,0.197357,-0.09414700000000001
470,4.7,0.6669229999999999,-0.645,-0.837759,0.052413999999999995,0.17392,-0.104797
471,4.71,0.464316,-0.498701,-1.3264559999999999,0.130188,0.174988,-0.10586500000000001
472,4.72,0.194574,-0.34959,-1.601545,0.148285,0.20161400000000002,-0.10693399999999999
473,4.73,-0.206668,-0.317421,-1.834457,0.147232,0.24635300000000002,-0.112259
474,4.74,-0.49373900000000004,-0.22285700000000003,-1.9530450000000001,0.11633299999999999,0.285767,-0.109055
475,4.75,-0.6518189999999999,-0.10390799999999999,-1.856801,0.065201,0.318787,-0.118652
476,4.76,-0.744761,0.377988,-1.748906,0.023651,0.365662,-0.14314300000000002
477,4.77,-0.9174,1.1058940000000002,-1.7350029999999999,-0.02002,0.423187,-0.151672
478,4.78,-1.096191,1.9131669999999998,-1.708125,-0.057297,0.49989300000000003,-0.150604
479,4.79,-0.871174,2.554091,-1.636814,-0.100983,0.61174,-0.134628
480,4.8,-0.323031,3.126548,-1.440282,-0.144653,0.710815,-0.11970499999999999
481,4.81,0.21602800000000003,3.66342,-1.154686,-0.17981,0.770462,-0.09414700000000001
482,4.82,1.027819,4.141611,-0.900027,-0.164902,0.759811,-0.049408
483,4.83,1.707671,4.259338,-0.6041380000000001,-0.08606,0.66394,-0.0025330000000000005
484,4.84,1.796947,4.079886,-0.537622,0.062012,0.531845,0.029419
485,4.85,1.641732,3.7779089999999997,-0.487828,0.248428,0.435974,0.018768
486,4.86,0.716923,3.6466879999999997,-0.323802,0.402893,0.41467299999999996,-0.020645
487,4.87,0.43546899999999994,3.3554440000000003,-0.216614,0.36134299999999997,0.454086,-0.007858
488,4.88,0.818759,2.330725,1.0382959999999999,0.07478299999999999,0.495621,0.057129
489,4.89,0.376697,1.195461,3.13708,-0.112701,0.494568,0.135956
490,4.9,-0.307728,0.044393000000000016,4.793373,-0.177673,0.489227,0.289352
491,4.91,-1.126287,-0.9724010000000001,5.76051,-0.26716599999999996,0.5275880000000001,0.469376
492,4.92,-1.738955,-1.218029,5.613729,-0.34173600000000004,0.509476,0.677109
493,4.93,-0.8503459999999999,-0.6296090000000001,4.6654089999999995,-0.315094,0.431717,0.823044
494,4.94,0.022834999999999998,0.021309000000000026,3.1856880000000003,-0.16276600000000002,0.268723,0.804932
495,4.95,0.425238,0.209754,1.97353,0.003418000000000005,0.007735999999999994,0.663254
496,4.96,-0.155333,0.6077899999999999,1.499416,0.067337,-0.189331,0.48641999999999996
497,4.97,-0.618799,0.9024280000000001,1.7586689999999998,0.049225,-0.171234,0.276566
498,4.98,-0.965894,1.569057,2.050089,-0.011505,0.008803999999999992,0.058182000000000005
499,4.99,-1.099327,1.9346400000000001,2.114804,-0.073288,0.268723,-0.171906
500,5.0,-0.8823610000000001,1.9672009999999998,1.75263,-0.109497,0.522263,-0.365784
501,5.01,-0.6620159999999999,1.452685,1.128881,-0.147858,0.741699,-0.50853
502,5.02,-0.6950109999999999,0.746488,0.732083,-0.16383399999999998,0.8524930000000001,-0.556473
503,5.03,-0.540752,-0.043795999999999995,0.580575,-0.142532,0.854614,-0.535172
504,5.04,-0.342875,-0.518551,0.307848,-0.100983,0.7331850000000001,-0.454208
505,5.05,-0.022262000000000004,-0.9559790000000001,0.257689,-0.06475800000000001,0.5680689999999999,-0.351944
506,5.06,0.449082,-1.425198,0.210529,-0.007233000000000003,0.37738,-0.261398
507,5.07,0.8496450000000001,-1.990923,0.068784,0.053482,0.181366,-0.20813
508,5.08,0.8195120000000001,-2.56737,-0.129113,0.101425,-0.009307999999999995,-0.198547
509,5.09,0.602488,-3.187304,-0.31454299999999996,0.10461400000000001,-0.15631099999999998,-0.21559099999999998
510,5.1,0.415046,-3.760066,-0.404393,0.09396399999999999,-0.26710500000000004,-0.24754299999999999
511,5.11,-0.03578300000000001,-4.091384,-0.618344,0.070526,-0.348068,-0.288025
512,5.12,-0.6036030000000001,-4.13017,-0.818483,0.018326,-0.391739,-0.310394
513,5.13,-0.986858,-4.040061,-0.885843,-0.047713999999999986,-0.407715,-0.288025
514,5.14,-1.194524,-3.8381800000000004,-0.799134,-0.100983,-0.408783,-0.24115
515,5.15,-1.2863040000000001,-3.4738290000000003,-0.581328,-0.131866,-0.393875,-0.184692
516,5.16,-1.216189,-3.1360419999999998,-0.38712199999999997,-0.12548800000000002,-0.373627,-0.13355999999999998
517,5.17,-1.065589,-2.6993099999999997,-0.362745,-0.093521,-0.35125700000000004,-0.088821
518,5.18,-0.913848,-2.273948,-0.435674,-0.045593,-0.32782,-0.06219500000000001
519,5.19,-0.7208319999999999,-1.8875080000000002,-0.685553,0.007674999999999999,-0.320374,-0.050476
520,5.2,-0.5314439999999999,-1.684478,-0.888598,0.058807000000000005,-0.33847,-0.053665
521,5.21,-0.339606,-1.484407,-1.1056139999999999,0.10887100000000001,-0.36830100000000005,-0.055800999999999996
522,5.22,-0.161945,-1.2498040000000001,-1.384469,0.164276,-0.395996,-0.045151
523,5.23,-0.008842999999999997,-1.066876,-1.618871,0.22285500000000003,-0.445007,-0.018509
524,5.24,-0.203856,-0.8236030000000001,-1.82253,0.262268,-0.5259550000000001,0.026230000000000003
525,5.25,-0.645533,-0.529237,-1.936352,0.272934,-0.586685,0.084824
526,5.26,-1.362444,-0.027524000000000017,-1.9724869999999999,0.24736,-0.597336,0.141281
527,5.27,-2.008747,0.541165,-1.9483669999999997,0.19409200000000001,-0.536621,0.173233
528,5.28,-2.3800060000000003,1.1852989999999999,-1.985797,0.118469,-0.418365,0.17749
529,5.29,-2.306293,1.798646,-1.9732470000000002,0.019393999999999998,-0.320374,0.146606
530,5.3,-1.7066830000000002,2.101882,-1.668064,-0.087128,-0.30438200000000004,0.10398900000000001
531,5.31,-1.0152379999999999,2.413447,-1.345092,-0.172348,-0.37255900000000003,0.06350700000000001
532,5.32,-0.630373,2.861716,-1.06515,-0.203247,-0.457779,0.037949000000000004
533,5.33,-0.400223,3.402048,-0.774682,-0.186203,-0.508911,0.030487
534,5.34,-0.41313599999999995,3.914607,-0.566865,-0.119095,-0.49826000000000004,0.035812000000000004
535,5.35,-0.5433140000000001,4.109507,-0.221347,-0.0008390000000000063,-0.417313,0.037949000000000004
536,5.36,-0.866239,3.9984050000000004,-0.112747,0.15467799999999998,-0.288406,0.030487
537,5.37,-1.4722389999999999,3.5417959999999997,-0.337584,0.331512,-0.157379,0.019836000000000003
538,5.38,-2.014194,2.883339,-0.734626,0.504089,-0.120102,0.020905
539,5.39,-1.7433169999999998,2.528163,-0.9938170000000001,0.594635,-0.221298,0.034744
540,5.4,-1.326602,2.4231599999999998,-0.646201,0.433777,-0.315033,0.034744
541,5.41,-1.131858,1.9284700000000001,1.040634,0.034302,-0.323563,0.046463
542,5.42,-1.28253,1.183997,3.170931,-0.266098,-0.290543,0.082687
543,5.43,-0.661114,0.20850800000000005,4.91137,-0.365158,-0.213837,0.049667
544,5.44,0.494255,-0.653532,5.576529,-0.359833,-0.092392,-0.11651600000000001
545,5.45,0.817812,-0.836325,5.384501,-0.278885,0.00027499999999999747,-0.316788
546,5.46,1.1890459999999998,-0.598819,4.490628,-0.092453,0.07910199999999999,-0.446747
547,5.47,1.8933389999999999,-0.06528100000000002,3.0709619999999997,0.11633300000000002,0.134506,-0.466995
548,5.48,2.935828,0.597725,1.957855,0.229248,0.185638,-0.376434
549,5.49,3.9919309999999997,1.2600209999999998,1.507855,0.19516,0.198425,-0.246475
550,5.5,4.244956,1.7332040000000002,1.809031,0.062012,0.11319000000000001,-0.108002
551,5.51,3.807415,2.1617919999999997,1.926993,-0.055175999999999996,-0.090271,0.031555
552,5.52,2.685403,2.349964,1.552308,-0.12654100000000001,-0.31398000000000004,0.16151400000000002
553,5.53,1.4071209999999998,2.176001,0.966103,-0.155304,-0.47376999999999997,0.274429
554,5.54,0.385297,1.464911,0.789292,-0.156372,-0.5728300000000001,0.348999
555,5.55,-0.5677510000000001,0.804902,0.9183790000000001,-0.112701,-0.626099,0.396942
556,5.56,-1.267471,0.129148,1.1220700000000001,-0.050919,-0.587753,0.39907800000000004
557,5.57,-1.7058389999999999,-0.4967090000000001,1.393368,0.028976,-0.48761000000000004,0.368179
558,5.58,-2.127738,-1.027942,1.326154,0.12059,-0.33634899999999995,0.336227
559,5.59,-2.402154,-1.637736,1.071508,0.20369,-0.15419000000000002,0.307465
560,5.6,-2.160841,-2.4189599999999998,0.673599,0.26866100000000004,0.03436300000000001,0.290421
561,5.61,-1.561808,-3.225133,0.07066299999999998,0.31553600000000004,0.183502,0.27017199999999997
562,5.62,-0.8211639999999999,-3.8459839999999996,-0.5227739999999998,0.33046,0.27618400000000004,0.264847
563,5.63,-0.11945799999999995,-4.306687999999999,-1.166034,0.30702199999999996,0.315598,0.259521
564,5.64,0.24759499999999998,-4.611066,-1.496668,0.226059,0.329453,0.27017199999999997
565,5.65,0.8196030000000001,-4.710182,-1.591285,0.123795,0.335831,0.28828400000000004
566,5.66,1.122616,-4.504435,-1.501293,0.040695,0.318787,0.280823
567,5.67,1.322095,-4.185835,-1.308143,-0.034927,0.306015,0.245667
568,5.68,1.366826,-3.702955,-1.06584,-0.099915,0.29216,0.193481
569,5.69,1.262674,-3.124052,-0.7145560000000001,-0.143585,0.282578,0.127426
570,5.7,0.8621549999999999,-2.51845,-0.560739,-0.15850799999999998,0.287903,0.05925
571,5.71,0.633254,-1.968979,-0.5028100000000001,-0.142532,0.316666,0.005996999999999999
572,5.72,0.432595,-1.5192459999999999,-0.518142,-0.116959,0.349686,-0.045151
573,5.73,0.160219,-0.930053,-0.676335,-0.07008400000000001,0.397629,-0.104797
574,5.74,-0.05529,-0.445532,-0.831849,-0.018951,0.419998,-0.128235
575,5.75,-0.11457300000000001,-0.082571,-1.137686,0.05029299999999999,0.430649,-0.14846800000000002
576,5.76,-0.16137200000000002,0.129206,-1.376083,0.118469,0.43809499999999996,-0.150604
577,5.77,-0.056691,0.148224,-1.559647,0.14935299999999999,0.437042,-0.14846800000000002
578,5.78,0.00019399999999999973,0.175551,-1.501422,0.147232,0.42851300000000003,-0.13888499999999998
579,5.79,0.0012039999999999967,0.247865,-1.5127709999999999,0.138702,0.413605,-0.135696
580,5.8,-0.071369,0.522174,-1.560247,0.117401,0.412537,-0.126099
581,5.81,-0.191847,0.824307,-1.574215,0.07372999999999999,0.441299,-0.109055
582,5.82,-0.215748,1.183345,-1.410862,0.003417999999999997,0.505219,-0.080292
583,5.83,-0.023696,1.686074,-1.087552,-0.10098300000000003,0.57019,-0.049408
584,5.84,0.206679,2.379505,-0.727542,-0.21283000000000002,0.628784,0.0017239999999999998
585,5.85,0.435487,3.064606,-0.338352,-0.281006,0.691635,0.06777999999999999
586,5.86,0.6837270000000001,3.682297,-0.10473800000000001,-0.255447,0.724655,0.12103299999999999
587,5.87,0.763346,3.9777099999999996,-0.164003,-0.142532,0.698029,0.149796
588,5.88,0.688044,3.859381,-0.25193000000000004,0.02685499999999999,0.618134,0.16684000000000002
589,5.89,0.518388,3.438914,-0.426938,0.231384,0.5584720000000001,0.167908
590,5.9,-0.02213599999999999,2.753581,-0.692836,0.43165600000000004,0.552078,0.148727
591,5.91,-0.545353,1.972055,-0.969988,0.55629,0.673523,0.127426
592,5.92,-0.803113,1.197235,-0.8584649999999999,0.47318999999999994,0.81308,0.135956
593,5.93,-0.195658,0.41111800000000004,0.102354,0.207947,0.9057459999999999,0.196671
594,5.94,0.024880000000000003,-0.42586599999999997,1.530158,-0.004044000000000006,0.973923,0.280823
595,5.95,-0.297293,-1.5185790000000001,2.888773,-0.078613,0.966476,0.383087
596,5.96,-1.3752360000000001,-2.288753,4.07948,-0.102051,0.9462280000000001,0.525833
597,5.97,-1.891774,-2.18194,4.495652,-0.143585,0.9867100000000001,0.685623
598,5.98,-2.261907,-1.0828149999999999,4.118592,-0.203247,0.973923,0.832642
599,5.99,-1.6531930000000001,0.434294,3.422536,-0.234131,0.8983,0.896545
600,6.0,-1.155753,1.7592900000000002,2.840427,-0.237335,0.66394,0.818787
601,6.01,-1.552598,2.6349240000000003,3.019565,-0.26503000000000004,0.402954,0.653671
602,6.02,-1.9162099999999997,3.197078,3.7791900000000003,-0.29486100000000004,0.316666,0.48109399999999997
603,6.03,-1.7612700000000001,3.763675,4.34165,-0.27461199999999997,0.470062,0.303192
604,6.04,-0.976786,4.131172,4.210934,-0.241592,0.757675,0.09440599999999999
605,6.05,-0.554305,3.497433,3.941782,-0.182999,1.001633,-0.07496599999999999
606,6.06,-0.149597,2.255505,2.961039,-0.076477,1.172073,-0.205994
607,6.07,0.123097,1.389712,1.97233,-0.004043999999999999,1.2370450000000002,-0.285889
608,6.08,0.24323900000000004,0.486591,1.16802,0.080109,1.2317200000000001,-0.335968
609,6.09,0.411574,-0.2953250000000001,0.3377100000000001,0.156815,1.143311,-0.344482
610,6.1,0.502595,-0.9582360000000001,-0.119849,0.20581100000000002,1.021866,-0.347672
611,6.11,0.54283,-1.567827,-0.454412,0.234573,0.903625,-0.329575
612,6.12,0.603251,-2.129293,-0.761687,0.250565,0.787506,-0.323181
613,6.13,0.350718,-2.705848,-1.192566,0.232452,0.669266,-0.32637
614,6.14,-0.13263699999999998,-3.217908,-1.409922,0.172791,0.554214,-0.330627
615,6.15,-0.628478,-3.72462,-1.5769469999999999,0.101425,0.447693,-0.32637
616,6.16,-1.1201969999999999,-4.131507,-1.516617,0.030045,0.346497,-0.304001
617,6.17,-1.4772379999999998,-4.2721599999999995,-1.4302059999999999,-0.044525,0.24955700000000003,-0.269913
618,6.18,-1.630874,-4.260853,-1.1426049999999999,-0.11056500000000001,0.156876,-0.216644
619,6.19,-1.423673,-3.9971690000000004,-0.929861,-0.167023,0.083374,-0.145279
620,6.2,-1.090549,-3.590782,-0.592658,-0.19899,0.027969,-0.08989
621,6.21,-0.845306,-3.003014,-0.32946600000000004,-0.203247,-0.002914,-0.044083
622,6.22,-0.6935979999999999,-2.415167,-0.11828,-0.17341600000000001,0.003478999999999999,-0.006790000000000001
623,6.23,-0.5994659999999999,-1.815125,-0.194773,-0.12654100000000001,0.020523,0.021973
624,6.24,-0.6239100000000001,-1.386889,-0.365615,-0.07968099999999999,0.043961,0.043274
625,6.25,-0.867323,-1.07515,-0.575593,-0.031738,0.063126,0.06350700000000001
626,6.26,-1.097699,-0.874151,-0.824084,0.017257999999999996,0.068451,0.085876
627,6.27,-1.272974,-0.651788,-1.052923,0.072662,0.0578,0.114639
628,6.28,-1.3870049999999998,-0.46832799999999997,-1.302664,0.12059,0.025848000000000003,0.143402
629,6.29,-1.357043,-0.276955,-1.5181930000000001,0.164276,-0.024215999999999998,0.172165
630,6.3,-1.2402309999999999,-0.11459200000000001,-1.571092,0.199432,-0.070023,0.195602
631,6.31,-1.235372,0.10373800000000001,-1.4953530000000002,0.230316,-0.076416,0.21585100000000002
632,6.32,-1.3888989999999999,0.28617800000000004,-1.364818,0.234573,-0.038071,0.214783
633,6.33,-1.587628,0.39029,-1.170957,0.20581100000000002,0.005600000000000004,0.193481
634,6.34,-1.732219,0.535384,-0.967563,0.161072,0.054611,0.145538
635,6.35,-1.681673,0.771543,-1.056917,0.11633299999999999,0.088699,0.105057
636,6.36,-1.433143,1.2341719999999998,-1.3693950000000001,0.055617999999999994,0.07804900000000001,0.080551
637,6.37,-1.2115049999999998,1.679905,-1.605948,-0.023208999999999997,0.016250999999999998,0.080551
638,6.38,-0.958965,2.117141,-1.606335,-0.092453,-0.071091,0.110382
639,6.39,-0.90255,2.607507,-1.252517,-0.112701,-0.146729,0.16151400000000002
640,6.4,-1.003644,3.014525,-0.687773,-0.065826,-0.148865,0.21157800000000002
641,6.41,-1.247794,3.2993089999999996,-0.32655100000000004,0.038574000000000004,-0.092392,0.25206
642,6.42,-1.663593,3.220391,-0.097739,0.182373,-0.043396,0.285095
643,6.43,-1.9371189999999998,3.222004,-0.252737,0.31446799999999997,-0.032744999999999996,0.297867
644,6.44,-2.107925,3.655127,-0.48585500000000004,0.317673,-0.054047000000000005,0.256332
645,6.45,-2.481794,4.213875,0.271405,0.090775,0.017319,0.189209
646,6.46,-2.984373,3.62135,2.991894,-0.260773,0.376312,0.09121699999999999
647,6.47,-2.744698,2.414386,4.276742,-0.279938,0.66394,-0.008925999999999995
648,6.48,-1.7359490000000002,1.030354,4.722516000000001,-0.20857199999999998,0.891907,-0.136749
649,6.49,-0.800666,-0.29141399999999995,4.516361,-0.07968099999999999,0.965408,-0.265656
650,6.5,-0.12659399999999998,-1.368428,3.6567830000000003,0.100357,0.921738,-0.357269
651,6.51,0.5027439999999999,-1.9737189999999998,2.496987,0.27719099999999997,0.824799,-0.360458
652,6.52,1.436577,-2.245843,1.279179,0.358154,0.70549,-0.27523800000000004
653,6.53,2.304831,-1.838523,0.440356,0.279312,0.584045,-0.15592999999999999
654,6.54,2.782757,-0.8774219999999999,0.253886,0.09715300000000003,0.467926,-0.036621
655,6.55,2.494529,0.34368600000000016,0.409578,-0.108444,0.374191,0.069901
656,6.56,1.717327,1.592254,0.5603640000000001,-0.29379299999999997,0.331573,0.175369
657,6.57,0.847612,2.4685479999999997,0.94539,-0.408844,0.356079,0.273376
658,6.58,0.0037630000000000155,2.6313299999999997,1.599902,-0.41523699999999997,0.45301800000000003,0.323441
659,6.59,-0.658018,2.4171560000000003,2.240473,-0.32362399999999997,0.553146,0.341553
660,6.6,-1.251495,1.7895189999999999,2.628205,-0.160629,0.61174,0.320236
661,6.61,-1.9051069999999999,1.033794,2.564897,0.010879999999999999,0.651154,0.306396
662,6.62,-2.165983,-0.04685799999999996,2.262302,0.177048,0.6990970000000001,0.300003
663,6.63,-2.006064,-1.036601,1.606273,0.319794,0.754486,0.302139
664,6.64,-1.442034,-1.8555869999999999,0.5822069999999999,0.414612,0.81308,0.307465
665,6.65,-0.78571,-2.631231,-0.281192,0.45188900000000004,0.847168,0.302139
666,6.66,-0.09650599999999998,-3.4579940000000002,-1.030238,0.44976800000000006,0.8482360000000001,0.311722
667,6.67,0.415087,-4.169480999999999,-1.5015020000000001,0.397568,0.8322450000000001,0.338348
668,6.68,0.7370479999999999,-4.54744,-1.5848520000000001,0.303818,0.8226620000000001,0.37883
669,6.69,0.889619,-4.572252,-1.499975,0.20581100000000002,0.812012,0.401199
670,6.7,0.969232,-4.290993,-1.3093709999999998,0.102493,0.807755,0.40333600000000003
671,6.71,0.799033,-3.7109940000000003,-1.125904,0.002349999999999991,0.80455,0.379898
672,6.72,0.654562,-2.9634840000000002,-0.725344,-0.093521,0.8056180000000001,0.33728
673,6.73,0.378449,-2.269507,-0.390341,-0.120148,0.8056180000000001,0.269104
674,6.74,0.252884,-1.795575,-0.14247200000000002,-0.104172,0.8088069999999999,0.201996
675,6.75,0.234171,-1.2027860000000001,-0.150633,-0.076477,0.812012,0.142349
676,6.76,0.259023,-0.8866620000000001,-0.2912,-0.06689500000000001,0.8152010000000001,0.095474
677,6.77,0.389966,-0.607425,-0.43905500000000003,-0.046646,0.801361,0.062453999999999996
678,6.78,0.405631,-0.254436,-0.7031310000000001,0.017258000000000003,0.759811,0.031555
679,6.79,0.430755,0.060084000000000005,-0.9536950000000001,0.101425,0.714005,-0.0003970000000000015
680,6.8,0.44472399999999995,0.328335,-1.170929,0.197296,0.682053,-0.033431999999999996
681,6.81,0.316281,0.39460700000000004,-1.228481,0.275055,0.690567,-0.07070900000000001
682,6.82,0.07993899999999997,0.23895999999999998,-1.303239,0.317673,0.708679,-0.11438
683,6.83,-0.182292,-0.07834200000000001,-1.348319,0.320862,0.725723,-0.153793
684,6.84,-0.334912,-0.280869,-1.457544,0.276123,0.743835,-0.178299
685,6.85,-0.43285,-0.43083699999999997,-1.648437,0.21647600000000003,0.7683409999999999,-0.182556
686,6.86,-0.42058599999999996,-0.458417,-1.762541,0.166397,0.809875,-0.163391
687,6.87,-0.414448,-0.25414000000000003,-1.8716849999999998,0.122726,0.871658,-0.128235
688,6.88,-0.568553,0.154071,-1.9007439999999998,0.06626900000000001,0.9025569999999999,-0.068573
689,6.89,-0.69614,0.608103,-1.5467799999999998,0.0012819999999999984,0.9057459999999999,-0.014252
690,6.9,-0.589472,1.221357,-1.019503,-0.07008400000000001,0.888702,0.035812000000000004
691,6.91,-0.332892,1.853596,-0.49306400000000006,-0.13826,0.866333,0.080551
692,6.92,0.0212,2.503212,0.004719000000000001,-0.149979,0.8695370000000001,0.146606
693,6.93,0.508628,2.928171,0.222852,-0.10524000000000001,0.894043,0.20413199999999998
694,6.94,0.8158770000000001,3.077024,0.126634,-0.006165000000000004,0.901489,0.240341
695,6.95,0.869251,2.92562,-0.054222999999999986,0.11314400000000001,0.8950959999999999,0.257385
696,6.96,0.519234,2.6000900000000002,-0.39766999999999997,0.24096700000000001,0.9004209999999999,0.249939
697,6.97,-0.11789699999999995,2.267561,-0.625274,0.368805,0.973923,0.224365
698,6.98,-1.000973,2.121846,-0.753316,0.461487,1.107086,0.183884
699,6.99,-1.477703,1.913933,-0.5077119999999999,0.398636,1.2317200000000001,0.178558
700,7.0,-1.153463,1.415195,0.3676360000000001,0.19516,1.315887,0.221176
701,7.01,-0.9213120000000001,0.885446,1.764113,0.049225,1.345703,0.29681399999999997
702,7.02,-1.224299,0.24961100000000006,3.260856,-0.03067,1.373398,0.4534
703,7.03,-1.963657,-0.354192,4.319636,-0.141464,1.527863,0.6621859999999999
704,7.04,-2.437451,-0.759989,4.478952,-0.24266100000000002,1.733459,0.8305049999999999
705,7.05,-2.534856,-0.744584,3.7431120000000004,-0.200043,1.772873,0.878433
706,7.06,-2.475719,-0.643095,2.576382,-0.05304,1.681259,0.7804409999999999
707,7.07,-2.660735,-0.27538,1.207185,0.033249,1.469284,0.589752
708,7.08,-3.144209,0.487515,0.661401,-0.055175999999999996,1.277527,0.38203400000000004
709,7.09,-2.781888,1.191481,1.2448489999999999,-0.254379,1.258362,0.220108
710,7.1,-2.013083,2.0144290000000002,2.173178,-0.42163100000000003,1.33931,0.084824
711,7.11,-0.775872,2.5623009999999997,2.660772,-0.49618500000000004,1.439453,-0.019577
712,7.12,0.18458800000000006,2.566445,2.841701,-0.49406400000000006,1.5299989999999999,-0.099472
713,7.13,0.898542,2.188078,2.590304,-0.42482,1.594986,-0.170837
714,7.14,1.159384,1.609267,2.214673,-0.336411,1.599243,-0.237961
715,7.15,0.867333,0.550397,1.8445330000000002,-0.252243,1.553436,-0.296539
716,7.16,0.7288560000000001,-0.404648,1.491958,-0.17662,1.481003,-0.318924
717,7.17,0.62853,-1.1590639999999999,1.126298,-0.07115200000000002,1.3776700000000002,-0.327438
718,7.18,0.483303,-1.7630880000000002,0.399149,0.040695,1.2572940000000001,-0.32211300000000004
719,7.19,0.176701,-2.274188,-0.37735100000000005,0.11314400000000001,1.145432,-0.323181
720,7.2,-0.238127,-2.822375,-0.9718049999999999,0.114197,1.0303959999999999,-0.32211300000000004
721,7.21,-0.72569,-3.146907,-1.412182,0.079056,0.9057459999999999,-0.323181
722,7.22,-1.297009,-3.4773389999999997,-1.693273,0.004485999999999997,0.798157,-0.319977
723,7.23,-1.7800200000000002,-3.5532809999999997,-1.690868,-0.09458899999999999,0.7299800000000001,-0.30188000000000004
724,7.24,-2.026081,-3.4685989999999998,-1.68124,-0.185135,0.692703,-0.269913
725,7.25,-2.093204,-3.26744,-1.506697,-0.263962,0.671402,-0.21559099999999998
726,7.26,-1.9516380000000002,-2.869924,-1.1506299999999998,-0.310837,0.661804,-0.153793
727,7.27,-1.7266720000000002,-2.402493,-0.776154,-0.327881,0.661804,-0.084564
728,7.28,-1.4736209999999998,-1.9422720000000002,-0.46952,-0.308701,0.673523,-0.029160000000000002
729,7.29,-1.2172290000000001,-1.471343,-0.221956,-0.253311,0.691635,0.009186
730,7.3,-0.993405,-1.071369,-0.155112,-0.182999,0.709747,0.031555
731,7.31,-0.924766,-0.789461,-0.389863,-0.11377000000000001,0.7214659999999999,0.03688
732,7.32,-1.020248,-0.600055,-0.5640689999999999,-0.051971,0.720398,0.041138
733,7.33,-1.14856,-0.502835,-0.9447059999999999,-0.0029749999999999985,0.71933,0.057129
734,7.34,-1.2428780000000001,-0.490705,-1.335465,0.024719,0.709747,0.080551
735,7.35,-1.32492,-0.38382,-1.620516,0.03537,0.690567,0.110382
736,7.36,-1.361976,-0.21273499999999998,-1.810914,0.03537,0.651154,0.148727
737,7.37,-1.311834,0.04154300000000001,-1.934606,0.027924,0.600021,0.192413
738,7.38,-1.214661,0.321457,-1.9972860000000001,0.028976,0.540375,0.23075900000000002
739,7.39,-1.096252,0.6614720000000001,-2.001534,0.034302,0.488174,0.261658
740,7.4,-0.9321280000000001,1.07641,-1.940627,0.042831,0.446625,0.274429
741,7.41,-0.862346,1.271564,-1.819437,0.050293,0.395493,0.27017199999999997
742,7.42,-0.709669,1.352121,-1.624588,0.057739,0.355011,0.25100700000000004
743,7.43,-0.367129,1.493475,-1.583226,0.053482,0.307068,0.209457
744,7.44,-0.192683,1.6957650000000002,-1.758816,0.031113,0.236771,0.153
745,7.45,-0.124384,1.91186,-1.905619,-0.004044000000000001,0.131302,0.101868
746,7.46,-0.209925,2.091345,-1.982114,-0.022156,0.011993000000000005,0.082687
747,7.47,-0.46248,2.268322,-1.8059029999999998,0.008743000000000004,-0.070023,0.099731
748,7.48,-0.806197,2.38778,-1.547428,0.074783,-0.083878,0.141281
749,7.49,-1.40401,2.413194,-1.001244,0.153625,-0.065765,0.193481
750,7.5,-1.823541,2.613849,-0.343591,0.223923,-0.037002999999999994,0.228622
751,7.51,-2.384671,3.245479,0.198034,0.24736,-0.064697,0.220108
752,7.52,-2.842355,3.996018,0.914438,0.133377,-0.074295,0.174301
753,7.53,-2.9984990000000002,3.9536620000000005,2.3837029999999997,-0.03920000000000001,0.04715,0.13382
754,7.54,-2.6226130000000003,2.9725349999999997,3.703878,-0.108444,0.30494699999999997,0.066711
755,7.55,-1.8945720000000001,1.40099,4.358732,-0.12654100000000001,0.552078,-0.060059
756,7.56,-1.051291,-0.07151299999999994,4.489388,-0.11482200000000001,0.669266,-0.177231
757,7.57,-0.353144,-0.996,3.8192720000000002,-0.010437000000000002,0.680984,-0.24008200000000002
758,7.58,0.388329,-1.666482,2.586887,0.14935299999999999,0.684174,-0.25393699999999997
759,7.59,1.195734,-1.8381439999999998,1.117836,0.24096700000000001,0.685242,-0.200668
760,7.6,2.057811,-1.7432889999999999,0.19022899999999995,0.191971,0.662872,-0.115448
761,7.61,2.611454,-1.274126,-0.174232,0.049224999999999984,0.618134,-0.027038999999999997
762,7.62,2.6677310000000003,-0.558287,-0.165605,-0.11802699999999999,0.524384,0.043274
763,7.63,2.1451540000000002,0.28725300000000004,-0.041488999999999984,-0.286331,0.39975,0.093338
764,7.64,1.363756,1.048614,0.31969200000000003,-0.420563,0.310272,0.15193199999999998
765,7.65,0.51085,1.464703,1.06431,-0.48127700000000007,0.288971,0.199875
766,7.66,-0.028394000000000006,1.557815,1.672086,-0.445053,0.29322800000000004,0.231827
767,7.67,-0.46397200000000005,1.573666,2.1002110000000003,-0.35238600000000003,0.281509,0.26271100000000003
768,7.68,-0.685921,1.174279,2.1520759999999997,-0.22135900000000003,0.265533,0.27975500000000003
769,7.69,-0.94045,0.8392379999999999,1.9572619999999998,-0.085007,0.257004,0.314911
770,7.7,-0.876859,0.28782699999999994,1.54926,0.049225000000000005,0.283646,0.350067
771,7.71,-0.664979,-0.311382,0.9483159999999999,0.168533,0.327316,0.375641
772,7.72,-0.30038000000000004,-1.01748,0.26309099999999996,0.246292,0.374191,0.39801
773,7.73,0.15847,-1.826327,-0.30189499999999997,0.285706,0.406143,0.40333600000000003
774,7.74,0.545251,-2.650338,-0.7438170000000001,0.27825900000000003,0.41572600000000004,0.392685
775,7.75,0.6328550000000001,-3.372437,-1.020003,0.238846,0.41893,0.38096599999999997
776,7.76,0.687319,-3.903482,-1.230059,0.177048,0.43277,0.379898
777,7.77,0.703577,-4.140875,-1.317906,0.100357,0.447693,0.370316
778,7.78,0.708617,-4.109903,-1.384207,0.018326,0.46048,0.339417
779,7.79,0.59465,-3.8537449999999995,-1.3701809999999999,-0.062637,0.480713,0.291473
780,7.8,0.41918900000000003,-3.392215,-1.293535,-0.134003,0.509476,0.23608400000000002
781,7.81,0.251793,-2.8641959999999997,-1.0705719999999999,-0.189392,0.539307,0.175369
782,7.82,0.13621,-2.331602,-0.7993779999999999,-0.220291,0.557419,0.117844
783,7.83,0.119604,-1.8864150000000002,-0.5499390000000001,-0.219223,0.564865,0.082687
784,7.84,0.22592399999999999,-1.4222620000000001,-0.5894550000000001,-0.203247,0.571259,0.049667
785,7.85,0.20668899999999998,-0.979267,-0.7857350000000001,-0.188324,0.586166,0.029419
786,7.86,0.372523,-0.737908,-0.970708,-0.167023,0.5957640000000001,0.016647
787,7.87,0.5332819999999999,-0.468533,-1.223686,-0.12228399999999999,0.589371,-0.002532999999999999
788,7.88,0.618125,-0.12300399999999995,-1.563338,-0.075409,0.581909,-0.022765999999999998
789,7.89,0.671883,0.147454,-1.6988720000000002,-0.040253,0.5627439999999999,-0.052597000000000005
790,7.9,0.727064,0.429159,-1.846528,-0.010437,0.5275880000000001,-0.08989
791,7.91,0.6081770000000001,0.638461,-1.849778,0.020462,0.46899399999999997,-0.127167
792,7.92,0.675143,0.8599700000000001,-1.8704330000000002,0.042831,0.41467299999999996,-0.13355999999999998
793,7.93,0.8041689999999999,0.931844,-1.740393,0.06413300000000001,0.393356,-0.126099
794,7.94,0.834648,1.086743,-1.623304,0.092896,0.378448,-0.09414700000000001
795,7.95,0.631644,1.125834,-1.707472,0.10461400000000001,0.369919,-0.053665
796,7.96,0.3291620000000001,1.299342,-1.772156,0.103546,0.386963,-0.015319999999999999
797,7.97,0.069672,1.610629,-1.952647,0.086502,0.44236800000000004,0.002792000000000001
798,7.98,-0.24390100000000003,1.8799720000000002,-2.026453,0.039642000000000004,0.477524,0.010254000000000001
799,7.99,-0.49265699999999996,2.2900970000000003,-2.008302,-0.03066999999999999,0.516937,0.014511000000000001
800,8.0,-0.602668,2.695143,-1.8380400000000001,-0.104172,0.573395,0.032623
801,8.01,-0.310029,3.1537439999999997,-1.599445,-0.148911,0.649017,0.05499299999999999
802,8.02,-0.052524,3.3452349999999997,-1.256943,-0.116959,0.6873779999999999,0.05499299999999999
803,8.03,-0.119966,3.510412,-0.893767,-0.024276999999999996,0.658615,0.042206
804,8.04,-0.375729,3.7925720000000003,-0.37078099999999997,0.057739,0.647964,0.041138
805,8.05,-0.21225700000000003,4.09964,0.3730950000000001,0.033249,0.6522220000000001,0.062453999999999996
806,8.06,0.5586399999999999,4.500396,1.392731,-0.104172,0.585114,0.11891199999999999
807,8.07,1.156844,4.376894,2.852998,-0.24266100000000002,0.426392,0.22650100000000004
808,8.08,1.9443080000000001,3.700439,4.383451,-0.355576,0.349686,0.41612200000000005
809,8.09,1.8844439999999998,2.885942,5.144759,-0.39819299999999996,0.383774,0.591888
810,8.1,1.278623,1.5893040000000005,4.942418,-0.260773,0.495621,0.6749729999999999
811,8.11,0.2804300000000001,0.057823999999999987,4.212929,0.063065,0.567001,0.670715
812,8.12,-0.7406510000000001,-1.5472629999999998,2.855369,0.4582820000000001,0.576584,0.576965
813,8.13,-1.964753,-3.021155,1.4461620000000002,0.7501680000000001,0.5488890000000001,0.391617
814,8.14,-2.8699049999999997,-3.7260269999999998,0.448431,0.816208,0.565933,0.174301
815,8.15,-3.685882,-3.424405,-0.053334000000000034,0.636185,0.670334,-0.018509
816,8.16,-3.960561,-2.558063,-0.21322199999999997,0.309143,0.845032,-0.15592999999999999
817,8.17,-3.125675,-1.561375,-0.245506,-0.04025300000000001,1.00589,-0.235825
818,8.18,-1.683513,-0.802509,-0.179557,-0.337463,1.063416,-0.276306
819,8.19,-0.31773,-0.343159,0.20487800000000003,-0.5483859999999999,0.9835209999999999,-0.278442
820,8.2,1.113038,0.357321,0.950399,-0.660248,0.8620760000000001,-0.24115
821,8.21,2.051968,1.0858729999999999,1.918289,-0.654922,0.761948,-0.20280499999999999
822,8.22,2.436258,1.46986,2.719935,-0.515366,0.662872,-0.187881
823,8.23,2.389855,1.421865,2.858209,-0.270355,0.577652,-0.1996
824,8.24,1.804502,0.6545979999999999,2.530966,0.0012820000000000056,0.480713,-0.24008200000000002
825,8.25,1.008902,-0.2737120000000001,1.684123,0.23671,0.386963,-0.281631
826,8.26,0.07489800000000002,-1.235339,0.78277,0.37092600000000003,0.307068,-0.32104499999999997
827,8.27,-0.823815,-2.0594189999999997,-0.122848,0.416733,0.25807199999999997,-0.342346
828,8.28,-1.5764200000000002,-2.800854,-0.743996,0.386917,0.255936,-0.346619
829,8.29,-2.160041,-3.390822,-1.260675,0.309143,0.281509,-0.338089
830,8.3,-2.435036,-3.7162889999999997,-1.5614219999999999,0.20581100000000002,0.30494699999999997,-0.306137
831,8.31,-2.4432970000000003,-3.8094959999999998,-1.719425,0.086502,0.313461,-0.264587
832,8.32,-2.182916,-3.6441589999999997,-1.717487,-0.028549,0.280441,-0.212387
833,8.33,-1.742949,-3.2719840000000002,-1.5270920000000001,-0.134003,0.229309,-0.154861
834,8.34,-1.277917,-2.7385580000000003,-1.168399,-0.213898,0.161133,-0.099472
835,8.35,-0.851283,-2.119673,-0.883856,-0.25863600000000003,0.095093,-0.055800999999999996
836,8.36,-0.5547479999999999,-1.50665,-0.617859,-0.281006,0.032242,-0.018509
837,8.37,-0.340451,-1.013566,-0.50512,-0.26716599999999996,-0.010376,0.0006560000000000003
838,8.38,-0.244137,-0.649496,-0.461318,-0.230942,-0.035934,0.009186
839,8.39,-0.126998,-0.506937,-0.532927,-0.182999,-0.045531999999999996,0.010254000000000001
840,8.4,-0.045312,-0.567852,-0.740993,-0.11482200000000001,-0.048721,0.016647
841,8.41,0.031521,-0.744834,-1.012416,-0.028549000000000005,-0.052979,0.029419
842,8.42,0.21541300000000002,-1.021566,-1.3230870000000001,0.058807000000000005,-0.08280900000000001,0.05499299999999999
843,8.43,0.388231,-1.283978,-1.795812,0.117401,-0.141403,0.090149
844,8.44,0.393253,-1.335913,-2.2103900000000003,0.125916,-0.238342,0.131683
845,8.45,0.181038,-1.1435790000000001,-2.476604,0.09182699999999999,-0.354462,0.167908
846,8.46,-0.19855,-0.699032,-2.603601,0.02153,-0.452454,0.174301
847,8.47,-0.650011,-0.027924000000000004,-2.556046,-0.045593,-0.5249020000000001,0.159393
848,8.48,-0.9535389999999999,0.8982690000000001,-2.4886630000000003,-0.09458899999999999,-0.5483399999999999,0.11570699999999999
849,8.49,-1.095207,1.817596,-2.3257830000000004,-0.129745,-0.522766,0.056061
850,8.5,-0.8560530000000001,2.623832,-1.911127,-0.143585,-0.488678,-0.006790000000000001
851,8.51,-0.928266,3.193273,-1.29075,-0.12654100000000001,-0.46630900000000003,-0.06219500000000001
852,8.52,-1.4343629999999998,3.5846720000000003,-0.645512,-0.057297,-0.43541,-0.09840399999999999
853,8.53,-2.1410419999999997,3.746198,-0.136429,0.05987500000000001,-0.38108800000000004,-0.118652
854,8.54,-2.8725400000000003,3.53502,0.07779800000000002,0.20369,-0.306519,-0.127167
855,8.55,-3.3348370000000003,3.044339,-0.09789099999999999,0.37092600000000003,-0.207443,-0.113327
856,8.56,-3.521928,2.382578,-0.45412600000000003,0.5253909999999999,-0.122223,-0.084564
857,8.57,-3.1274029999999997,2.00421,-0.827275,0.607422,-0.140335,-0.057922
858,8.58,-2.6363529999999997,2.146032,-1.176495,0.487045,-0.162704,-0.06752000000000001
859,8.59,-2.261012,2.262746,-0.35873499999999997,0.112076,-0.07962000000000001,-0.056853999999999995
860,8.6,-2.237366,1.9687439999999998,1.534938,-0.237335,0.105743,-0.0025330000000000005
861,8.61,-1.671858,1.622969,3.4917870000000004,-0.43440200000000007,0.326248,0.0017239999999999998
862,8.62,-0.2486180000000001,1.1242,4.917366,-0.600586,0.565933,-0.087753
863,8.63,0.701962,0.555868,5.540995,-0.634674,0.684174,-0.217712
864,8.64,1.4643700000000002,0.381502,5.112504,-0.42800900000000003,0.6522220000000001,-0.328506
865,8.65,2.1292150000000003,0.0481,3.752496,-0.08712799999999997,0.6298520000000001,-0.379639
866,8.66,3.572046,-0.034986,2.0491900000000003,0.19622799999999999,0.569122,-0.344482
867,8.67,4.961526,0.151836,0.92196,0.281448,0.43809499999999996,-0.263519
868,8.68,5.6797889999999995,0.5282,0.726811,0.200485,0.264465,-0.167648
869,8.69,5.440686,1.096762,0.642293,0.051346,0.068451,-0.069641
870,8.7,4.295856,1.42448,0.534554,-0.11589100000000001,-0.146729,0.018768
871,8.71,2.768787,1.4108379999999998,0.42286899999999994,-0.252243,-0.30438200000000004,0.108261
872,8.72,1.380124,1.2880280000000002,0.409477,-0.314026,-0.393875,0.187088
873,8.73,0.27676100000000003,1.078015,0.691353,-0.327881,-0.442871,0.25206
874,8.74,-0.6398729999999999,0.691002,1.226948,-0.309769,-0.463104,0.278702
875,8.75,-1.254373,0.393204,1.7122119999999998,-0.25012199999999996,-0.418365,0.294678
876,8.76,-1.493678,0.095939,1.8349540000000002,-0.134003,-0.32569899999999996,0.307465
877,8.77,-1.635307,-0.32927,1.591069,0.015136999999999998,-0.209579,0.306396
878,8.78,-1.568626,-0.876801,0.9254540000000001,0.148285,-0.083878,0.306396
879,8.79,-1.099644,-1.584336,0.28329099999999996,0.232452,0.030106,0.31704699999999997
880,8.8,-0.3217900000000001,-2.3125009999999997,-0.364194,0.276123,0.120651,0.32663000000000003
881,8.81,0.534171,-2.942735,-0.949434,0.279312,0.162201,0.315979
882,8.82,1.033988,-3.5642660000000004,-1.36358,0.256943,0.157944,0.292542
883,8.83,1.317692,-4.021447,-1.609183,0.209015,0.150482,0.277634
884,8.84,1.5635729999999999,-4.3118870000000005,-1.599289,0.14296,0.14515699999999998,0.269104
885,8.85,1.61323,-4.278815,-1.551891,0.07372999999999999,0.148346,0.244614
886,8.86,1.631779,-4.08562,-1.3626610000000001,0.0012819999999999984,0.148346,0.196671
887,8.87,1.4442959999999998,-3.73156,-1.157764,-0.062637,0.141953,0.134888
888,8.88,1.264429,-3.393608,-0.8990049999999999,-0.10524000000000001,0.137695,0.08161900000000001
889,8.89,1.129733,-2.848166,-0.8310280000000001,-0.129745,0.136627,0.032623
890,8.9,0.860298,-2.359633,-0.900086,-0.165955,0.150482,-0.009995
891,8.91,0.566163,-1.7465970000000002,-0.748835,-0.210709,0.16966199999999998,-0.021713
892,8.92,0.36825399999999997,-1.221023,-0.706916,-0.19792200000000001,0.194153,-0.02597
893,8.93,0.271487,-0.760941,-0.716847,-0.142532,0.225052,-0.032364
894,8.94,0.18708699999999998,-0.354177,-0.920528,-0.067963,0.24635300000000002,-0.050476
895,8.95,0.148393,0.06880700000000001,-1.184225,-0.004043999999999999,0.266602,-0.080292
896,8.96,-0.06851700000000001,0.420306,-1.35194,0.053482,0.285767,-0.11119100000000001
897,8.97,-0.22060500000000002,0.6832729999999999,-1.503961,0.10675,0.326248,-0.139954
898,8.98,-0.36188899999999996,0.780674,-1.63053,0.148285,0.42851300000000003,-0.16125499999999998
899,8.99,-0.207298,0.8357389999999999,-1.682131,0.151489,0.48496999999999996,-0.156998
900,9.0,-0.030861000000000003,0.9900209999999999,-1.644824,0.147232,0.52652,-0.14421099999999998
901,9.01,-0.043991,1.2759719999999999,-1.708596,0.147232,0.5467529999999999,-0.13037100000000001
902,9.02,-0.077778,1.663029,-1.830666,0.125916,0.579788,-0.09840399999999999
903,9.03,0.071648,2.002094,-1.902512,0.07692,0.622391,-0.06219500000000001
904,9.04,0.301267,2.3624549999999997,-1.8118509999999999,-0.0008389999999999995,0.660736,-0.032364
905,9.05,0.719326,2.881537,-1.593137,-0.077545,0.684174,-0.006790000000000001
906,9.06,1.3179889999999999,3.349443,-1.375918,-0.11802699999999999,0.701218,0.030487
907,9.07,1.6872900000000002,3.6587419999999997,-1.106018,-0.08606,0.678848,0.051788
908,9.08,1.8153169999999998,3.736296,-0.9142450000000001,0.020462,0.626648,0.051788
909,9.09,0.752149,3.8800239999999997,-0.613052,0.29742399999999997,0.455139,0.025162
910,9.1,0.744977,3.8267260000000003,-0.139899,0.242035,0.44023100000000004,0.068832
911,9.11,1.442184,3.33017,1.199119,0.044968000000000015,0.380585,0.137024
912,9.12,1.311006,2.406348,2.8191029999999997,-0.065826,0.23889200000000002,0.24780300000000002
913,9.13,1.033302,1.427547,4.260568,-0.15423599999999998,0.208008,0.423569
914,9.14,0.406686,0.41812299999999997,5.392066000000001,-0.277817,0.25914,0.600403
915,9.15,-0.13940000000000002,-0.12528,5.396921,-0.282074,0.316666,0.728241
916,9.16,-0.36602199999999996,-0.837053,4.625983,-0.11056500000000001,0.312408,0.774048
917,9.17,-0.418451,-1.55756,3.153707,0.155746,0.257004,0.727173
918,9.18,-0.7236239999999999,-2.0755369999999997,1.7301669999999998,0.335785,0.15473900000000002,0.592957
919,9.19,-1.3798979999999998,-1.9857939999999998,0.9344,0.326187,0.065262,0.42677299999999996
920,9.2,-1.9662689999999998,-1.21425,0.813611,0.164276,0.089767,0.264847
921,9.21,-2.045877,0.020036999999999968,1.042263,-0.013626,0.202682,0.10719300000000001
922,9.22,-1.589316,1.046196,1.169809,-0.17128,0.375244,-0.05899
923,9.23,-0.721835,1.5968360000000001,1.120577,-0.286331,0.53717,-0.194275
924,9.24,0.13146600000000006,1.578812,1.2316129999999998,-0.353455,0.6394350000000001,-0.304001
925,9.25,0.768526,1.5102950000000002,1.497152,-0.35238600000000003,0.710815,-0.366852
926,9.26,1.139797,1.1308989999999999,1.6906279999999998,-0.23947100000000002,0.70549,-0.372177
927,9.27,1.356776,0.742821,1.551524,-0.065826,0.6085510000000001,-0.347672
928,9.28,1.379817,0.190367,1.197455,0.128052,0.459412,-0.296539
929,9.29,1.256953,-0.507814,0.708029,0.279312,0.302811,-0.267776
930,9.3,0.962226,-1.330319,0.291248,0.371994,0.147278,-0.268845
931,9.31,0.401669,-2.08387,-0.03461,0.403961,0.015198000000000003,-0.29441799999999996
932,9.32,-0.19018299999999996,-2.804141,-0.45110100000000003,0.384781,-0.066833,-0.32424899999999995
933,9.33,-0.558661,-3.412743,-0.623579,0.326187,-0.11370799999999999,-0.347672
934,9.34,-0.9968239999999999,-3.8755410000000006,-0.814682,0.262268,-0.144592,-0.372177
935,9.35,-1.322945,-4.130267,-1.04185,0.180252,-0.16484100000000002,-0.372177
936,9.36,-1.458741,-4.149699,-1.185663,0.09396399999999999,-0.186142,-0.346619
937,9.37,-1.483576,-3.8802489999999996,-1.308306,0.006607000000000003,-0.230881,-0.290161
938,9.38,-1.213078,-3.444204,-1.297017,-0.067963,-0.268173,-0.214523
939,9.39,-0.975601,-2.882418,-1.059527,-0.119095,-0.301193,-0.150604
940,9.4,-0.680521,-2.2357,-0.784543,-0.134003,-0.311844,-0.09840399999999999
941,9.41,-0.46468100000000007,-1.648084,-0.581831,-0.131866,-0.309708,-0.07284500000000001
942,9.42,-0.24880500000000003,-1.140572,-0.483995,-0.104172,-0.288406,-0.066452
943,9.43,-0.158615,-0.74668,-0.456842,-0.062637,-0.256454,-0.07496599999999999
944,9.44,-0.010883000000000006,-0.474883,-0.555823,0.005554000000000003,-0.22876,-0.086685
945,9.45,0.10146099999999998,-0.399472,-0.744267,0.102493,-0.211716,-0.09628300000000001
946,9.46,0.18905999999999998,-0.432386,-1.006202,0.213272,-0.22343400000000002,-0.093079
947,9.47,0.159961,-0.5594279999999999,-1.2294209999999999,0.29742399999999997,-0.270294,-0.06219500000000001
948,9.48,0.0036029999999999955,-0.7081689999999999,-1.408717,0.351761,-0.341675,-0.009995
949,9.49,-0.375119,-0.78913,-1.568928,0.377319,-0.386414,0.066711
950,9.5,-0.8015720000000001,-0.604587,-1.835282,0.366669,-0.406647,0.12956199999999998
951,9.51,-1.0921020000000001,-0.366085,-1.9472669999999999,0.313416,-0.404526,0.162582
952,9.52,-1.0078559999999999,-0.019986000000000004,-2.1960029999999997,0.23671,-0.385345,0.145538
953,9.53,-0.8790709999999999,0.629794,-2.458304,0.130188,-0.38108800000000004,0.09227
954,9.54,-0.491654,1.370747,-2.471506,0.008742999999999994,-0.403458,0.030487
955,9.55,-0.430658,2.960809,-1.659388,-0.12867699999999999,-0.5195770000000001,-0.047272
956,9.56,-0.600168,3.631188,-1.067089,-0.076477,-0.536621,-0.047272
957,9.57,-0.798849,3.934042,-0.553597,0.031113,-0.497192,-0.04834
958,9.58,-1.092083,3.8434,-0.21168,0.17067000000000002,-0.408783,-0.050476
959,9.59,-1.485683,3.441535,-0.24341500000000002,0.309143,-0.29693600000000003,-0.060059
960,9.6,-1.818403,2.8308310000000003,-0.6080810000000001,0.454025,-0.233017,-0.057922
961,9.61,-1.607516,2.5226509999999998,-0.9208799999999999,0.554153,-0.28308099999999997,-0.050476
962,9.62,-1.253025,2.814336,-1.053721,0.487045,-0.382156,-0.07284500000000001
963,9.63,-1.038127,2.8283869999999998,0.099742,0.189835,-0.37683099999999997,-0.085617
964,9.64,-1.147689,1.959745,3.128192,-0.165955,-0.196793,-0.049408
965,9.65,-0.16369299999999998,1.149456,4.459099,-0.270355,0.001342999999999997,-0.134628
966,9.66,0.605066,0.11736700000000001,4.999369000000001,-0.367294,0.161133,-0.312531
967,9.67,1.0678,-0.587403,4.862302,-0.33427399999999996,0.183502,-0.478699
968,9.68,1.327308,-0.950227,4.056058999999999,-0.12228399999999999,0.141953,-0.577774
969,9.69,2.186692,-0.893134,2.574242,0.131241,0.110001,-0.556473
970,9.7,3.6302480000000004,-0.689137,1.3525690000000001,0.226059,0.07591200000000001,-0.445679
971,9.71,4.689744,-0.105001,0.914658,0.152557,0.001342999999999997,-0.318924
972,9.72,4.943688,0.578341,0.929366,-0.02002,-0.121155,-0.19108599999999998
973,9.73,4.115778,1.198621,1.034905,-0.204315,-0.316101,-0.071777
974,9.74,2.667459,1.520145,0.9321709999999999,-0.328949,-0.507858,0.053925
975,9.75,1.400794,1.6543849999999998,0.709651,-0.384338,-0.61438,0.171112
976,9.76,0.23315,1.728461,0.920356,-0.375824,-0.678299,0.24780300000000002
977,9.77,-0.720535,1.5286549999999999,1.415668,-0.314026,-0.683624,0.278702
978,9.78,-1.131724,1.2474809999999998,1.8438860000000001,-0.22880599999999998,-0.643143,0.28828400000000004
979,9.79,-1.361356,0.724164,2.00488,-0.11802699999999999,-0.5611109999999999,0.27975500000000003
980,9.8,-1.4203569999999999,0.06437599999999999,1.885902,0.025787,-0.445007,0.28721599999999997
981,9.81,-1.187821,-0.8656530000000001,1.428482,0.178116,-0.308655,0.278702
982,9.82,-0.79561,-1.594908,0.6054430000000001,0.281448,-0.190399,0.265915
983,9.83,-0.349402,-2.35196,-0.270269,0.327255,-0.097733,0.259521
984,9.84,0.532455,-3.084794,-0.854353,0.32193,-0.064697,0.27017199999999997
985,9.85,1.054284,-3.7083120000000003,-1.4161110000000001,0.283585,-0.080688,0.265915
986,9.86,1.483695,-4.260803,-1.605805,0.19622799999999999,-0.08494600000000001,0.269104
987,9.87,1.704732,-4.502186,-1.666766,0.111008,-0.090271,0.265915
988,9.88,1.771611,-4.505091,-1.6780490000000001,0.031113,-0.086014,0.24673499999999998
989,9.89,1.772836,-4.3321190000000005,-1.534945,-0.062637,-0.071091,0.208389
990,9.9,1.730576,-3.901446,-1.336927,-0.131866,-0.074295,0.145538
991,9.91,1.4420600000000001,-3.3030589999999997,-1.132982,-0.17981,-0.081741,0.06350700000000001
992,9.92,1.0272860000000001,-2.629107,-0.8570979999999999,-0.21815500000000002,-0.064697,0.0006560000000000003
993,9.93,0.6307590000000001,-2.004875,-0.626663,-0.227753,-0.039139,-0.046204
994,9.94,0.34048,-1.499665,-0.48987299999999995,-0.191528,-0.00824,-0.07496599999999999
995,9.95,0.221987,-1.0831950000000001,-0.5661010000000001,-0.129745,0.026917,-0.09414700000000001
996,9.96,0.234871,-0.689737,-0.746348,-0.058365,0.067383,-0.110123
997,9.97,0.20184000000000002,-0.347197,-1.055792,0.0012819999999999984,0.100418,-0.121841
998,9.98,0.21515399999999998,-0.106635,-1.253439,0.044968,0.137695,-0.132492
999,9.99,0.155946,0.09693099999999999,-1.38299,0.080109,0.199478,-0.14421099999999998
1000,10.0,-0.024188,0.28826,-1.537563,0.10461400000000001,0.286835,-0.153793
1001,10.01,-0.273111,0.383318,-1.546152,0.11633299999999999,0.365662,-0.156998
1002,10.02,-0.288657,0.422574,-1.4701790000000001,0.12486300000000002,0.42211899999999997,-0.156998
1003,10.03,-0.20308900000000002,0.601426,-1.523872,0.138702,0.44876099999999997,-0.15274000000000001
1004,10.04,-0.216835,0.917057,-1.562438,0.14935299999999999,0.441299,-0.139954
1005,10.05,-0.157349,1.3423559999999999,-1.612319,0.151489,0.444489,-0.12397799999999999
1006,10.06,0.049218,1.821102,-1.738603,0.136581,0.47538800000000003,-0.097336
1007,10.07,0.505744,2.273038,-1.593221,0.075851,0.519058,-0.066452
1008,10.08,1.007919,2.706861,-1.332986,0.004485999999999997,0.557419,-0.038757
1009,10.09,1.618608,3.226337,-1.122396,-0.042388999999999996,0.5680689999999999,0.005996999999999999
1010,10.1,2.0465009999999997,3.50965,-1.02674,-0.038132,0.544632,0.056061
1011,10.11,2.101471,3.57277,-0.944083,0.03537,0.47431899999999994,0.07843
1012,10.12,1.9490040000000002,3.4751790000000002,-0.938333,0.163208,0.389099,0.079498
1013,10.13,1.398915,3.382449,-0.8272709999999999,0.320862,0.302811,0.046463
1014,10.14,0.588322,3.653035,-0.78178,0.40075700000000003,0.260208,0.037949000000000004
1015,10.15,0.806679,3.443521,-0.315215,0.270798,0.281509,0.075226
1016,10.16,1.409525,2.8855299999999997,0.818559,0.111008,0.213333,0.14447000000000002
1017,10.17,1.081334,2.132276,1.9928740000000003,0.086502,0.114258,0.272308
1018,10.18,0.9261290000000001,1.23153,3.043573,-0.012558,0.157944,0.459793
1019,10.19,0.285898,0.256706,4.108124,-0.224548,0.27618400000000004,0.6078640000000001
1020,10.2,-0.302281,-0.352167,4.698872,-0.307648,0.36673,0.707993
1021,10.21,-0.617079,-0.8939,4.506346,-0.170227,0.384842,0.728241
1022,10.22,-0.821846,-1.488245,3.305855,0.06413300000000001,0.315598,0.6526029999999999
1023,10.23,-0.8671620000000001,-1.757783,1.8642849999999997,0.217529,0.172852,0.511993
1024,10.24,-1.14582,-1.7239779999999998,1.107696,0.19516,0.049286,0.351135
1025,10.25,-1.2276770000000001,-1.1034110000000001,1.218207,0.06626900000000001,0.042892,0.207321
1026,10.26,-1.242034,-0.09748599999999996,1.383247,-0.06475800000000001,0.111069,0.084824
1027,10.27,-0.7811859999999999,0.7088869999999999,1.197461,-0.17662,0.21759,-0.028107
1028,10.28,-0.03463700000000003,1.0394079999999999,0.9127270000000001,-0.27461199999999997,0.331573,-0.149536
1029,10.29,0.4833160000000001,0.85031,0.989815,-0.322556,0.401886,-0.243286
1030,10.3,0.9390120000000001,0.48706000000000005,1.272591,-0.333206,0.44236800000000004,-0.32104499999999997
1031,10.31,1.275074,0.649709,1.40269,-0.29805,0.41893,-0.353012
1032,10.32,1.160493,0.355883,1.5635290000000002,-0.20857199999999998,0.345428,-0.374313
1033,10.33,1.235568,0.182778,1.268096,-0.085007,0.232513,-0.374313
1034,10.34,1.175093,-0.359149,0.905817,0.051346,0.105743,-0.362595
1035,10.35,0.8150270000000001,-0.995333,0.509387,0.169601,-0.01783800000000001,-0.362595
1036,10.36,0.30595700000000003,-1.619618,0.093798,0.23989899999999997,-0.132874,-0.372177
1037,10.37,-0.153841,-2.2773369999999997,-0.259403,0.256943,-0.22023,-0.389221
1038,10.38,-0.590827,-3.005754,-0.55743,0.227127,-0.277756,-0.412659
1039,10.39,-0.8553299999999999,-3.5049589999999995,-0.7338210000000001,0.17067000000000002,-0.309708,-0.42651400000000006
1040,10.4,-1.079178,-3.7734330000000003,-0.8051699999999999,0.097153,-0.324631,-0.42756700000000003
1041,10.41,-1.254089,-3.7186440000000003,-0.898049,0.022598,-0.345932,-0.404144
1042,10.42,-1.327112,-3.4831510000000003,-0.8602719999999999,-0.043457,-0.358719,-0.346619
1043,10.43,-1.181311,-3.030798,-0.831039,-0.08819600000000001,-0.362976,-0.281631
1044,10.44,-1.013615,-2.46985,-0.7112649999999999,-0.123352,-0.36937,-0.217712
1045,10.45,-0.888757,-1.807537,-0.563517,-0.132935,-0.370438,-0.165512
1046,10.46,-0.733613,-1.203773,-0.29267,-0.123352,-0.374695,-0.13037100000000001
1047,10.47,-0.640095,-0.624165,-0.123425,-0.08606,-0.366165,-0.11119100000000001
1048,10.48,-0.591022,-0.21289299999999997,-0.095356,-0.027481000000000002,-0.34700000000000003,-0.09840399999999999
1049,10.49,-0.567634,-0.040961000000000004,-0.25701399999999996,0.044968000000000015,-0.315033,-0.08989
1050,10.5,-0.553379,-0.064876,-0.5729529999999999,0.12912,-0.299057,-0.07496599999999999
1051,10.51,-0.416778,-0.164145,-0.9317059999999999,0.223923,-0.292664,-0.053665
1052,10.52,-0.18649100000000002,-0.31183299999999997,-1.411681,0.319794,-0.32142600000000005,-0.023834
1053,10.53,-0.062013,-0.496654,-1.7500959999999999,0.377319,-0.377884,0.0177
1054,10.54,-0.048361,-0.679103,-1.896797,0.3965,-0.43541,0.074173
1055,10.55,-0.10814700000000001,-0.6633020000000001,-1.8371560000000002,0.38264499999999996,-0.46524,0.138077
1056,10.56,-0.5089279999999999,-0.507865,-1.821832,0.329391,-0.43328900000000004,0.188156
1057,10.57,-0.9218200000000001,-0.178515,-1.7871569999999999,0.246292,-0.349121,0.200928
1058,10.58,-1.0897709999999998,0.12273599999999998,-1.735055,0.14083900000000002,-0.25325,0.171112
1059,10.59,-1.0327110000000002,0.628674,-1.7337310000000001,0.010879999999999999,-0.211716,0.110382
1060,10.6,-0.922552,1.170382,-1.760145,-0.11056500000000001,-0.258575,0.06350700000000001
1061,10.61,-0.817322,1.790704,-1.632509,-0.17981,-0.35125700000000004,0.048599
1062,10.62,-0.555181,2.364232,-1.39501,-0.17555199999999999,-0.409851,0.072037
1063,10.63,-0.48961000000000005,2.926625,-1.099885,-0.11056500000000001,-0.39813200000000004,0.106125
1064,10.64,-0.693192,3.353678,-0.793994,-0.0008389999999999995,-0.323563,0.131683
1065,10.65,-0.9766950000000001,3.5000980000000004,-0.577056,0.14083900000000002,-0.212769,0.140213
1066,10.66,-1.476524,3.3013769999999996,-0.624887,0.298492,-0.137146,0.138077
1067,10.67,-1.445123,3.199937,-0.8426540000000001,0.395432,-0.126495,0.116776
1068,10.68,-1.2067299999999999,3.406432,-0.989366,0.308075,-0.140335,0.05925
1069,10.69,-1.171728,3.526293,-0.14509700000000006,0.01939399999999997,-0.127548,0.016647
1070,10.7,-1.604683,3.24707,1.6429200000000002,-0.233078,-0.029556,0.023041
1071,10.71,-1.385268,2.715209,3.240417,-0.345993,0.248489,-0.013184
1072,10.72,-0.708987,1.569407,4.234148,-0.417358,0.486038,-0.134628
1073,10.73,-0.447672,0.2570589999999999,4.823141000000001,-0.401382,0.5595399999999999,-0.26672399999999996
1074,10.74,0.136184,-0.9426629999999999,4.740486,-0.236267,0.523331,-0.346619
1075,10.75,0.8157979999999999,-1.746663,3.922396,0.016204999999999997,0.454086,-0.380707
1076,10.76,1.678896,-2.065299,2.5277220000000002,0.21859699999999999,0.355011,-0.319977
1077,10.77,2.517782,-1.8869060000000002,1.323053,0.259079,0.245285,-0.20280499999999999
1078,10.78,3.15079,-1.20384,0.753562,0.175995,0.15155,-0.07496599999999999
1079,10.79,3.312004,-0.312868,0.488922,0.042831,0.055679,0.028366000000000002
1080,10.8,2.7551200000000002,0.48228999999999994,0.458009,-0.092453,-0.039139,0.10931400000000001
1081,10.81,1.831748,1.147591,0.5312,-0.194717,-0.083878,0.18602
1082,10.82,0.780474,1.40259,0.781487,-0.23840300000000003,-0.051926,0.242477
1083,10.83,-0.19834,1.431867,1.227611,-0.226685,-0.0007929999999999987,0.269104
1084,10.84,-0.8287770000000001,1.356047,1.7155610000000001,-0.187271,0.052475,0.276566
1085,10.85,-1.434991,1.174585,2.058057,-0.11482199999999998,0.137695,0.26059
1086,10.86,-1.7344099999999998,0.633846,2.192164,-0.014694,0.255936,0.243546
1087,10.87,-1.9752450000000001,0.143066,1.9663389999999998,0.10887100000000001,0.388031,0.245667
1088,10.88,-1.874084,-0.478988,1.393476,0.227127,0.53717,0.26059
1089,10.89,-1.5486209999999998,-1.186711,0.7338420000000001,0.299561,0.673523,0.295746
1090,10.9,-1.104288,-1.8298450000000002,0.068413,0.335785,0.782181,0.33409099999999997
1091,10.91,-0.511675,-2.354822,-0.396049,0.327255,0.863144,0.371368
1092,10.92,-0.142612,-2.824734,-0.7254649999999999,0.282516,0.919601,0.41824300000000003
1093,10.93,0.30990700000000004,-3.103642,-0.795612,0.200485,0.9728700000000001,0.47258
1094,10.94,0.6437970000000001,-3.215039,-0.703435,0.10781900000000001,1.036774,0.492813
1095,10.95,0.838779,-3.153928,-0.476162,0.010879999999999994,1.094299,0.471512
1096,10.96,0.8836950000000001,-3.026755,-0.24165799999999998,-0.058365,1.147568,0.436356
1097,10.97,0.884533,-2.788077,-0.08484,-0.095657,1.209351,0.390549
1098,10.98,0.802358,-2.625083,-0.0007680000000000013,-0.096725,1.261551,0.34581
1099,10.99,0.673657,-2.342406,0.019828,-0.096725,1.297775,0.31385799999999997
1100,11.0,0.636514,-2.1882040000000003,0.010948000000000001,-0.09458899999999999,1.326538,0.300003
1101,11.01,0.649455,-1.977123,-0.057529,-0.080734,1.357422,0.29681399999999997
1102,11.02,0.591086,-1.72917,-0.189531,-0.054108,1.387253,0.291473
1103,11.03,0.56448,-1.4822540000000002,-0.401509,-0.015762,1.413879,0.274429
1104,11.04,0.671071,-1.259815,-0.651988,0.025787,1.4149479999999999,0.249939
1105,11.05,0.791718,-1.042592,-0.788411,0.060944000000000005,1.386185,0.212646
1106,11.06,1.0129780000000002,-0.749747,-0.843195,0.07372999999999999,1.338257,0.159393
1107,11.07,1.309609,-0.378213,-0.791611,0.06626900000000001,1.30629,0.10398900000000001
1108,11.08,1.378999,-0.112543,-0.842558,0.0439,1.314819,0.049667
1109,11.09,1.360218,0.046352,-0.887444,0.017258000000000003,1.363815,0.009186
1110,11.1,1.35649,-0.023647,-0.83793,-0.0029749999999999998,1.427734,-0.028107
1111,11.11,1.142946,-0.094585,-0.74546,-0.013626,1.495911,-0.068573
1112,11.12,0.841009,-0.113853,-0.858924,-0.02002,1.5672760000000001,-0.115448
1113,11.13,0.47334799999999994,0.036918999999999993,-1.0752389999999998,-0.055175999999999996,1.630127,-0.141022
1114,11.14,0.420712,0.322619,-0.998017,-0.129745,1.6557009999999999,-0.121841
1115,11.15,0.703572,0.7378279999999999,-0.75893,-0.220291,1.622681,-0.064316
1116,11.16,1.213117,1.357225,-0.27718000000000004,-0.279938,1.540649,0.020905000000000003
1117,11.17,1.7955860000000001,2.032637,0.178569,-0.281006,1.451172,0.11358599999999999
1118,11.18,2.577918,2.649559,0.467609,-0.224548,1.364883,0.199875
1119,11.19,3.296643,3.015877,0.664403,-0.130814,1.267944,0.256332
1120,11.2,3.5474010000000002,3.129591,0.793293,-0.027481000000000002,1.1827239999999999,0.281891
1121,11.21,3.06095,2.984223,0.878589,0.067337,1.181656,0.29361
1122,11.22,2.563532,3.002151,0.6930390000000001,0.117401,1.275406,0.292542
1123,11.23,2.260538,2.997635,0.650453,0.071594,1.302032,0.28828400000000004
1124,11.24,1.568301,3.05614,1.112315,-0.049850000000000005,1.24025,0.30426
1125,11.25,0.560513,2.885193,2.0072360000000002,-0.119095,1.166748,0.34581
1126,11.26,-0.3705640000000001,2.605448,2.5849130000000002,-0.097778,1.134781,0.41612200000000005
1127,11.27,-1.0537530000000002,2.098289,2.501122,-0.045593,1.142242,0.506668
1128,11.28,-1.746862,1.273929,2.123218,0.016205000000000004,1.172073,0.5716399999999999
1129,11.29,-2.851598,0.04456400000000016,1.952386,0.095032,1.2295989999999999,0.582291
1130,11.3,-4.014691,-1.223374,1.5211370000000002,0.19409200000000001,1.331863,0.550339
1131,11.31,-4.596061,-2.182023,0.47614799999999996,0.303818,1.408554,0.46405
1132,11.32,-4.357512,-2.866932,-0.7493810000000001,0.35495,1.3819270000000001,0.350067
1133,11.33,-3.138291,-2.7246599999999996,-1.938494,0.296371,1.2317200000000001,0.239288
1134,11.34,-1.478338,-2.0496090000000002,-2.8232,0.083313,0.980316,0.142349
1135,11.35,0.331166,-0.89899,-2.902331,-0.220291,0.655411,0.09121699999999999
1136,11.36,1.710162,0.07522999999999996,-1.810644,-0.49832200000000004,0.327316,0.114639
1137,11.37,2.6732080000000003,1.125665,-0.18389100000000005,-0.695404,0.12171900000000001,0.154068
1138,11.38,2.791347,1.9273939999999998,1.491796,-0.755051,0.023712000000000004,0.164719
1139,11.39,2.18603,2.1867330000000003,2.9281639999999998,-0.6751560000000001,0.054611,0.11570699999999999
1140,11.4,0.9115989999999999,2.0191369999999997,3.2514790000000002,-0.500458,0.19308499999999998,0.016646999999999988
1141,11.41,-0.323565,1.755641,2.969719,-0.303375,0.347549,-0.09414700000000001
1142,11.42,-1.516154,1.294102,2.193177,-0.07222,0.47325100000000003,-0.20813
1143,11.43,-2.622272,0.709106,0.9067280000000001,0.14083900000000002,0.563797,-0.295486
1144,11.44,-3.459329,-0.140631,-0.32372,0.24736,0.6085510000000001,-0.344482
1145,11.45,-3.931807,-1.139111,-1.138047,0.252686,0.612808,-0.345551
1146,11.46,-3.876289,-2.0617099999999997,-1.357143,0.19303900000000002,0.5957640000000001,-0.306137
1147,11.47,-3.232597,-2.807199,-1.440669,0.105682,0.571259,-0.24861100000000003
1148,11.48,-2.174648,-3.257759,-1.4578010000000001,0.018325999999999988,0.533981,-0.19534300000000002
1149,11.49,-0.9662950000000001,-3.345045,-1.495101,-0.06263700000000001,0.47538800000000003,-0.145279
1150,11.5,-0.09815400000000002,-3.13747,-1.400548,-0.137192,0.411469,-0.11651600000000001
1151,11.51,0.44297200000000003,-2.756207,-1.213195,-0.20111099999999998,0.353943,-0.108002
1152,11.52,0.641324,-2.2015700000000002,-1.001751,-0.25863600000000003,0.315598,-0.10586500000000001
1153,11.53,0.570658,-1.5973700000000002,-0.680856,-0.295929,0.317734,-0.10266099999999999
1154,11.54,0.266492,-0.9698209999999999,-0.44735,-0.310837,0.347549,-0.097336
1155,11.55,-0.22727400000000006,-0.44953699999999996,-0.257421,-0.295929,0.388031,-0.082428
1156,11.56,-0.824858,-0.057443,-0.200202,-0.240524,0.434906,-0.051529
1157,11.57,-1.4755969999999998,0.101377,-0.360717,-0.17555199999999999,0.482849,-0.013184
1158,11.58,-1.9655610000000001,0.06577999999999999,-0.580353,-0.120148,0.525452,0.025162
1159,11.59,-2.332236,-0.245184,-0.6641,-0.097778,0.553146,0.057129
1160,11.6,-2.5798959999999997,-0.578906,-0.752901,-0.08819600000000001,0.591507,0.083755
1161,11.61,-2.4535970000000002,-0.8766129999999999,-0.7940550000000001,-0.08819600000000001,0.626648,0.110382
1162,11.62,-1.951068,-0.944119,-1.00377,-0.093521,0.656479,0.12423699999999999
1163,11.63,-1.277719,-0.864885,-1.369861,-0.10630799999999999,0.66713,0.131683
1164,11.64,-0.527532,-0.539347,-1.584143,-0.137192,0.636246,0.145538
1165,11.65,0.144494,-0.19017500000000004,-1.6532069999999999,-0.164902,0.587234,0.163651
1166,11.66,0.750188,0.202848,-1.6461970000000001,-0.19792200000000001,0.538239,0.195602
1167,11.67,1.238225,0.679214,-1.376931,-0.22987399999999997,0.5148010000000001,0.23075900000000002
1168,11.68,1.4390379999999998,1.252045,-1.1347690000000001,-0.243729,0.488174,0.243546
1169,11.69,1.461986,1.819607,-0.867083,-0.21283000000000002,0.426392,0.244614
1170,11.7,1.281635,2.33684,-0.768046,-0.139328,0.327316,0.231827
1171,11.71,1.041878,2.750226,-0.7343529999999999,-0.046646,0.21759,0.21157800000000002
1172,11.72,0.86341,3.082703,-0.8071010000000001,0.039642000000000004,0.11639400000000001,0.184952
1173,11.73,0.508397,3.195922,-0.8450850000000001,0.12698399999999999,0.037567,0.153
1174,11.74,0.18703,2.95253,-0.977216,0.206879,-0.013565,0.12103299999999999
1175,11.75,-0.016736,2.763918,-0.804416,0.23989899999999997,0.0034789999999999995,0.074173
1176,11.76,-0.10905999999999999,2.800338,-0.422731,0.198364,0.097214,-0.0067899999999999966
1177,11.77,-0.568609,2.74631,0.33319299999999996,0.100357,0.198425,-0.13355999999999998
1178,11.78,-0.7980659999999999,1.984679,1.368414,0.036438,0.25914,-0.24861100000000003
1179,11.79,-0.22206100000000006,0.741472,1.9971029999999999,0.039642000000000004,0.202682,-0.31572
1180,11.8,0.518223,-0.721486,2.3407810000000002,0.05455,0.08017,-0.366852
1181,11.81,0.46238500000000005,-1.79845,2.4100330000000003,0.070526,-0.023163,-0.371109
1182,11.82,0.153473,-2.443619,2.213316,0.105682,-0.073227,-0.30932600000000005
1183,11.83,-0.34269499999999997,-2.520137,1.421627,0.166397,-0.057250999999999996,-0.218781
1184,11.84,-1.09144,-1.949372,0.518518,0.160004,0.008804000000000001,-0.139954
1185,11.85,-1.8080450000000001,-0.715525,0.113106,0.047089000000000006,0.09828199999999998,-0.060059
1186,11.86,-1.9453790000000002,1.020118,0.354905,-0.11482200000000001,0.210129,0.021973
1187,11.87,-1.62771,2.57804,1.023417,-0.24585,0.327316,0.090149
1188,11.88,-1.129622,3.3800019999999997,1.8242779999999998,-0.30658,0.433838,0.137024
1189,11.89,-0.49726000000000004,3.5683480000000003,2.379454,-0.253311,0.513733,0.190277
1190,11.9,0.17984999999999998,3.1635560000000003,2.381997,-0.11056500000000001,0.557419,0.256332
1191,11.91,0.5023310000000001,2.367063,1.962432,0.06306499999999997,0.5968319999999999,0.314911
1192,11.92,0.763754,1.42093,1.345297,0.204758,0.6064149999999999,0.366043
1193,11.93,0.9158129999999999,0.429393,0.799521,0.287842,0.590439,0.406525
1194,11.94,0.817443,-0.45120299999999997,0.448479,0.335785,0.576584,0.43421899999999997
1195,11.95,0.648617,-1.2769780000000002,0.042259999999999985,0.331512,0.5936279999999999,0.459793
1196,11.96,0.45720900000000003,-2.0154490000000003,-0.22100100000000003,0.275055,0.628784,0.477905
1197,11.97,0.283199,-2.543893,-0.386233,0.199432,0.6767270000000001,0.484299
1198,11.98,0.2447,-3.023411,-0.40386500000000003,0.11953699999999999,0.722534,0.47470100000000004
1199,11.99,0.217491,-3.307835,-0.41291700000000003,0.042831,0.748093,0.45233199999999996
1200,12.0,0.330438,-3.463682,-0.412537,-0.018951,0.747025,0.41931199999999996
1201,12.01,0.40815300000000004,-3.4983480000000005,-0.313681,-0.047714,0.7331850000000001,0.39907800000000004
1202,12.02,0.5398850000000001,-3.4595190000000002,-0.348462,-0.07115199999999999,0.724655,0.379898
1203,12.03,0.7257640000000001,-3.249566,-0.347864,-0.085007,0.714005,0.360718
1204,12.04,0.810541,-3.045296,-0.379456,-0.093521,0.695892,0.343674
1205,12.05,0.842348,-2.313423,-0.717557,-0.085007,0.6085510000000001,0.31385799999999997
1206,12.06,1.4151770000000001,-1.325482,-1.11856,-0.062637,0.489227,0.264847
1207,12.07,1.7287560000000002,-0.966775,-1.213907,-0.065826,0.44236800000000004,0.237152
1208,12.08,1.9598959999999999,-0.691393,-1.160025,-0.07222,0.384842,0.190277
1209,12.09,2.276736,-0.392005,-1.122128,-0.09138500000000001,0.327316,0.12956199999999998
1210,12.1,2.527682,-0.06219100000000001,-0.9643450000000001,-0.104172,0.282578,0.06564299999999999
1211,12.11,2.7078330000000004,0.382081,-0.7785810000000001,-0.11056500000000001,0.27511599999999997,0.0038599999999999993
1212,12.12,2.7812580000000002,0.705381,-0.522184,-0.09138500000000001,0.298553,-0.055800999999999996
1213,12.13,2.879816,0.964942,-0.398717,-0.050918999999999985,0.33371,-0.112259
1214,12.14,2.7788180000000002,1.140385,-0.280533,0.0012819999999999984,0.357147,-0.15592999999999999
1215,12.15,2.529541,1.176042,-0.237427,0.08010899999999999,0.35182199999999997,-0.177231
1216,12.16,2.227918,1.029768,-0.345528,0.158951,0.343292,-0.174042
1217,12.17,1.9189599999999998,0.734608,-0.397011,0.22285500000000003,0.315598,-0.153793
1218,12.18,1.72626,0.6082069999999999,-0.45637,0.24736,0.324112,-0.132492
1219,12.19,1.711859,0.5976319999999999,-0.592118,0.22818000000000002,0.362473,-0.112259
1220,12.2,1.90694,0.638606,-0.557163,0.190903,0.383774,-0.10266099999999999
1221,12.21,2.1800669999999998,0.7289760000000001,-0.43726899999999996,0.164276,0.372055,-0.08989
1222,12.22,2.572429,0.934859,-0.155336,0.141907,0.301743,-0.06219500000000001
1223,12.23,2.95685,1.088593,0.29240900000000003,0.131241,0.218658,-0.034485
1224,12.24,3.390972,1.143917,0.611151,0.14296,0.146225,-0.018509
1225,12.25,3.680619,1.192648,0.5989720000000001,0.180252,0.09295700000000001,-0.013184
1226,12.26,3.571969,1.223091,0.387929,0.233521,0.085495,-0.034485
1227,12.27,2.934309,1.220992,0.049087999999999986,0.281448,0.127045,-0.07710299999999999
1228,12.28,2.149926,1.155792,-0.072907,0.30275,0.181366,-0.13037100000000001
1229,12.29,1.4343139999999999,1.447754,0.086521,0.264404,0.19203199999999998,-0.186829
1230,12.3,0.77454,2.281894,0.534084,0.13230899999999998,0.161133,-0.20813
1231,12.31,0.057485000000000015,3.063145,1.7512580000000002,-0.027480999999999985,0.123856,-0.159134
1232,12.32,-0.051738,3.353415,3.047257,-0.077545,0.09082,-0.055800999999999996
1233,12.33,-0.7471899999999999,3.473006,3.7230779999999997,-0.033875,0.05140700000000001,0.090149
1234,12.34,-1.47905,2.886291,3.583069,0.053482,0.049286,0.21585100000000002
1235,12.35,-2.136464,1.7571459999999999,2.908086,0.220734,0.041824,0.278702
1236,12.36,-2.881175,0.564442,1.846455,0.44017,0.036499000000000004,0.263779
1237,12.37,-3.642018,-0.45026700000000003,0.637671,0.644699,-0.007172000000000001,0.174301
1238,12.38,-4.043735,-1.298076,-0.517737,0.7491,-0.098785,0.031555
1239,12.39,-3.7689699999999995,-2.031447,-1.242874,0.691574,-0.194672,-0.09201000000000001
1240,12.4,-2.785743,-1.866811,-1.7166759999999999,0.482788,-0.310776,-0.186829
1241,12.41,-1.582646,-1.136889,-1.871305,0.204758,-0.417313,-0.246475
1242,12.42,-0.522045,-0.46901499999999996,-1.5970030000000002,-0.04238900000000001,-0.52063,-0.268845
1243,12.43,0.156097,0.15218200000000004,-0.861409,-0.193665,-0.586685,-0.24968
1244,12.44,0.357401,0.37449899999999997,0.12980400000000006,-0.26716599999999996,-0.579224,-0.24540700000000001
1245,12.45,0.275496,0.260436,1.1678469999999999,-0.283142,-0.512115,-0.276306
1246,12.46,-0.17998100000000006,0.08238999999999999,1.81328,-0.22561599999999998,-0.423691,-0.329575
1247,12.47,-0.9697969999999999,-0.196726,1.8638689999999998,-0.11377000000000001,-0.35125700000000004,-0.398804
1248,12.48,-1.780086,-0.42739099999999997,1.304141,-0.013626,-0.308655,-0.43396
1249,12.49,-2.391359,-0.577125,0.6860430000000001,0.063065,-0.30438200000000004,-0.432907
1250,12.5,-2.764316,-0.712771,0.04245300000000002,0.118469,-0.343796,-0.402008
1251,12.51,-2.941748,-0.9117719999999999,-0.40231999999999996,0.141907,-0.395996,-0.363663
1252,12.52,-2.574194,-1.2659209999999999,-0.714918,0.115265,-0.422638,-0.327438
1253,12.53,-1.943173,-1.53965,-0.802766,0.063065,-0.42050200000000004,-0.305069
1254,12.54,-1.296378,-1.8075860000000001,-0.7619859999999999,-0.0061649999999999995,-0.407715,-0.30188000000000004
1255,12.55,-0.636574,-1.943711,-0.639175,-0.07008400000000001,-0.390671,-0.305069
1256,12.56,-0.145108,-1.981234,-0.499934,-0.12867699999999999,-0.367233,-0.30081199999999997
1257,12.57,0.195497,-1.9766990000000002,-0.352817,-0.17662,-0.352325,-0.29335
1258,12.58,0.388061,-1.7077069999999999,-0.244691,-0.195786,-0.340607,-0.27737399999999995
1259,12.59,0.223294,-1.454836,-0.21420999999999998,-0.20538299999999998,-0.348068,-0.252869
1260,12.6,-0.239867,-1.422308,-0.176872,-0.20857199999999998,-0.377884,-0.235825
1261,12.61,-0.7758689999999999,-1.398834,-0.15254500000000001,-0.213898,-0.383209,-0.207062
1262,12.62,-1.23252,-1.300809,-0.139147,-0.202179,-0.371506,-0.18043499999999998
1263,12.63,-1.450185,-1.200413,-0.223308,-0.177673,-0.34274299999999996,-0.151672
1264,12.64,-1.567668,-1.1587100000000001,-0.35881399999999997,-0.147858,-0.310776,-0.13037100000000001
1265,12.65,-1.443571,-1.266333,-0.605073,-0.130814,-0.277756,-0.09840399999999999
1266,12.66,-1.247157,-1.37316,-0.820626,-0.130814,-0.244736,-0.080292
1267,12.67,-0.8907370000000001,-1.443674,-1.152838,-0.155304,-0.213837,-0.063248
1268,12.68,-0.5133850000000001,-1.361781,-1.370847,-0.19792200000000001,-0.188278,-0.044083
1269,12.69,-0.08614400000000001,-1.093593,-1.467423,-0.247986,-0.16802999999999998,-0.020645
1270,12.7,0.170875,-0.756196,-1.386083,-0.285263,-0.170166,0.004928999999999999
1271,12.71,0.403983,-0.31549,-1.097358,-0.299118,-0.181885,0.034744
1272,12.72,0.495521,0.15551600000000002,-0.8344870000000001,-0.279938,-0.20105,0.061386
1273,12.73,0.41208900000000004,0.39579899999999996,-0.538014,-0.22348,-0.19786099999999998,0.080551
1274,12.74,0.221203,0.539883,-0.409048,-0.147858,-0.177628,0.08694500000000001
1275,12.75,0.09349500000000001,0.749437,-0.435302,-0.07968099999999999,-0.15951500000000002,0.089081
1276,12.76,0.046273,0.8065260000000001,-0.598866,-0.035995,-0.171234,0.079498
1277,12.77,0.19635,0.9646950000000001,-0.8286819999999999,-0.018951,-0.236206,0.062453999999999996
1278,12.78,0.461925,1.198218,-1.088748,-0.0061649999999999995,-0.32569899999999996,0.057129
1279,12.79,0.756979,1.616174,-1.444984,0.008743,-0.42050200000000004,0.050735
1280,12.8,0.959507,2.081522,-1.680318,0.039642000000000004,-0.500397,0.06350700000000001
1281,12.81,1.1591209999999998,2.365075,-1.8430090000000001,0.097153,-0.5483399999999999,0.07843
1282,12.82,1.28556,2.343809,-2.001672,0.172791,-0.570709,0.080551
1283,12.83,1.3060610000000001,2.388066,-2.200788,0.223923,-0.590942,0.077362
1284,12.84,1.009572,2.637877,-2.186449,0.251617,-0.602661,0.074173
1285,12.85,0.821148,3.0604270000000002,-1.898773,0.243103,-0.565384,0.06564299999999999
1286,12.86,0.722418,3.5562720000000003,-1.512846,0.180252,-0.482285,0.015579000000000003
1287,12.87,0.518251,3.946846,-0.7747029999999999,0.067337,-0.424759,-0.076035
1288,12.88,0.22490900000000003,3.8363709999999998,0.596312,-0.076477,-0.434357,-0.197479
1289,12.89,0.153288,3.0306330000000004,2.332257,-0.189392,-0.47802700000000004,-0.31572
1290,12.9,0.885458,1.62606,3.90918,-0.22348,-0.5291600000000001,-0.422241
1291,12.91,1.327573,0.07546799999999998,4.898119,-0.14572100000000002,-0.602661,-0.522385
1292,12.92,1.057598,-1.543958,5.117208,0.055617999999999994,-0.693207,-0.563934
1293,12.93,0.19014200000000006,-2.71484,4.066086,0.303818,-0.7454069999999999,-0.555405
1294,12.94,-0.809624,-3.154578,2.222859,0.467865,-0.7315520000000001,-0.48190299999999997
1295,12.95,-1.599699,-3.049271,0.6060979999999999,0.467865,-0.676163,-0.361526
1296,12.96,-2.36845,-1.218597,-0.576803,0.14083900000000002,-0.401321,-0.099472
1297,12.97,-2.439351,-0.0074020000000000205,-0.631254,-0.05304,-0.24259899999999998,0.013442999999999995
1298,12.98,-2.339292,1.178663,-0.344623,-0.193665,-0.147797,0.098663
1299,12.99,-1.696754,1.8476270000000001,0.3219,-0.254379,-0.11050399999999999,0.173233
1300,13.0,-0.821725,1.9762110000000002,1.126915,-0.213898,-0.10945099999999999,0.214783
1301,13.01,-0.194459,1.93103,1.8484150000000001,-0.109497,-0.06897,0.241409
1302,13.02,0.282648,1.699611,2.1241529999999997,0.05029299999999999,0.035431,0.248871
1303,13.03,0.727744,1.11079,1.96622,0.21647600000000003,0.156876,0.22757
1304,13.04,0.8824049999999999,0.425421,1.407525,0.345367,0.25061,0.195602
1305,13.05,1.0801290000000001,-0.324429,0.759501,0.414612,0.29536399999999996,0.179626
1306,13.06,1.399348,-1.097705,0.167572,0.425262,0.27511599999999997,0.188156
1307,13.07,1.6493950000000002,-1.828599,-0.286559,0.397568,0.214401,0.21797199999999997
1308,13.08,1.7814330000000003,-2.485247,-0.552036,0.343231,0.131302,0.259521
1309,13.09,1.870681,-2.9485959999999998,-0.582145,0.26121500000000003,0.048218000000000004,0.31279
1310,13.1,1.9950290000000002,-3.2948910000000002,-0.444427,0.174927,-0.041260000000000005,0.339417
1311,13.11,1.8200560000000001,-3.311728,-0.296792,0.097153,-0.11903399999999999,0.343674
1312,13.12,1.486265,-3.131627,-0.24317199999999997,0.042831,-0.166962,0.31704699999999997
1313,13.13,1.093889,-2.783792,-0.286564,-0.006165000000000004,-0.173355,0.276566
1314,13.14,0.6649609999999999,-2.29694,-0.360996,-0.048782,-0.137146,0.228622
1315,13.15,0.32290399999999997,-1.7223419999999998,-0.412195,-0.07968099999999999,-0.070023,0.17749
1316,13.16,0.091451,-1.1817819999999999,-0.500195,-0.087128,-0.0018460000000000004,0.127426
1317,13.17,-0.094036,-0.7392810000000001,-0.5751109999999999,-0.09138500000000001,0.072723,0.09121699999999999
1318,13.18,-0.196023,-0.358192,-0.5531229999999999,-0.08287,0.137695,0.068832
1319,13.19,-0.033967000000000004,-0.083446,-0.412021,-0.062637,0.188828,0.06564299999999999
1320,13.2,0.374587,-0.010643999999999999,-0.393296,-0.017883,0.23889200000000002,0.05285599999999999
1321,13.21,0.973806,-0.111792,-0.40775,0.020462,0.262329,0.025162000000000004
1322,13.22,1.486673,-0.282323,-0.492867,0.0439,0.280441,-0.021713
1323,13.23,1.709186,-0.475775,-0.643171,0.049225,0.32518,-0.064316
1324,13.24,1.850291,-0.585592,-0.90436,0.0439,0.412537,-0.099472
1325,13.25,1.8196080000000001,-0.567731,-1.3215620000000001,0.03537,0.508408,-0.120773
1326,13.26,1.7510599999999998,-0.442101,-1.748373,0.010879999999999999,0.5680689999999999,-0.128235
1327,13.27,1.763654,-0.222572,-1.7141,-0.024277,0.573395,-0.11119100000000001
1328,13.28,1.8976490000000001,0.13542200000000001,-1.339704,-0.056244,0.572327,-0.07070900000000001
1329,13.29,2.1236650000000004,0.48240900000000003,-0.733266,-0.051971,0.575516,-0.023834
1330,13.3,2.36709,0.734692,-0.436986,-0.0008389999999999995,0.5627439999999999,0.014511000000000001
1331,13.31,2.52224,0.888043,-0.359119,0.06626900000000001,0.532913,0.035812000000000004
1332,13.32,2.596175,0.9411200000000001,-0.461329,0.11633299999999999,0.492432,0.050735
1333,13.33,2.7651380000000003,0.956166,-0.490162,0.12912,0.44343599999999994,0.076294
1334,13.34,3.3496040000000002,1.0657290000000001,-0.44104499999999996,0.102493,0.369919,0.110382
1335,13.35,3.982334,1.158334,-0.107893,0.046021,0.291092,0.163651
1336,13.36,4.745335,1.4907920000000001,0.372942,0.015137000000000001,0.255936,0.20306400000000002
1337,13.37,4.800521,1.730749,0.6361939999999999,0.05029299999999999,0.257004,0.197739
1338,13.38,4.191978,1.8587189999999998,0.461741,0.13551300000000002,0.262329,0.149796
1339,13.39,2.937913,1.7329459999999999,0.42413199999999995,0.19622799999999999,0.274048,0.070969
1340,13.4,1.7387419999999998,1.8246810000000002,0.43283999999999995,0.21113600000000002,0.339035,-0.038756999999999986
1341,13.41,0.5052979999999999,2.100593,0.690327,0.164276,0.390167,-0.14209000000000002
1342,13.42,-0.923066,2.159406,1.5383959999999999,0.067337,0.408279,-0.186829
1343,13.43,-2.095179,2.009384,2.659737,-0.0008389999999999995,0.454086,-0.127167
1344,13.44,-2.746954,1.768725,3.4812730000000003,0.036438,0.508408,0.010254000000000001
1345,13.45,-3.6381419999999998,1.5955780000000002,3.412699,0.13763399999999998,0.53717,0.183884
1346,13.46,-4.2652209999999995,1.04596,2.697496,0.210083,0.585114,0.355392
1347,13.47,-4.151132,0.387788,1.4989569999999999,0.256943,0.529709,0.468307
1348,13.48,-3.737619,0.179734,0.21748,0.29742399999999997,0.404007,0.504532
1349,13.49,-2.596331,0.167027,-0.9869450000000001,0.292099,0.257004,0.451263
1350,13.5,-1.374708,0.158222,-1.71245,0.21966599999999997,0.033294999999999984,0.308517
1351,13.51,-0.253201,0.705759,-1.8596119999999998,0.079056,-0.211716,0.14447000000000002
1352,13.52,0.47548999999999997,1.380478,-1.053242,-0.058365,-0.36937,-0.035552999999999994
1353,13.53,1.023822,1.9636099999999999,-0.28969399999999995,-0.132935,-0.403458,-0.17511
1354,13.54,1.057295,1.892178,0.543936,-0.17128,-0.352325,-0.297607
1355,13.55,0.498548,1.570319,1.180644,-0.114822,-0.27562,-0.390289
1356,13.56,-0.4294930000000001,0.9409049999999999,1.346539,-0.029602000000000007,-0.186142,-0.451004
1357,13.57,-1.259584,0.060334000000000006,1.092378,0.034302,-0.099854,-0.48829700000000004
1358,13.58,-2.134548,-0.9101899999999999,0.588238,0.067337,-0.071091,-0.48829700000000004
1359,13.59,-2.783249,-1.560999,0.114964,0.077988,-0.11903399999999999,-0.445679
1360,13.6,-3.130902,-2.031393,-0.390558,0.069458,-0.198929,-0.382828
1361,13.61,-3.031312,-2.283448,-0.733223,0.031113,-0.291611,-0.316788
1362,13.62,-2.6274900000000003,-2.401053,-0.933024,-0.035995,-0.375763,-0.257126
1363,13.63,-1.883057,-2.3779220000000003,-0.909574,-0.098846,-0.436478,-0.216644
1364,13.64,-1.028875,-2.2264009999999996,-0.811066,-0.148911,-0.47376999999999997,-0.201736
1365,13.65,-0.315134,-1.951687,-0.610347,-0.191528,-0.499329,-0.1996
1366,13.66,0.261747,-1.603659,-0.461848,-0.22987399999999997,-0.515305,-0.20280499999999999
1367,13.67,0.632628,-1.362426,-0.254168,-0.25756799999999996,-0.533417,-0.203873
1368,13.68,0.687542,-1.114949,-0.042007,-0.26716599999999996,-0.56218,-0.197479
1369,13.69,0.542504,-0.981699,0.114293,-0.253311,-0.587753,-0.186829
1370,13.7,0.210925,-0.8729969999999999,0.23207199999999997,-0.219223,-0.621841,-0.172974
1371,13.71,-0.24207199999999998,-0.843822,0.25371,-0.181946,-0.6548609999999999,-0.165512
1372,13.72,-0.672806,-0.928049,0.135744,-0.152115,-0.671906,-0.158066
1373,13.73,-1.001974,-0.9969319999999999,0.043564,-0.120148,-0.6921390000000001,-0.145279
1374,13.74,-1.161119,-1.100112,-0.013243,-0.09033200000000001,-0.6921390000000001,-0.136749
1375,13.75,-1.2652450000000002,-1.175956,-0.187633,-0.05943300000000001,-0.68895,-0.127167
1376,13.76,-1.280317,-1.346967,-0.414739,-0.038132,-0.674026,-0.117584
1377,13.77,-1.131468,-1.550597,-0.581056,-0.03067,-0.6410060000000001,-0.11119100000000001
1378,13.78,-0.90985,-1.7111889999999998,-0.9016190000000001,-0.043457,-0.609055,-0.10266099999999999
1379,13.79,-0.639644,-1.8530330000000002,-1.195381,-0.085007,-0.599472,-0.09628300000000001
1380,13.8,-0.213112,-1.9000580000000002,-1.414826,-0.143585,-0.600525,-0.082428
1381,13.81,0.273933,-1.728634,-1.540651,-0.20538299999999998,-0.635681,-0.066452
1382,13.82,0.67791,-1.4129969999999998,-1.5444209999999998,-0.25651599999999997,-0.694275,-0.035552999999999994
1383,13.83,0.907632,-0.977749,-1.471072,-0.285263,-0.760315,0.004928999999999999
1384,13.84,1.068532,-0.54247,-1.204177,-0.275681,-0.821045,0.049667
1385,13.85,1.123307,-0.08916000000000003,-0.937581,-0.237335,-0.873245,0.08161900000000001
1386,13.86,0.948772,0.33354,-0.726938,-0.180878,-0.902008,0.098663
1387,13.87,0.6861970000000001,0.697541,-0.551528,-0.11056500000000001,-0.9264979999999999,0.09227
1388,13.88,0.595202,0.949134,-0.551739,-0.0392,-0.9520719999999999,0.062453999999999996
1389,13.89,0.6101270000000001,1.0999940000000001,-0.73043,0.027924000000000004,-0.979767,0.020905
1390,13.9,0.609584,1.209249,-1.0230219999999999,0.071594,-1.009598,-0.013184
1391,13.91,0.55682,1.3686260000000001,-1.202249,0.097153,-1.046875,-0.012115
1392,13.92,0.402994,1.5588540000000002,-1.292619,0.12059,-1.063919,0.0017239999999999998
1393,13.93,0.192495,1.7326830000000002,-1.397015,0.148285,-1.077774,0.033691000000000006
1394,13.94,0.018155000000000004,1.8336439999999998,-1.513257,0.198364,-1.080963,0.058182000000000005
1395,13.95,0.00981,1.952736,-1.868693,0.250565,-1.0756379999999999,0.076294
1396,13.96,0.060052,1.971195,-2.248915,0.286774,-1.079895,0.09227
1397,13.97,0.233657,2.01879,-2.531838,0.29742399999999997,-1.105469,0.10719300000000001
1398,13.98,0.35828899999999997,2.258518,-2.518998,0.249496,-1.10759,0.112518
1399,13.99,0.28066399999999997,2.831029,-1.9851299999999998,0.0961,-1.084167,0.093338
1400,14.0,-0.015482999999999997,3.328556,-0.517267,-0.140396,-1.100143,0.043274
1401,14.01,-0.31658000000000003,3.4005120000000004,1.6796799999999998,-0.333206,-1.149139,-0.02597
1402,14.02,0.06603800000000001,2.663362,3.935594,-0.42907700000000004,-1.19281,-0.109055
1403,14.03,0.806315,1.386476,6.002096,-0.449326,-1.16832,-0.22517399999999999
1404,14.04,0.8291540000000001,0.110549,7.075146000000001,-0.35878000000000004,-1.082031,-0.365784
1405,14.05,-0.571548,-0.8982620000000001,6.5620460000000005,-0.134003,-0.9563290000000001,-0.482971
1406,14.06,-1.904498,-1.511631,4.520416,0.178116,-0.844482,-0.528778
1407,14.07,-2.556239,-1.92135,1.992677,0.421005,-0.74115,-0.515991
1408,14.08,-2.585705,-1.867723,0.17115599999999995,0.47639499999999996,-0.639938,-0.43396
1409,14.09,-2.378162,-1.329004,-0.211561,0.35495,-0.50679,-0.305069
1410,14.1,-2.137436,-0.3511960000000001,0.090887,0.20369,-0.356583,-0.154861
1411,14.11,-1.923068,0.66809,0.12282,0.075851,-0.306519,-0.016388
1412,14.12,-1.631985,1.378937,0.024602000000000002,-0.025345,-0.328888,0.10293599999999999
1413,14.13,-1.505354,1.600064,-0.081444,-0.096725,-0.364044,0.20625300000000002
1414,14.14,-1.05784,1.407761,0.14765599999999998,-0.123352,-0.317169,0.26698299999999997
