,ts,ax,ay,az,wx,wy,wz
0,0.0,-0.24000282448845828,0.06623425564933724,-6.544202437166648,-0.1752056269089468,0.05051163109682097,-0.3086328738931077
1,0.01,-0.044317030078687675,0.026996436540578886,-1.2853656488773701,-0.1497524381207589,0.060357972283040864,-0.3366651906343765
2,0.02,0.07140618234317343,-0.0033258586289297357,1.8457898441475518,-0.12532959352662193,0.06888230730385675,-0.3644537839536174
3,0.03,0.12956420891309287,-0.02561961422015112,3.416880652346975,-0.10300696683542096,0.07887803818966768,-0.3837159154380157
4,0.04,0.14611324594400507,-0.038809007111066336,3.886744257994253,-0.08173665586922757,0.08961101305586787,-0.3987058569487267
5,0.05,0.13455006424606314,-0.04449732315284463,3.6177662317348953,-0.059978477847139326,0.09552740948989764,-0.41496697130794624
6,0.06,0.1057368437758366,-0.043636000689798816,2.8945973312614166,-0.037922804588777816,0.09850671656445192,-0.4320032309907573
7,0.07,0.06749997158633486,-0.03970526035031588,1.9341029501449212,-0.01775123551906899,0.10028717118164997,-0.44360986923508017
8,0.08,0.026808032449881433,-0.0318751597822526,0.8969939796611306,0.0013609848590352275,0.10139356393444787,-0.4521636708043337
9,0.09,-0.011477998691224622,-0.021022797257841737,-0.101774243043109,0.020498152615070767,0.10231251647887184,-0.4591708656329932
10,0.1,-0.04450383656618796,-0.01062003928446827,-0.9847825116970055,0.03971458092104184,0.10263595096778512,-0.4612643215857302
11,0.11,-0.07074179649148479,0.0021866606053342376,-1.704392961165767,0.058931009227012915,0.1029593854566984,-0.4633577775384671
12,0.12,-0.08579425022285231,0.01063392189000794,-2.236530773941814,0.08732252617936559,0.11017558764635277,-0.463335112128008
13,0.13,-0.09420738446761467,0.019029036964656045,-2.574107528239268,0.12041957270981715,0.1209268098822269,-0.4622271741878613
14,0.14,-0.1002360444707748,0.027323769762548637,-2.72121742815452,0.1420412009332564,0.12556076662741245,-0.45528245420741
15,0.15,-0.10096267555192491,0.03553059842788622,-2.6976902742664595,0.15802097671935786,0.12718718950366756,-0.4454680991427039
16,0.16,-0.09459913901764824,0.04146352628701312,-2.526827526293169,0.16958709873936378,0.1327616372291451,-0.4355982393544525
17,0.17,-0.08323234519980394,0.04583550414192409,-2.235667122800799,0.17900869656692814,0.14025436745937114,-0.4257014107034977
18,0.18,-0.0688445260347072,0.04843244064164968,-1.852242730159294,0.18608596093426252,0.1437948230282287,-0.4173441362680521
19,0.19,-0.05184754640754058,0.048703471429658564,-1.4043689286544276,0.19195553836753915,0.14529925831698734,-0.4097799655193841
20,0.2,-0.03174922815823623,0.0451992527297907,-0.9190218332134659,0.1936581428303404,0.14967821924123692,-0.3981405493202741
21,0.21,-0.010420388140541234,0.03862030158448415,-0.4207215769026069,0.1905316646278757,0.15738845253407785,-0.3817783529877504
22,0.22,0.009512639886686103,0.03075923821354734,0.0682240838719721,0.18700713598017016,0.16308223320450813,-0.3633621754077644
23,0.23,0.027548946344550768,0.02178601517624934,0.5291561904676726,0.18307910633742985,0.166731949738568,-0.3428638911826464
24,0.24,0.042752645587909435,0.012893548870279856,0.946163722782501,0.17373111396099525,0.16658043612262824,-0.3194839537669812
25,0.25,0.055246324176477624,0.00368849910650431,1.3077364061776233,0.16075473250908248,0.1638841924730493,-0.2941748962688296
26,0.26,0.06461227311391052,-0.00444566703354185,1.6052259380854494,0.13998246628340252,0.1596481893626844,-0.2626982549469395
27,0.27,0.07149840508583095,-0.013110571330285935,1.8327656253916962,0.11542230359260833,0.1546640416108975,-0.22822488270326266
28,0.28,0.07499598034945702,-0.020469510878104034,1.9880082492082014,0.09513919160435456,0.14807524486121376,-0.19874700316652688
29,0.29,0.07653297628152365,-0.028460908341684854,2.069763821567918,0.0770261960865185,0.14067227136644106,-0.17180376765324054
30,0.3,0.07678290585966449,-0.037632588210367676,2.0798121017825686,0.05891320056868246,0.13326929787166827,-0.14486053213995428
31,0.31,0.07467019866592414,-0.04440258132956671,2.0238255561283345,0.04276110939523034,0.12764994262398754,-0.12448068596942342
32,0.32,0.07078300857993783,-0.05030911692650561,1.9065903671894195,0.027689218629850756,0.12301312646031287,-0.10771640415147746
33,0.33,0.06504382065817405,-0.05464289183970593,1.7359274933516966,0.01177895112046845,0.1161573870206344,-0.09152486677999376
34,0.34,0.05784437759863403,-0.057810987560595925,1.519540803174892,-0.0046377852400390045,0.10796118157880157,-0.07567932805871486
35,0.35,0.04845465707916667,-0.05769931971315155,1.2668973878816603,-0.023759175468545533,0.10043101074570772,-0.06628146757529747
36,0.36,0.0382253580412757,-0.05636121201479376,0.9870228407825917,-0.044326700453974834,0.09325695786486173,-0.06033107654871089
37,0.37,0.027362459659092078,-0.05246199488540345,0.6895601559787768,-0.0652431322310834,0.08660618559669386,-0.05981160391386892
38,0.38,0.016412227348149094,-0.047864245709642185,0.3839247769449744,-0.08634155616915917,0.08022836006319747,-0.062124935333637527
39,0.39,0.005344684938310647,-0.04143225947452625,0.07817512597603304,-0.10496504392658212,0.07453781062837933,-0.06546650392746757
40,0.4,-0.005483045733572049,-0.0346492907595802,-0.21813836382050955,-0.1223963524688173,0.06917832277258068,-0.06930337538881483
41,0.41,-0.016963690128946322,-0.02628593163091958,-0.49855778108718163,-0.1356826059732949,0.05910096985080718,-0.0689324261937516
42,0.42,-0.027600982038374824,-0.017744411828046095,-0.7550706670690516,-0.14703255442492327,0.046819731604787175,-0.06659585185637455
43,0.43,-0.03735652701670383,-0.008526728598701554,-0.9835823390102687,-0.1529160221187367,0.03631202979195789,-0.06566323091189226
44,0.44,-0.0457072089431472,0.0008444872231755246,-1.1784554163510534,-0.1556708750392095,0.026819370843407558,-0.06553413046271453
45,0.45,-0.05329969211231827,0.010510479919001652,-1.336911005811467,-0.15304002815444528,0.014071100572462004,-0.06336048198519206
46,0.46,-0.05921231262158698,0.02010659047851776,-1.456658741720434,-0.1473161345301494,-0.0005468910624787936,-0.06001263464000561
47,0.47,-0.06396165297438888,0.02957774404812855,-1.5368867683205552,-0.14055575093648873,-0.011705742860068251,-0.05833012679935755
48,0.48,-0.06665083775091477,0.038575948704407295,-1.5781551380254792,-0.13326758026817714,-0.021103179352613424,-0.05749562008885022
49,0.49,-0.06853085146694887,0.046206756978263604,-1.5813691865370636,-0.1246323149013741,-0.03525146610916043,-0.05863351451434092
50,0.5,-0.06819932157320578,0.05311586756947232,-1.5491039874755383,-0.11530525411880273,-0.05183953415006619,-0.060784328124702414
51,0.51,-0.06597641091223894,0.0585810997449992,-1.4833170487055165,-0.10751583628084424,-0.06457153792086287,-0.06310938364890928
52,0.52,-0.06170530836646701,0.06328352894736627,-1.3879810057761153,-0.100516421493751,-0.07532239089953871,-0.0655239603743864
53,0.53,-0.056959726037065034,0.06777724819733714,-1.2660156656083073,-0.09427618676491667,-0.08655324373787217,-0.07649101094290531
54,0.54,-0.05137450122907429,0.07108940757223339,-1.1214816809963033,-0.08879543582711105,-0.09826428847421477,-0.096013957028338
55,0.55,-0.04368441953931412,0.07155626844500049,-0.9584046098972521,-0.07762759630636094,-0.1048365441234453,-0.11415283312604975
56,0.56,-0.034806102169262915,0.06962636431428723,-0.781065032941558,-0.06076583959920475,-0.10626384043650973,-0.13090597735492654
57,0.57,-0.024680121710310147,0.06442031840791063,-0.5941504914578609,-0.04397597345389247,-0.10711996339113453,-0.14529822557432875
58,0.58,-0.014553042456916533,0.05805423345131207,-0.4017666751676458,-0.027224579905845755,-0.1076704200381878,-0.15842702837017736
59,0.59,-0.005168945084463788,0.05034855467131402,-0.20796041470635657,-0.012061007517766028,-0.10803828314347758,-0.17176923398044674
60,0.6,0.003354576629537186,0.042116147215563275,-0.016022514834849566,0.002037828128565029,-0.10828370547418686,-0.18525453997445904
61,0.61,0.010581692834199633,0.03267081861193588,0.17034444558517073,0.01964078276497844,-0.10822748720524628,-0.19708858149718614
62,0.62,0.016842507962242483,0.022507036432378384,0.3480753621854321,0.040757681680050416,-0.10786878255888796,-0.20726672852607692
63,0.63,0.023154928748306672,0.012365623560510138,0.5134745557258824,0.054178582791915335,-0.10984353582497286,-0.2178185863558605
64,0.64,0.02883210690495275,0.0028307908629275694,0.6649571607659477,0.06399279731396766,-0.11291185117045364,-0.22854558167509165
65,0.65,0.033421253971927155,-0.007137959335454507,0.7994135648159415,0.07384088513489039,-0.11490337946116798,-0.23794452363631635
66,0.66,0.0371938241086173,-0.01669772182801226,0.9155851564759812,0.08370664934324677,-0.1163329989387954,-0.2466504363836308
67,0.67,0.040067252491990724,-0.026563060506058177,1.0115532919024346,0.0898920284766426,-0.12006384697369665,-0.25257615747979273
68,0.68,0.04235083658615388,-0.03575465638733611,1.0861869677688933,0.09404379629474817,-0.12506624794064838,-0.2569656726938786
69,0.69,0.04530617216024251,-0.043457118948217466,1.139129736971999,0.096167440345542,-0.12914412193959085,-0.2598899869491728
70,0.7,0.047459157419522,-0.05036571736199699,1.1691164920140842,0.0971903532310469,-0.1327202239741,-0.2620190872314603
71,0.71,0.04802749401655057,-0.05678260444275589,1.175781070326299,0.09821326611655183,-0.13629632600860914,-0.2641481875137477
72,0.72,0.04741950825925767,-0.06261028285233626,1.1597754881382831,0.09923617900205674,-0.1398724280431183,-0.2662772877960353
73,0.73,0.04217690718372108,-0.07185231497869723,1.1227587757564705,0.0991452545970706,-0.14083818351040595,-0.2606116254288832
74,0.74,0.037554668568706207,-0.07866897619997074,1.0655074998722072,0.0985387975432966,-0.14059575633598964,-0.2513382057441733
75,0.75,0.03737965747372799,-0.07962775622651067,0.9906831322873754,0.09716963511421106,-0.1397981119184794,-0.24374459879043744
76,0.76,0.03887633336330524,-0.07702274333473182,0.8997423028154807,0.0950402040682016,-0.138447024114882,-0.2378254377538388
77,0.77,0.03811825232815966,-0.0734522122128681,0.7941709690442763,0.09085873219933058,-0.1368407685201762,-0.2311196899484439
78,0.78,0.03574082911812439,-0.06901326659105955,0.6766524357691295,0.08479517380887787,-0.13500047866307344,-0.22369250213117747
79,0.79,0.033332038845484094,-0.06309567756688532,0.549876779081371,0.0732721693202583,-0.13239263762260328,-0.2137588782770552
80,0.8,0.029956111430008647,-0.05651023143850835,0.4166850547806471,0.05858253082526005,-0.12933959506623147,-0.2023714502372324
81,0.81,0.02538202816687154,-0.04862143220578273,0.279629383872176,0.04408396174569939,-0.12486978889361222,-0.19403475379237334
82,0.82,0.019728620056338804,-0.04069411292273329,0.14207096779940032,0.02967276891586813,-0.1197520951914412,-0.1870931601958087
83,0.83,0.013745512148818726,-0.03171789081427085,0.006210843645644976,0.01266222440988718,-0.11391902195797622,-0.18031148911028602
84,0.84,0.007182782727797075,-0.02313591213521862,-0.12467712055594235,-0.005534248274538071,-0.10775956397548783,-0.17360278106933802
85,0.85,0.0012367190063666874,-0.013929761831430413,-0.24872592135357197,-0.0214331312810893,-0.1011218012914668,-0.16689177829486995
86,0.86,-0.005145030412930275,-0.005374356080814949,-0.3635177456808693,-0.03627349868086069,-0.09426368029184044,-0.16017971832064698
87,0.87,-0.012053476149908494,0.003247443476318907,-0.46774979075083106,-0.04934126156626024,-0.0874829777352834,-0.15346417354583114
88,0.88,-0.018959337875499166,0.011600396573014978,-0.55998646153357,-0.06097851274924114,-0.08076475272963844,-0.14674581649789506
89,0.89,-0.026136503598320433,0.021038227417922092,-0.638990256975089,-0.07480202515085206,-0.07134212467546655,-0.14318011985177212
90,0.9,-0.03256328527759847,0.02992494486056883,-0.7041951336400041,-0.09021846599438613,-0.059949045653353225,-0.14191147827801606
91,0.91,-0.035080456070196726,0.03575248369701124,-0.7550191141856218,-0.10151116703762142,-0.050695696414318266,-0.14314042773592098
92,0.92,-0.0356647438521318,0.0402281002913905,-0.7914758861305152,-0.10861361634829504,-0.043616588729056514,-0.146907251951804
93,0.93,-0.038515612787625435,0.04742696199806317,-0.8137096469607183,-0.11809903487594298,-0.03638503433672905,-0.14843448747971874
94,0.94,-0.04177568880880622,0.054349781909589966,-0.8220389065442358,-0.12886083494978354,-0.029071825442828325,-0.1487621398774687
95,0.95,-0.043853282320144925,0.06094089909033337,-0.8166973571088285,-0.13845600953255252,-0.01950454583171364,-0.1538369249908901
96,0.96,-0.04479432177369872,0.0665558342983019,-0.7983192694834587,-0.14688315783318598,-0.00768048899461905,-0.16366454279922935
97,0.97,-0.044104877409767394,0.06890400764345403,-0.7677836453718573,-0.15126402736692734,0.0022152271473822134,-0.17501673550984967
98,0.98,-0.042825722884522174,0.06937764865344306,-0.7259707990103451,-0.1536663412916048,0.011168020293152616,-0.1871144171988933
99,0.99,-0.040709074325003015,0.06995260763861687,-0.673954971906983,-0.1537609476344898,0.020932639003945458,-0.1969214098295181
100,1.0,-0.037912590325306285,0.069994803890006,-0.6127641568945328,-0.15154692312789608,0.03150940807494579,-0.20443679694280906
101,1.01,-0.034897030719273185,0.06745127013041718,-0.5439434869017318,-0.1457262399109964,0.03930940599794014,-0.21946365317946945
102,1.02,-0.03165750876728521,0.06356693393299334,-0.4683560642091002,-0.13791876206956089,0.04557976820168555,-0.23862834104240285
103,1.03,-0.02758828255654966,0.05838837382659801,-0.38739142161751067,-0.12864615270925672,0.05265603091452305,-0.2535009304412099
104,1.04,-0.023209790806700874,0.05283732693434812,-0.3024568869548581,-0.11855653854559585,0.060181689861402564,-0.2659801066777783
105,1.05,-0.01795094347951862,0.04666580309836953,-0.21484877746779724,-0.11061543141283273,0.06917501428845416,-0.27898983783785986
106,1.06,-0.012746694463950737,0.04050041369127111,-0.1264901510101724,-0.10379350855091746,0.07893286407970185,-0.2922759417147525
107,1.07,-0.007616926643733406,0.033833511866840006,-0.03849513110943685,-0.09643310723731653,0.08672072948196104,-0.30247410010851306
108,1.08,-0.002813241566696057,0.027191021764546148,0.046980207160255215,-0.08880784489802447,0.09353962001766868,-0.31115339288122545
109,1.09,0.0024101340835930595,0.019640357591727043,0.12761332113039525,-0.07782480196360463,0.10020019531089944,-0.3187889109162846
110,1.1,0.007191085017415798,0.012173648185168816,0.20337879207517273,-0.06524121033440149,0.10678530669351066,-0.32592689427131644
111,1.11,0.01118699685149676,0.0051310319043746146,0.2737560070116396,-0.05265761870519834,0.11337041807612187,-0.33306487762634834
112,1.12,0.01579435712039185,-0.0034317516995315614,0.3370484718200636,-0.034894324466049016,0.12241755318953244,-0.3382990848621538
113,1.13,0.020363414263148995,-0.012646667603942868,0.39282406337171716,-0.011810626187857077,0.13399359044037662,-0.34157780180886144
114,1.14,0.023590693012464324,-0.02176636677067348,0.44166825995271397,0.003729880087012157,0.14036357209501754,-0.3467269525100454
115,1.15,0.025777262601155832,-0.029890782160198606,0.4822365361526858,0.014656943388052266,0.14354951168880567,-0.353020067127142
116,1.16,0.027361229828449633,-0.03727494017948657,0.5139507587727461,0.020508815015749863,0.1475087425500183,-0.3572878927510613
117,1.17,0.02838189929375609,-0.04359341577812127,0.5361875099593246,0.02350713019408648,0.15190276098683805,-0.3604169876943925
118,1.18,0.02933777266978952,-0.04875435689537246,0.5491099615346295,0.02283074733582368,0.1547896812512722,-0.3606304562877351
119,1.19,0.02984716227180827,-0.053225918895473665,0.5524792564727956,0.020075660233591305,0.15682406578737873,-0.3591946125274676
120,1.2,0.029476671565198984,-0.057546586081042114,0.5468871429668567,0.021922507048495618,0.16132752449939938,-0.3594749241942129
121,1.21,0.028725870465444007,-0.06141908187309998,0.5323824314804013,0.026126340129442874,0.16709557632102556,-0.3606342043217615
122,1.22,0.028905470461497083,-0.06523781898452456,0.5093350115278681,0.03244368699702985,0.1727944908773195,-0.3624763483032184
123,1.23,0.02928207741877687,-0.06857613194022263,0.47876457041514786,0.04113005196904754,0.17841591011075425,-0.3650839080785045
124,1.24,0.02824007915358581,-0.07113526907756439,0.44108340799263973,0.053847812448577705,0.18234525002454627,-0.3649289644877625
125,1.25,0.026140424509867574,-0.07220458192979859,0.3979691539619395,0.06923641434081562,0.18515356980720346,-0.3629438337127108
126,1.26,0.02335028177552828,-0.0726917317291152,0.3505730554214902,0.08063026582702057,0.18795347187402853,-0.3566281736523578
127,1.27,0.020098476367528907,-0.07116199430982802,0.2999732353914161,0.08982449586930821,0.19074873891078392,-0.3479280028938958
128,1.28,0.01466981321953719,-0.06574654857322287,0.24723381174766662,0.08778755338751629,0.19070960512048746,-0.3418731222266686
129,1.29,0.009160737196588423,-0.05844380645368069,0.1928759637179119,0.07663176979675528,0.18836915766720508,-0.3379660119705346
130,1.3,0.005867714901614179,-0.05118921622850915,0.13748369507353236,0.06547598620599426,0.1860287102139227,-0.33405890171440056
131,1.31,0.003923653724371846,-0.04382313272478956,0.0818696508085566,0.05432020261523325,0.18368826276064032,-0.33015179145826656
132,1.32,0.007644608879227501,-0.036730674847563975,0.026416290321929436,0.03819383460109777,0.17957733344439744,-0.3193083823441641
133,1.33,0.012674704809171149,-0.029441359233996475,-0.027726317876052127,0.017016711447081757,0.17366736610611405,-0.3014167985840613
134,1.34,0.005478401701893379,-0.01894479280695437,-0.07848697538051039,0.009935809175547023,0.16713597160892146,-0.2894125096531442
135,1.35,-0.004344899532036043,-0.008236698775907773,-0.12616101141274522,0.011233527989772844,0.1602352084177853,-0.28090755667937056
136,1.36,-0.010219464113253916,0.0001833104705796229,-0.17032424295497464,0.014598016835643962,0.15450865713747192,-0.27606002774888266
137,1.37,-0.013496620580587405,0.007489290213839681,-0.21057200210256766,0.020030929790816755,0.1499572575134081,-0.2748728499717591
138,1.38,-0.017007225247202048,0.015023530639528309,-0.2462338946422109,0.02027990235940557,0.1430962910477099,-0.2701662067516697
139,1.39,-0.01929084711374534,0.02269728331010528,-0.2774024321839753,0.017668215087104776,0.13496083363091735,-0.2635174128308995
140,1.4,-0.019100919439945636,0.030964656128409755,-0.3034673071838044,0.008518449607100577,0.13187530180271206,-0.26070649254261696
141,1.41,-0.017726055192728463,0.03920910830907707,-0.3241615794323658,-0.007185104320593502,0.13385182994576575,-0.2617426678498957
142,1.42,-0.01783277120555008,0.0481235130217572,-0.34009553940137427,-0.022112243666221373,0.12863543995274582,-0.26403746566901865
143,1.43,-0.017819920109638916,0.05552321290841591,-0.3503499529171972,-0.0366783604681226,0.12007443786422375,-0.2669175063613607
144,1.44,-0.017245064126853404,0.06192044234207128,-0.3551249854810941,-0.04947606276827463,0.11271084880583873,-0.26429195234962555
145,1.45,-0.016311429821418793,0.0661635681088231,-0.3536713365768704,-0.061461306100022324,0.10589738470642504,-0.2591369745012829
146,1.46,-0.016047227144703777,0.06871300875449361,-0.34706664971950524,-0.06158544095229355,0.09824687111682523,-0.2569220484721752
147,1.47,-0.015573046634908693,0.069423561067696,-0.33434306141821624,-0.056068679740029916,0.09019827422976782,-0.2561053498317933
148,1.48,-0.014559827125636075,0.06843866335234412,-0.31548994203995007,-0.050551918527766304,0.08214967734271045,-0.25528865119141136
149,1.49,-0.01519972329958555,0.06571366911056803,-0.2922903699938125,-0.046126909639259465,0.07146598849660693,-0.25300512783595475
150,1.5,-0.015261369754609067,0.06247248058591866,-0.26479901440876513,-0.04221072359743533,0.05955418686091132,-0.2500379751344752
151,1.51,-0.013907388119819142,0.059253782595654926,-0.23354468697044323,-0.0382945375556112,0.047642385225215717,-0.2470708224329956
152,1.52,-0.011879575987365741,0.05590804264114446,-0.19960296736887864,-0.03437835151378706,0.035730583589520123,-0.24410366973151604
153,1.53,-0.009667707829320148,0.05228553207882847,-0.16390570087529138,-0.03046216547196293,0.023818781953824524,-0.2411365170300365
154,1.54,-0.00947772895274429,0.048608019001080714,-0.1270191810982049,-0.030600725154785686,0.010465780569526626,-0.24161521503710395
155,1.55,-0.009113543758899553,0.04433308925822544,-0.08995757641526027,-0.03304592242743738,-0.00370708123027675,-0.2440541663653499
156,1.56,-0.008461055300317964,0.039037432806824784,-0.05317236567120569,-0.03276581310125168,-0.01807849549910344,-0.23690159109852615
157,1.57,-0.006762756559066397,0.03298152832437366,-0.017571090055486984,-0.03120791607478851,-0.03254300311122072,-0.2252519310944137
158,1.58,-0.005272181969670496,0.02616629615944301,0.016450708070575738,-0.025309868470045915,-0.044193170976229226,-0.22008565968760926
159,1.59,-0.002988993703798882,0.018898752456815895,0.048395992681037045,-0.017381575761387782,-0.054526840855910315,-0.21795220193993026
160,1.6,-0.0008478126257112067,0.010549553481934905,0.07792282011826321,-0.008781783539645708,-0.06574475888864552,-0.2144921404044937
161,1.61,0.0017450087273983275,0.002184913943818253,0.10487841342662427,0.00019164459793685057,-0.07745469048514236,-0.21029392967976016
162,1.62,0.004182055491504442,-0.006467683549731058,0.12880058040106315,0.010286590575352394,-0.08826066120632778,-0.20965615424633186
163,1.63,0.006780685357223569,-0.014507930001494062,0.14991068670471888,0.021006659173662227,-0.09856277334275386,-0.21100292918007085
164,1.64,0.00836578926448344,-0.021975107576240285,0.16806468922752876,0.031165308313023662,-0.1117026601106888,-0.21613692910440505
165,1.65,0.009992649553947821,-0.02859104144959502,0.18328781876581282,0.04102535935779735,-0.12635185348410766,-0.22328521290854111
166,1.66,0.010794604900629648,-0.034837456285858055,0.19558059424959245,0.0452376367633867,-0.13882600963745745,-0.23372578798971536
167,1.67,0.01185770649786513,-0.040273160623019874,0.2046893579564836,0.04665305018976276,-0.1502230540574237,-0.2457967561195664
168,1.68,0.013334337008272927,-0.045067616774515956,0.21065048800406452,0.04679884176266241,-0.16029357718453374,-0.253552901565376
169,1.69,0.014786009274397563,-0.04906376570860277,0.21321715895320922,0.04635291249225442,-0.1697458608760786,-0.25929807775263586
170,1.7,0.014914841984310683,-0.052629457683694085,0.21257511104761875,0.047284530869895085,-0.17683545201751327,-0.2614357926444945
171,1.71,0.01454488128420852,-0.055482492114012794,0.2086439885519286,0.04913566287687356,-0.18234794489680173,-0.26116552561781203
172,1.72,0.01442953072735084,-0.057337093925023126,0.20143506277463044,0.05098679488385202,-0.18786043777609016,-0.2608952585911295
173,1.73,0.014138160007874899,-0.05836726532201118,0.19129123837080833,0.052837926890830486,-0.19337293065537856,-0.26062499156444696
174,1.74,0.013333871782386045,-0.05959057061892141,0.17908770918569375,0.05581901012428815,-0.19710308674170007,-0.2557375867997689
175,1.75,0.012054334762697867,-0.060079695429089405,0.16462614123841768,0.059690437547821586,-0.19942885193822985,-0.2472121119454525
176,1.76,0.010423260084008986,-0.05888717754352764,0.14783865518610725,0.06060210982746361,-0.19843143641945712,-0.2426111199658232
177,1.77,0.008493253267033714,-0.056360627145015565,0.1291611070199566,0.05917216676220712,-0.19480488079330652,-0.2411149893255262
178,1.78,0.005835469872548961,-0.05289903273303623,0.10908627947283082,0.05543194819379283,-0.19592938906361207,-0.236447008758796
179,1.79,0.003071148437854349,-0.04857878846917005,0.08802998435553362,0.04981292896687213,-0.20091763651353786,-0.22919956365533806
180,1.8,0.000961441697109898,-0.04319391114884093,0.06606440338858635,0.044264697706090726,-0.20593016406271505,-0.2220298640517487
181,1.81,-0.0007171598266756626,-0.03718421243168749,0.043974490253188316,0.03876136399337055,-0.21095809136106605,-0.2149094748395616
182,1.82,-0.0021622131094781102,-0.030391321817606398,0.022153700492606555,0.032398326271814784,-0.21215312123867,-0.207416385646234
183,1.83,-0.0033468722239730557,-0.023460313912838853,0.0011395588263533327,0.025544742820072176,-0.21116110598833704,-0.19971063444073686
184,1.84,-0.004003752244044105,-0.01640894290871235,-0.018740138214165637,0.018762878477322976,-0.2116955880692062,-0.19303381616719556
185,1.85,-0.0044923054663053895,-0.009587793192149523,-0.037289128181058985,0.012015466911580971,-0.21296337641798813,-0.1868512817373547
186,1.86,-0.005417894728192383,-0.002515966259618689,-0.05414417665512166,0.002820537226292477,-0.21538904329402406,-0.18013940152228508
187,1.87,-0.0061281044938842205,0.004208841541077058,-0.06948348303346574,-0.007677285187666645,-0.21843108620494808,-0.17314573349571
188,1.88,-0.005816241359482275,0.0114463153228218,-0.0831517306454253,-0.01845967091879761,-0.21901225650928186,-0.16893473439210896
189,1.89,-0.0052420462109857464,0.01796525111562263,-0.09522862623966294,-0.029387802295665913,-0.21833303432631468,-0.16614894315817572
190,1.9,-0.004809639346957079,0.023215112472566607,-0.10569211192010997,-0.040315933672534214,-0.2176538121433475,-0.16336315192424247
191,1.91,-0.004863676381980566,0.028770901067000094,-0.11408399632086574,-0.05184088938823836,-0.21514701425269764,-0.16152428319697842
192,1.92,-0.005001332336509444,0.03411137949464096,-0.12049227063092399,-0.06396746321256819,-0.21079796133141174,-0.16063994277965
193,1.93,-0.0038512739216527434,0.038495411280693156,-0.1252399855758813,-0.0732473199739301,-0.2069290514664162,-0.1597843028954547
194,1.94,-0.0023160061839641198,0.04192712716146614,-0.12814814356639634,-0.0801380706182564,-0.20346310146271415,-0.1589527499218142
195,1.95,-0.0015002494094947484,0.044756904000030115,-0.12907228268659435,-0.08712369262996594,-0.19786053555429164,-0.16174708973043614
196,1.96,-0.0011160200404045427,0.047012349670323444,-0.12801820274592274,-0.09421188628653628,-0.1899479343440953,-0.16846161955026578
197,1.97,-0.0004571709319370677,0.048706212117706274,-0.125205918127519,-0.10234459712121302,-0.1836336756232229,-0.1753336439573614
198,1.98,8.46342744805469e-05,0.0494474068555995,-0.12056711596771867,-0.11118474847336604,-0.17840195748804158,-0.18231233779474545
199,1.99,0.0009659561888302132,0.0494715807215574,-0.11420426385939013,-0.1177780740116807,-0.17259339176422886,-0.1918001343911087
200,2.0,0.001376222210462942,0.04852191880098795,-0.10618464796113675,-0.12320203893561668,-0.16648460568221554,-0.20259379365190647
201,2.01,0.0017288538005280655,0.0471573835305981,-0.09675991228219903,-0.12556838178190466,-0.1580823018184953,-0.2121170129773079
202,2.02,0.0014255080116215048,0.04503908431170014,-0.08605663532788681,-0.12643485367014526,-0.14855494697555344,-0.22101703691928565
203,2.03,0.0011708209769272348,0.04211406645784531,-0.07452656544529265,-0.12461933478537628,-0.13824618802075406,-0.2330333628893021
204,2.04,0.00032396796310229115,0.038722242363413165,-0.062131403447145885,-0.12150777230249625,-0.1275598238158164,-0.2465556087654814
205,2.05,2.8628367415168762e-05,0.03490874994195532,-0.04934383941740141,-0.1168742952590282,-0.11587964694372135,-0.26097406007381274
206,2.06,-0.0008789325584879814,0.03098711381693129,-0.036074500410985116,-0.111517027359905,-0.10372683347338987,-0.275818728013076
207,2.07,-0.0023671316565799026,0.02708844596520429,-0.022410614828775165,-0.10500833485227913,-0.09277545975584978,-0.2904652756623121
208,2.08,-0.00415000639001214,0.023133731458047944,-0.00880351832616432,-0.09777730843647137,-0.08257779641211124,-0.3049875346674383
209,2.09,-0.004500646810504589,0.017918050723881064,0.004355527981935564,-0.08975517172815847,-0.0700272884664863,-0.31691095880606096
210,2.1,-0.004984645133383637,0.012837694702832265,0.016859989687256553,-0.08132093574200072,-0.05625115424535397,-0.3274806172537674
211,2.11,-0.005639004194545354,0.008125420524743975,0.02850672833583253,-0.07131142647598912,-0.04436515357693521,-0.338456398212308
212,2.12,-0.006265624675622336,0.003653042357049165,0.039147897872826375,-0.059716529815967326,-0.034381422150171995,-0.3498409092098421
213,2.13,-0.006679318106084804,-0.0009457843504610038,0.048653903221523895,-0.04844192187123387,-0.02400170070746706,-0.35888369648899743
214,2.14,-0.006835810180522255,-0.005549949002127493,0.056947080279139875,-0.03748927248469983,-0.013223924732996377,-0.3655725513438029
215,2.15,-0.006701736661641443,-0.010258621155786221,0.06394393089928063,-0.02514532247825297,-0.003280299854297493,-0.3696783473292628
216,2.16,-0.00628473322548269,-0.014899052929585292,0.06962999993036376,-0.01139327546613983,0.005819103694072982,-0.3711699006360893
217,2.17,-0.005707467634479346,-0.019784400604641414,0.0739662292589237,0.0032800088321142287,0.014686026347096572,-0.3718664235525847
218,2.18,-0.005098302418430578,-0.024173241425428045,0.07701551204581451,0.01865252600454561,0.023376492524584225,-0.3719595065158206
219,2.19,-0.0038292436373173633,-0.02830195738596856,0.07874188955096466,0.031325559222890965,0.032755621311901115,-0.3669886187817441
220,2.2,-0.0026863023825023395,-0.03144487359182427,0.07927933195607091,0.042489339329394665,0.04251977412772557,-0.35918651824433706
221,2.21,-0.00111239271410352,-0.03467320237161276,0.07872253121118844,0.05354439773490431,0.05133779094747521,-0.35090194572776456
222,2.22,0.00014246740177685426,-0.036956708532143535,0.0770580081320817,0.06454057848732438,0.0596434329014609,-0.342356093102851
223,2.23,0.0014920850098757241,-0.03860489042836394,0.07413786009853242,0.07137170027318898,0.0667969779751141,-0.3244119040508923
224,2.24,0.002461711077908542,-0.03939986892005533,0.0702414989681432,0.07603896601792713,0.07335197887100453,-0.3015850357337662
225,2.25,0.003748673539661404,-0.04004855832645492,0.06554814770446758,0.0779129391072188,0.0800342161441352,-0.2751666949533622
226,2.26,0.00473822797762687,-0.04020673789137654,0.06010132698153107,0.0781478140943459,0.08679111544884861,-0.2466408858820661
227,2.27,0.005084636373333032,-0.04004347038108595,0.05404819171372306,0.0778508057467838,0.09148025049517924,-0.21884740081051685
228,2.28,0.005197718315801505,-0.03940881309594355,0.047380854906156226,0.07728956737559745,0.09514215764545048,-0.1914177210607996
229,2.29,0.006150014881795284,-0.03782298045073928,0.04043022571954433,0.07306055825884078,0.1003784405139004,-0.16368462138630574
230,2.3,0.007003823054938943,-0.03606642867282504,0.03300198609734266,0.06699132958044568,0.10640463016631713,-0.13579928774745115
231,2.31,0.007314382453961066,-0.03446964472746727,0.025092201283301255,0.06092210090205054,0.11243081981873382,-0.10791395410859657
232,2.32,0.010696454578129998,-0.03473674706718075,0.01745627578571186,0.051714273124960235,0.11835126624776893,-0.07164738638258246
233,2.33,0.011036504148784253,-0.032554072743773366,0.00983534964678901,0.04180778708441764,0.12193530444905773,-0.038881646881818326
234,2.34,0.004334132460103515,-0.025096636786793552,0.0020906244465074978,0.034908317294896546,0.12001815751590482,-0.027145128857969013
235,2.35,0.004329777076188618,-0.021463954771754272,-0.004690016848876406,0.0199156119573873,0.12286449767970875,-0.006395808714953502
236,2.36,0.006028870427054474,-0.0192783764730238,-0.011670262405501753,0.000905958795147148,0.1280751183613349,0.01882687139054507
237,2.37,0.006497005906842698,-0.015276221239707097,-0.018345642257516417,-0.02375154963482854,0.13131846106345554,0.04280812188614504
238,2.38,0.006399228817535003,-0.011399643161727811,-0.025188249691807503,-0.05114081001922824,0.13361027168646822,0.06618891829743205
239,2.39,0.007295505289946566,-0.006421789130169766,-0.03124933353451542,-0.08285824325581073,0.13879592857459194,0.08876712021787893
240,2.4,0.00827572791781982,-0.0010521595843558575,-0.03658747189087818,-0.11900544142285467,0.1469433568930944,0.11052388892613048
241,2.41,0.007775801340541327,0.0048711999625478015,-0.041531313293006925,-0.15418547305633912,0.15673245817088718,0.13100593033721586
242,2.42,0.006200106152317653,0.00962100823967774,-0.04604801091716177,-0.1887551691298265,0.1675575458586448,0.15068354834058045
243,2.43,0.004184595243833124,0.014837625924236143,-0.0506692390533037,-0.21266381955122304,0.1771422072407197,0.15797366428418305
244,2.44,0.0017839166131674898,0.018537337781039435,-0.05417326129362064,-0.2306275255124193,0.18603516672647927,0.1583561077396317
245,2.45,-0.0014447244640327216,0.02182650688331916,-0.05654282360076905,-0.24247824348596106,0.18786698175027006,0.14150034449994567
246,2.46,-0.0049613013992227594,0.024008722969870257,-0.06033078977579759,-0.24306176534766585,0.18481840744369296,0.1178932840496972
247,2.47,-0.0075292391914239774,0.02465339277809871,-0.060797893251862634,-0.2400177567968429,0.18129089593378173,0.09547261035532732
248,2.48,-0.00926212136579492,0.025969285242677796,-0.061434693762293796,-0.2279634540485896,0.17472513870613476,0.06733214250288423
249,2.49,-0.010143335430643663,0.027804789184177073,-0.058623655110754416,-0.2099720430468206,0.1661574053685264,0.03542275918994564
250,2.5,-0.011646984461909819,0.02968150257848325,-0.0524898863479899,-0.1924543866255893,0.14897733381661912,0.007562230398256072
251,2.51,-0.012355742611656402,0.03211957669120467,-0.04276049458243281,-0.17523582159533369,0.12636010910168782,-0.017742170008892912
252,2.52,-0.01355109049791094,0.03482680770526313,-0.02844990101668592,-0.16334661206596526,0.10386635980104794,-0.04065444482512357
253,2.53,-0.013298882984041548,0.038161220557650796,-0.013378657669683672,-0.15453927730857453,0.0814440142122079,-0.06218339448903022
254,2.54,-0.012046353531605027,0.04297621828330015,0.0010605582878758756,-0.14783318315232571,0.05837641803720092,-0.08560019620393483
255,2.55,-0.010050561518878991,0.048089403237150344,0.013274960340523778,-0.14335384139419746,0.03462502901650312,-0.11101761559183317
256,2.56,-0.0076221341355286725,0.05067507607066257,0.025196248566686556,-0.14179665597974014,0.01651997040431296,-0.13699638317445104
257,2.57,-0.004118313689361019,0.0519969100646092,0.03250194695659278,-0.14190901180751858,0.0016408793228163618,-0.16329587075015506
258,2.58,-0.00036530137252117987,0.052448770698093644,0.035008531483939634,-0.1265881786518626,-0.013554963778410416,-0.18617384808297024
259,2.59,0.003152564516499194,0.05185285143315968,0.03351246779645482,-0.09561656875268353,-0.029072024688165176,-0.20558207635779044
260,2.6,0.007495534151263795,0.045331512874432905,0.0282092144062817,-0.053291964790818415,-0.03489578921947588,-0.2115686737145826
261,2.61,0.011222479446340037,0.03930325549242468,0.019884718034680705,-0.005705406753653039,-0.036226846355713806,-0.2113345327254952
262,2.62,0.013669005704950311,0.03136568016135217,0.010690086462528368,0.04375631545034108,-0.03763216542059895,-0.20768580277110368
263,2.63,0.014564313803594539,0.025820667420907974,0.0012065680264877303,0.09413080712834612,-0.039073632798655514,-0.20237496097127566
264,2.64,0.014225357956386658,0.019700649828460242,-0.007921050050097722,0.13790188376669965,-0.03696436166654609,-0.1944775484625344
265,2.65,0.0125039646129643,0.015382801015086094,-0.015477346384757621,0.177625706025912,-0.0326788314475608,-0.18499481842252374
266,2.66,0.009408068753761713,0.012071095005558873,-0.022004979229779304,0.20168934678502426,-0.033424145462284165,-0.17853778967226167
267,2.67,0.0054627099954407295,0.009864649822826047,-0.025670968779131807,0.21716389450087933,-0.036928711610144126,-0.17374025828469536
268,2.68,0.0007985853327021272,0.0074557699899691215,-0.028805893696160857,0.22379697845100416,-0.042633962571530994,-0.16467512089046005
269,2.69,-0.0038057479267459404,0.004304009571532368,-0.02813169791073591,0.22569642442306956,-0.04951743984103522,-0.15332514668595987
270,2.7,-0.00783424965035147,8.509202299815388e-05,-0.022332838347786408,0.2275958703951349,-0.05640091711053945,-0.14197517248145972
271,2.71,-0.011937527268463859,-0.006361674304267886,-0.01633706945623647,0.22658523679839446,-0.06572456605240316,-0.1266172979258882
272,2.72,-0.015040410754857802,-0.014779319497535179,-0.007823648232980311,0.22413023182207453,-0.07625935511654974,-0.10927016623063332
273,2.73,-0.017769759252670443,-0.02635904637229232,0.0025029937709404697,0.22108395415773965,-0.087936697947926,-0.08983669297257788
274,2.74,-0.019426175935147876,-0.039326687642859084,0.013630650764102394,0.2174918863198524,-0.10066870579520656,-0.06847736596424495
275,2.75,-0.019280494021750878,-0.051230863094515744,0.027408699073936643,0.2167996067921148,-0.11247761192230077,-0.048221612780371466
276,2.76,-0.017441418047952194,-0.06196417540636685,0.03999499645057433,0.21765302156981792,-0.12379447072744378,-0.028554105217783506
277,2.77,-0.014721790870747006,-0.0724144784822747,0.052176725923375356,0.2137381475210725,-0.13234840916701893,0.0017664949031436434
278,2.78,-0.011113019546471755,-0.08118704015917091,0.06043713976609863,0.20695374582200401,-0.13923963868244887,0.038498062306095496
279,2.79,-0.006600037443330176,-0.08623832938404653,0.06547865961963605,0.19520723535922366,-0.14077944297098285,0.07200176527022167
280,2.8,-0.0018569369219923696,-0.08912441913458931,0.06538324662717573,0.1808262188963587,-0.13947804354137908,0.103791715344904
281,2.81,0.002518564689488148,-0.0897323763198902,0.06164754807662117,0.1633852642750551,-0.13844108193992574,0.13223649530611467
282,2.82,0.006475591445447801,-0.08885361073901663,0.05395694324770128,0.14434680769280106,-0.1375421753994399,0.1589348622552694
283,2.83,0.01032080050143038,-0.08385411201721087,0.04318528132018756,0.11540868701729033,-0.13572930502516056,0.18598854430351305
284,2.84,0.01345116035163912,-0.07810083530438933,0.03076523298369115,0.08166047695322838,-0.13347235415511538,0.21321486830926345
285,2.85,0.015214413464481647,-0.0701329216703355,0.017389652497609123,0.04509857919519239,-0.13044638729055522,0.2333284332386227
286,2.86,0.016180457763579195,-0.06180426875112564,0.004744957884630464,0.006609530556616478,-0.12689370601694644,0.2485703274610686
287,2.87,0.01678023709347508,-0.051756176994135095,-0.007621197765507185,-0.030315338239280794,-0.12566804279349725,0.2609275637238069
288,2.88,0.017012405041059178,-0.04204929393926783,-0.017574209554621724,-0.06629487325250992,-0.12584874520376402,0.27154141693918143
289,2.89,0.01712906814450351,-0.02989870798924517,-0.026467972590780563,-0.09332883713240056,-0.12617932080141736,0.2799109625389755
290,2.9,0.016816015080819764,-0.018699535101652655,-0.031840964904562674,-0.11549281827174783,-0.1265914875937484,0.2870587036067353
291,2.91,0.01592780774289506,-0.010119278370400026,-0.03268437453174837,-0.1376567994110951,-0.1270036543860795,0.2942064446744952
292,2.92,0.01459053633253029,-0.0019596921756938473,-0.03067443179962697,-0.15982078055044235,-0.12741582117841055,0.3013541857422551
293,2.93,0.012391509096031882,0.010093929194137423,-0.028107977016617363,-0.17717792569497864,-0.1267715331172741,0.3028212632906552
294,2.94,0.009824808514826247,0.024305986120472814,-0.02513661111035157,-0.18951800330926774,-0.12502458514674492,0.29835922810793536
295,2.95,0.009917365579308349,0.03414234202749391,-0.019661134508666293,-0.19669982941117534,-0.12340528665097852,0.29400762918396844
296,2.96,0.009606026481680274,0.04355275389974442,-0.014246815232099617,-0.201441952227436,-0.12184636265270266,0.2897082634058044
297,2.97,0.007608167438714623,0.054280534003323555,-0.010191414557629256,-0.20618407504369665,-0.1202874386544268,0.2854088976276404
298,2.98,0.0031489667795330367,0.07093082801784144,-0.006441176499439918,-0.213158863727898,-0.11519429908860755,0.26777092659015644
299,2.99,-0.0012105659184031307,0.08606195462364707,-0.004251228627938124,-0.22116894009793606,-0.1084623429364333,0.24394784117013074
300,3.0,-0.004312655951807759,0.09639204120899975,-0.003978874531128124,-0.2291790164679741,-0.10173038678425904,0.22012475575010504
301,3.01,-0.007684059295522638,0.11121517149631176,-0.003265560026889505,-0.23460514806002875,-0.09053166426399123,0.18545857689289652
302,3.02,-0.009958003822233705,0.12060613447720736,-0.0039925375534383654,-0.23884799192097894,-0.07728743756495364,0.14582692836282155
303,3.03,-0.00815901766776429,0.1152183974391769,-0.007500901992884333,-0.23392694365587455,-0.0696725022207092,0.10644977053375623
304,3.04,-0.006118735728859152,0.10565626475807821,-0.011701614881591231,-0.2239688079320509,-0.065151801563502,0.06721249779945009
305,3.05,-0.005315445219042624,0.09847526191010411,-0.015808712223012035,-0.20629970669886333,-0.05648881215777059,0.030610429529677807
306,3.06,-0.005632979646709068,0.09242146721529056,-0.019143686512683798,-0.18215135104614036,-0.04434520250438337,-0.0037773686655524006
307,3.07,-0.005352476705307186,0.0768811011189832,-0.02152574641959465,-0.16516606848561718,-0.03943001396858887,-0.023373690070970128
308,3.08,-0.006265467886052566,0.06369433468662805,-0.02248691754192335,-0.1517248474998596,-0.038091219139704965,-0.03565165748920111
309,3.09,-0.008941463639953899,0.057840447058569625,-0.021933752489451206,-0.13828362651410206,-0.036752424310821055,-0.047929624907432106
310,3.1,-0.012243716306975929,0.0553376352909821,-0.020273543551809083,-0.12484240552834446,-0.03541362948193715,-0.0602075923256631
311,3.11,-0.015394112672384212,0.053374355142155994,-0.017831947364046554,-0.11140118454258688,-0.03407483465305325,-0.07248555974389409
312,3.12,-0.020381647888461356,0.056240516776080024,-0.015974752458727114,-0.0733088712543222,-0.030284246680415614,-0.1079011366139119
313,3.13,-0.025715636327485216,0.059841467854439785,-0.0143668541604657,-0.00279172458551967,-0.023268690694426532,-0.173750786022851
314,3.14,-0.02343981458296727,0.04201467472770287,-0.010208740539799746,0.04454513928207294,-0.016279522361464144,-0.21578473766204467
315,3.15,-0.017420506631909815,0.014085342325925232,-0.004920003102795735,0.06865531337588063,-0.009316794509662631,-0.2339553124568789
316,3.16,-0.01290246184355168,-0.010097654357517423,-0.0001303707691556761,0.09466354956793067,-0.005775984497318486,-0.2495914889296116
317,3.17,-0.009464322371990536,-0.02942430157365545,0.0040655379637652735,0.12167551558689108,-0.004044746997844397,-0.2638874293839757
318,3.18,-0.005743049352375502,-0.04705353946178293,0.00764771214435632,0.148562314136879,0.0006369926732142915,-0.269635067068561
319,3.19,-0.002726671935781169,-0.06104115014436495,0.010617485051742667,0.17538165554984916,0.006908861400119279,-0.2707757247131701
320,3.2,0.00015736229084182098,-0.07336139178966433,0.013124316990526474,0.19888574554840752,0.013631820699614914,-0.26292546475833345
321,3.21,0.0020916371219004914,-0.08253319373875416,0.015058076680387444,0.22076506101232127,0.02057585538180324,-0.2506688379454165
322,3.22,0.0037656522792200112,-0.09080001310099203,0.016645288434622905,0.23610037639620965,0.02766000356113714,-0.2330851565470949
323,3.23,0.004708068789326551,-0.09683164367163141,0.017693796376726884,0.24760227340147234,0.03482622900949353,-0.21238093286547405
324,3.24,0.005496234607091727,-0.10099581659262377,0.01809687827301086,0.24852628604568194,0.04129585672878412,-0.18325916941702047
325,3.25,0.005733664836621796,-0.10326733059547935,0.01804721536721267,0.2435388855278689,0.047376193277583516,-0.14943329372163078
326,3.26,0.005924241491960051,-0.10359979707251366,0.01730126704698042,0.2343957961902669,0.05207274644919161,-0.1106352480838658
327,3.27,0.005788215433371444,-0.10289926505279073,0.016439110606995887,0.22304342581521847,0.056033641464538236,-0.06919385708387314
328,3.28,0.005638307164423352,-0.1005456896105936,0.01563816653489454,0.21243579349719494,0.061384531975027926,-0.027158043832348492
329,3.29,0.005428120614022296,-0.09791156975211557,0.014949269676850434,0.20223040919487847,0.0674861870321781,0.015198828842574045
330,3.3,0.00582720606806782,-0.09641268748112776,0.014471664464192884,0.18895317508845952,0.07028011003052417,0.05845924695811192
331,3.31,0.006568884622156413,-0.09471236340043993,0.01401102882703165,0.17257073507710932,0.06973038350954422,0.10263302178589057
332,3.32,0.006191172334948834,-0.08853359184415335,0.013975446407699307,0.15852841327703288,0.07051109479263774,0.1434194290534006
333,3.33,0.005791153170299714,-0.08089224721167457,0.013591435485186898,0.14584634994385112,0.07206515986570182,0.18223683519005246
334,3.34,0.00640916619262028,-0.07292754277948683,0.013176148961369016,0.12507188343701442,0.07388976538899003,0.2190301197363872
335,3.35,0.007575962456226339,-0.06421695785465353,0.012406753930160035,0.09619205554487552,0.07598534457379176,0.2537960415049103
336,3.36,0.008143084638107066,-0.05220369807513439,0.011209945290291592,0.06302946946100474,0.0787976572354292,0.281540424521914
337,3.37,0.008640419453571215,-0.039701966509494,0.009162288328968125,0.027308174808910717,0.082038178076518,0.30508983071292994
338,3.38,0.00919820605859842,-0.025024840378185566,0.006569655865945535,-0.009431144398271606,0.08691304394451692,0.3212713947406481
339,3.39,0.0098396652649403,-0.011103508202492306,0.003464644617459909,-0.04676630169318157,0.0927444731985894,0.3331406453145147
340,3.4,0.010605830796782132,0.004123075869529362,-0.00019791596221993253,-0.08174348586188937,0.09631026385001064,0.3341290590622141
341,3.41,0.011209373356083534,0.017342038134686488,-0.0037418868128413,-0.11563080995574344,0.09882887163508003,0.3300883274366841
342,3.42,0.011510848798639993,0.030775249105665203,-0.00727270342120525,-0.1453951342920413,0.10234363382965543,0.32110396103371425
343,3.43,0.011400702478279914,0.04227150424968016,-0.009989735353493186,-0.1732599638525091,0.10631733131601907,0.3098420275714329
344,3.44,0.010666412798676968,0.054405355192355315,-0.012555262635086026,-0.1970890977418178,0.10804122381659327,0.2949133522485057
345,3.45,0.009547591803804937,0.06489697043759349,-0.013906588885845533,-0.21901558758604206,0.10870443721556808,0.2782559775551385
346,3.46,0.008146274497924577,0.07519885804213478,-0.01491812272877176,-0.2343511424794897,0.10739651491108024,0.2550482939191645
347,3.47,0.006481151851948023,0.08416726666924937,-0.014693217008105369,-0.24596318013157534,0.10497500889931537,0.22814004451123254
348,3.48,0.002736854148929554,0.08832861311236122,-0.01333789799099424,-0.2512203255659009,0.10245183679316024,0.20812997561238933
349,3.49,-0.0007247949438621715,0.09223683235281005,-0.011057185074593828,-0.25300723610332965,0.09987314758042097,0.1918868166637782
350,3.5,-0.0026293351271757686,0.09819585673106108,-0.008118273955493019,-0.25479414664075833,0.09729445836768172,0.1756436577151671
351,3.51,-0.0033345169868547486,0.10971926190767027,-0.005881610611719615,-0.2528448478519878,0.09183479355519464,0.1518176418242428
352,3.52,-0.00359267359582126,0.12221992319223726,-0.004161371896665405,-0.24706705029830645,0.08342298913745877,0.1202214621380063
353,3.53,-0.004239997284489028,0.12780346231637366,-0.0020484983593943556,-0.2412892527446251,0.0750111847197229,0.08862528245176979
354,3.54,-0.0056253963543861,0.1379049547351014,0.0006619638061057444,-0.22749695829029484,0.0648200969214953,0.031302400873226104
355,3.55,-0.007177564055036636,0.14092363519121154,0.0026345257861784786,-0.2100123291551807,0.05380928084659944,-0.03787295189555085
356,3.56,-0.010159178727070133,0.1201247356792639,0.004315118035833105,-0.19762008806765388,0.048159476902899824,-0.08349508191869713
357,3.57,-0.013368439432479971,0.09000822156837597,0.005153854420808419,-0.190338600682865,0.04789001953607098,-0.10547904469422498
358,3.58,-0.014114647898587818,0.07654614753958186,0.004101671175241385,-0.1744714665645366,0.04629120469831199,-0.13225404019683834
359,3.59,-0.01347946794929902,0.07215122090836597,0.001846922998802519,-0.14852552975900965,0.04313183978598284,-0.16465329150950872
360,3.6,-0.0131697410261593,0.06173675064067207,-0.0012395124846685517,-0.11773525080792654,0.0411516662058934,-0.1907013332786561
361,3.61,-0.012798986051996962,0.05012843060548358,-0.004642104752811162,-0.08415321352075378,0.03985105181727122,-0.2130892202415109
362,3.62,-0.012119493962337743,0.04022321432854309,-0.007969882590059839,-0.05057117623358098,0.038550437428649054,-0.2354771072043657
363,3.63,-0.011241168420961756,0.026649641735995724,-0.011118403655933685,-0.014808297877541962,0.036322992623723294,-0.25496086382350885
364,3.64,-0.01036613012856578,0.013015779780633771,-0.013588561174722298,0.02215646171282027,0.033584763195076944,-0.27284412794828145
365,3.65,-0.009552670107721708,-0.0022206203852822848,-0.015218248130748931,0.053542855537718585,0.03232584762352319,-0.28564780545768026
366,3.66,-0.008815876847420565,-0.01609151663907931,-0.015900807224016957,0.08227021736454877,0.03177207456979207,-0.2960302033459294
367,3.67,-0.00831368629286091,-0.028873158238315322,-0.01590963750921478,0.0989981699414574,0.031241209733705994,-0.2995368189357658
368,3.68,-0.007733436087963409,-0.0407150049482389,-0.01503696988535334,0.11016713368528856,0.030720957630582194,-0.29985807796183656
369,3.69,-0.006924230017518671,-0.05196648435632027,-0.01329254456606489,0.12133609742911973,0.030200705527458394,-0.3001793369879073
370,3.7,-0.005914044021930897,-0.06346265001448456,-0.01091799562701815,0.13250506117295086,0.029680453424334594,-0.3005005960139781
371,3.71,-0.0040354144082380885,-0.08217769424179182,-0.009588967236447938,0.15431306998070435,0.025988633799611485,-0.294480338545081
372,3.72,-0.0012619574617627012,-0.10845198644026424,-0.009584139893590736,0.19603644229409992,0.016359916671791222,-0.2765893158509683
373,3.73,-0.0003696278702669557,-0.118708680178956,-0.005482795181532878,0.2228086272540024,0.009002686833778846,-0.25620388276474954
374,3.74,-0.0002786196516043789,-0.120312243171459,0.0004662937649881479,0.23465949736261665,0.003912405849430885,-0.23332902312337198
375,3.75,0.00046240553102624895,-0.12178743922442303,0.006045862799258513,0.2373882286881873,0.00025458845094386887,-0.20512138469967706
376,3.76,0.0016444349893147041,-0.12290647830915946,0.010747137464228042,0.23305648608961066,-0.0022945117885736065,-0.17278621144766015
377,3.77,0.0030511012951194797,-0.12290242348253058,0.014107658563389788,0.228724743491034,-0.004843612028091083,-0.14045103819564325
378,3.78,0.004764358116409293,-0.12334816537945048,0.016793403356146118,0.21777928321596093,-0.006705532666422062,-0.1042114048222203
379,3.79,0.006608971441152387,-0.12334455638879419,0.018648436331347575,0.1999280850235651,-0.007849932167618815,-0.06389491488703489
380,3.8,0.007813525612818558,-0.11858455871871651,0.019811032598260305,0.18196283169676172,-0.009649546601382687,-0.02321464966893421
381,3.81,0.009028359290734336,-0.11251108620266709,0.019782264557896816,0.1639448862318403,-0.01175186267066002,0.017633675475191662
382,3.82,0.010439937709955919,-0.10566078658288698,0.018875388004566743,0.14687932893838654,-0.012572343294113742,0.05339633464797537
383,3.83,0.011896129499436397,-0.09829324967620753,0.01717577898983585,0.13034647340246516,-0.0126758515576471,0.08631441502156928
384,3.84,0.012823943390704553,-0.0883336410758078,0.015307094001353647,0.11024339061349543,-0.011998110926232762,0.11493756223195695
385,3.85,0.013640863428625704,-0.07764538467876106,0.01306033831363916,0.08819837319236752,-0.01089542975801115,0.14122458939695698
386,3.86,0.014115171182864684,-0.06566467980025656,0.010826652224426534,0.06187382969287381,-0.011844228656583569,0.16151336036106806
387,3.87,0.014449628120549028,-0.052876745521348134,0.008522920671965676,0.032370593243572686,-0.014316800306058072,0.17734682147362993
388,3.88,0.014847496254450677,-0.03529585434369405,0.006199330327664337,-0.003937391025122253,-0.014555633516360812,0.1853488189826668
389,3.89,0.015088772248480417,-0.018390092815295245,0.0038803814521568736,-0.04351278232846987,-0.013721901969903166,0.18959041567319634
390,3.9,0.01501503033448803,-0.004315412850028948,0.001648394423108521,-0.0830881736318175,-0.01288817042344552,0.1938320123637259
391,3.91,0.014501226321165673,0.013877156727209697,-0.00036294359101887545,-0.1206434002449398,-0.01121350487088975,0.1916194760484228
392,3.92,0.013486898823028885,0.030721148016879626,-0.0019415859895775952,-0.15727566117208505,-0.009154636369160949,0.18645819831320545
393,3.93,0.011573302433088023,0.04731532466473081,-0.0033532483527624526,-0.1815263409689152,-0.009649183150519285,0.17873356418081196
394,3.94,0.009313222203832577,0.06181423535344921,-0.004214272200366362,-0.19926407857801512,-0.011486873908804427,0.16966055686040293
395,3.95,0.007058525653991466,0.075541753836773,-0.005159950837145659,-0.21244583224471,-0.011716774368130971,0.15329146304951338
396,3.96,0.00469528985025236,0.08743586973386686,-0.005385419786692363,-0.22348260803235812,-0.011189719871292421,0.13348733866706508
397,3.97,0.0021131811533766295,0.09851091522426525,-0.005461219734702465,-0.22561667027446744,-0.008988214269729823,0.11139581249390357
398,3.98,-0.0005562774546052354,0.10835214942451851,-0.004851921001381418,-0.2229210481822161,-0.005878326046647178,0.08806338055212592
399,3.99,-0.003569101634586413,0.11753654564693025,-0.003963706843361384,-0.22182491643459928,-0.0056060117495101815,0.059731961903758124
400,4.0,-0.006411346772900915,0.12542758837778872,-0.0025996574382719075,-0.22152159219552556,-0.006740176661255008,0.028922732614403226
401,4.01,-0.009256083543180249,0.13274606190105562,-0.0010268148496030399,-0.22277685165486166,-0.00737390411581466,-0.009940820390926274
402,4.02,-0.01161772559183482,0.13818880787948895,0.000543942867502061,-0.22478048966920688,-0.007767338629120803,-0.052671784014168985
403,4.03,-0.013069264668052758,0.14135918406063416,0.0017929652373764593,-0.22112494098068688,-0.006041308017177225,-0.0914400495880142
404,4.04,-0.014119677097654992,0.14210946067736627,0.0026314300510144424,-0.2148826417913817,-0.003346493768644927,-0.1283970105165207
405,4.05,-0.015608802254072327,0.13970182735645778,0.0031022273871999743,-0.201135569002921,-0.004725560951746742,-0.1707047648355236
406,4.06,-0.016717671231820285,0.1350702184673624,0.0029837247094359337,-0.18388112953605826,-0.008008562450293116,-0.21551322010078205
407,4.07,-0.016710046669439912,0.12572222569063118,0.0026934359214325684,-0.164937000368897,-0.006938637072684386,-0.2543076389762323
408,4.08,-0.01628725084227336,0.11494054907409139,0.001753505301521012,-0.14504324553137124,-0.003422315115818232,-0.2897220980062391
409,4.09,-0.01588677148793248,0.10436980829722627,0.00027572477394026233,-0.12073223045085825,0.0003835802271948424,-0.3266504308398751
410,4.1,-0.015451251747897342,0.09266325484090801,-0.0011762966034198647,-0.08519107836576881,0.004925666924220118,-0.3674275317530885
411,4.11,-0.01441919899156157,0.07748794355743861,-0.0031916279918861434,-0.05207203975176243,0.009542495412954913,-0.4025605323324109
412,4.12,-0.013094211377017155,0.060058131450695565,-0.0055470361023103355,-0.021438919016385373,0.014236034575450338,-0.4319007531364229
413,4.13,-0.011634767162526401,0.040196072145298925,-0.008400146195656034,0.00728692576485952,0.019357499043856342,-0.4526475019629546
414,4.14,-0.010418899206189894,0.021243349105956252,-0.011304463766590627,0.035097379704125645,0.024684344860059892,-0.4692698420840005
415,4.15,-0.008250930352949444,0.0016767189750111489,-0.01420285932073636,0.06315316923260719,0.033793631317414585,-0.4786711496642983
416,4.16,-0.006278113355847265,-0.01705404207625876,-0.016496492080250537,0.09137720305928976,0.045496809974398894,-0.4831204747132805
417,4.17,-0.004929116263368334,-0.03590989301095766,-0.018252611822376898,0.11941352763483105,0.05492857336944343,-0.4825632378968578
418,4.18,-0.004118899549477518,-0.05365428486346708,-0.01899058236117661,0.14731718383539774,0.06275495519772016,-0.4784674838104845
419,4.19,-0.0027312721453418495,-0.07086816388617731,-0.019168857153096238,0.1678364767710576,0.07059380540053932,-0.4692719167820768
420,4.2,-0.0016837983139123868,-0.08630671934890083,-0.018094832410251428,0.18422724980214053,0.07843962654054422,-0.4572250979279541
421,4.21,-0.0004277651891814232,-0.10136888187648102,-0.016186407696330358,0.19809118459502686,0.08502709315433048,-0.44122562108513613
422,4.22,0.00039306349282121605,-0.11442248733144782,-0.013147010521811983,0.2106626737110605,0.09097092740464573,-0.4232044098659966
423,4.23,0.0013809310574387206,-0.12594692970223426,-0.009559681289542052,0.2172854991183941,0.09504724368332593,-0.39527662518508
424,4.24,0.0021211407893190464,-0.1352732265930312,-0.005354561232281841,0.2209089381310883,0.09818193537703006,-0.3623538293363118
425,4.25,0.003021656455103717,-0.14326161356169106,-0.0005786449110030244,0.2206110490849556,0.10054898926597326,-0.32288781785713705
426,4.26,0.004047279569473565,-0.14927367945688003,0.0041399841042880706,0.2172495788371814,0.10231631757392584,-0.2783098463218593
427,4.27,0.0048993847348409785,-0.15223241469061727,0.008338374165168633,0.21388810858940724,0.10408364588187838,-0.2337318747865815
428,4.28,0.00514119281206738,-0.1500250258063603,0.012788674545480628,0.2081932348442632,0.10566205363270943,-0.19394169339487466
429,4.29,0.005596404281194194,-0.14518989865543172,0.016579184073893048,0.2003079113638991,0.10706311486597896,-0.1586459827040539
430,4.3,0.007346922791188974,-0.1414242273188132,0.018387215988818956,0.192422587883535,0.10846417609924852,-0.12335027201323315
431,4.31,0.013292799138445296,-0.14420674308014222,0.019886568229015023,0.17736541996261593,0.10902096600828104,-0.07342621595468249
432,4.32,0.01896197435174863,-0.14419404593804921,0.020168473203652792,0.1579293726288858,0.10906227313583793,-0.014570599694961885
433,4.33,0.02008424294346544,-0.13132250055408545,0.019825869628908206,0.13599471278637829,0.10891837794926623,0.033925377995797826
434,4.34,0.018863888466888818,-0.11131440029681565,0.018723326010544175,0.111535319033715,0.10858734427640387,0.07195341369870117
435,4.35,0.017169941609261455,-0.08871377434751362,0.016232754050334558,0.08244528881519503,0.10733060821670072,0.1010946164905333
436,4.36,0.016011823798559657,-0.06724613037058792,0.01271989018078792,0.05106623507171178,0.10561627749237276,0.12584286601431055
437,4.37,0.015212816513214718,-0.04488436302380062,0.008563346653201645,0.01869901772102716,0.1069115239500224,0.14092576621367367
438,4.38,0.014967334900918977,-0.024713219728118588,0.004507500098431211,-0.014153148138140906,0.10968374239381844,0.15126532562949907
439,4.39,0.015492139742178557,-0.0055337878677581,0.0008831070293329885,-0.049844740383695255,0.11001903609060668,0.15878752052052394
440,4.4,0.016074909819278276,0.012821749925319342,-0.0019923832627741066,-0.08841348845825749,0.10788502391832093,0.16345491459549866
441,4.41,0.015238077444627079,0.0315226243485496,-0.00497176859666572,-0.12288486680168513,0.10537991830327363,0.16736926330978033
442,4.42,0.01382035598088477,0.04828918079330866,-0.0067508799923696435,-0.15504245898337515,0.1026652560875494,0.1708583670378719
443,4.43,0.012055925404158115,0.0645849320410078,-0.007540952161038428,-0.17825723265083018,0.09802081607433527,0.17000479054688208
444,4.44,0.010035290925710712,0.07906864091439422,-0.006970524785746336,-0.1958712917145579,0.09216779347889092,0.16643147726557145
445,4.45,0.0069240734415346485,0.0922808053395715,-0.005712529066168291,-0.21112799329873075,0.08636452749734726,0.16534154567262624
446,4.46,0.0038333374817585645,0.1035606413261766,-0.0034042876469913275,-0.2253021611038055,0.08058411049638806,0.16539202005856418
447,4.47,0.0003128686816912746,0.11490358241718325,-0.00045468854956945415,-0.23594953388240245,0.07287236732270945,0.15691594033551656
448,4.48,-0.0028798086076522126,0.12473748151656111,0.0027224941667647173,-0.24466595636640345,0.06410320663137667,0.14377149966576655
449,4.49,-0.006184748834621746,0.13349222460847807,0.006151729134036964,-0.2496885414887049,0.05774924680024353,0.12393959005119845
450,4.5,-0.009044763839617564,0.14034139835535187,0.00897364970466291,-0.2524298145684686,0.05288691377018482,0.0999775030779575
451,4.51,-0.011048893493323863,0.1445252632932178,0.010648885107243333,-0.25517108764823226,0.048024580740126124,0.07601541610471656
452,4.52,-0.013219177289771233,0.1488830979401308,0.011546440071284813,-0.2551595950585817,0.04240746797590361,0.048528118249650934
453,4.53,-0.015422200222055097,0.15200413119893647,0.011521305213724381,-0.25224604958983626,0.035994642476321864,0.017324431272661672
454,4.54,-0.017711696165688958,0.14963178296216356,0.010404240243080199,-0.24383385762355603,0.03070467579221364,-0.019761527636219564
455,4.55,-0.019436012265100784,0.14393087930379755,0.00828867324085884,-0.232443903186821,0.026022787267309732,-0.06003299930858722
456,4.56,-0.020913727707331638,0.13533949131289683,0.005514030676434523,-0.21337575114896531,0.020743398180047223,-0.10017641127339988
457,4.57,-0.0217485624228049,0.1250727273228635,0.002239722790103482,-0.18987507494390127,0.015119079746060348,-0.14024589602533374
458,4.58,-0.021851343883872047,0.11187344608593358,-0.0012986291398194546,-0.16327229226031506,0.011331300764139834,-0.17756672423421052
459,4.59,-0.021422015082290167,0.09799741056187417,-0.004873912327574882,-0.13513052317894614,0.008454647578606523,-0.21352391613297697
460,4.6,-0.02119046715264952,0.08166038199682009,-0.008551297069996446,-0.10478227320894208,0.004026208611053756,-0.24588583180620685
461,4.61,-0.02055260953273081,0.06563717890139772,-0.011783790822993998,-0.07340234608731025,-0.0011277938289841868,-0.27656671577198744
462,4.62,-0.019219352367540687,0.048154410261689706,-0.01452865713107944,-0.04187837005044813,-0.002991646356656519,-0.3042493996813391
463,4.63,-0.017519724208179013,0.0310429253576286,-0.01653575967347713,-0.010262953448302524,-0.0027669502314408892,-0.33002886128905395
464,4.64,-0.016097104075213517,0.013344423999847733,-0.017920788152667573,0.019556646611439226,-0.005692588226043975,-0.3505162485788588
465,4.65,-0.014498526740338226,-0.003717501649364026,-0.01851188199001376,0.04819885701755197,-0.01068367706741562,-0.3675339977397029
466,4.66,-0.012043155890097686,-0.021841322403435365,-0.018723660066541255,0.07614821225118036,-0.010470704963779044,-0.3841743104141451
467,4.67,-0.009352694341257347,-0.03860150341584625,-0.018083043707008434,0.10377331289146173,-0.007822244561157411,-0.4006379836994727
468,4.68,-0.005829870729366021,-0.054081477288717414,-0.01597223966781169,0.11901190052920327,-0.00860756229621808,-0.40724222730034826
469,4.69,-0.0025838081340511104,-0.06858355091638771,-0.013414541619782993,0.12770316900418385,-0.011207922036797765,-0.408634928888256
470,4.7,-0.00015253586649570123,-0.08226316323229169,-0.01100420807909887,0.1363944374791644,-0.01380828177737745,-0.4100276304761639
471,4.71,0.0018446026509404984,-0.09563939792608771,-0.008717831466114214,0.14508570595414494,-0.01640864151795713,-0.4114203320640717
472,4.72,0.003671040410515164,-0.10878581559933667,-0.00653801224922986,0.15377697442912555,-0.01900900125853681,-0.41281303365197947
473,4.73,0.0031794407091940303,-0.1377410961940222,-0.006559899198167039,0.17877731623663154,-0.01866139249582593,-0.4027696519793915
474,4.74,0.0031608952099081693,-0.1631082235885203,-0.006319736561845312,0.21415227799126765,-0.016438505339660577,-0.38545148435837306
475,4.75,0.00771369327095525,-0.16500504189169213,-0.0024905165111220005,0.23138995808067206,-0.014311051932078276,-0.36640018547856296
476,4.76,0.01406850112121116,-0.1549220105830925,0.002716640241205577,0.2303592962599736,-0.012279721878648885,-0.3456032317098293
477,4.77,0.017896385544150538,-0.14779215721353742,0.0065253356418168845,0.2247020086098536,-0.012314126648003023,-0.323912665603294
478,4.78,0.02003976100144504,-0.14258469812544122,0.00918247877318093,0.21363310459036705,-0.014764755420313556,-0.3011768697043765
479,4.79,0.022330415018363713,-0.1350224860566394,0.010672008743539954,0.2006639933725634,-0.014587595986259857,-0.2748243525342281
480,4.8,0.02390273434122807,-0.12727462230030062,0.01124480884711699,0.18666944316629147,-0.01299236146932599,-0.2465200866257172
481,4.81,0.02380490685546985,-0.11977379579449116,0.011022316531429124,0.17193336423610572,-0.01492462477548123,-0.2181745725876061
482,4.82,0.023080010744804626,-0.11237216239149064,0.010447517290604096,0.15678288460830014,-0.018828217730237327,-0.18980600717854945
483,4.83,0.022568603893603097,-0.10325442587743665,0.009924699874422386,0.1410403801621725,-0.021060078233784568,-0.16406836714126202
484,4.84,0.02196505546164306,-0.09348523801001654,0.009408606223802875,0.12495092382013677,-0.02231223193206352,-0.1398725620363596
485,4.85,0.021061597643177804,-0.08363021590517317,0.008866961020067206,0.10886146747810108,-0.02356438563034246,-0.11567675693145715
486,4.86,0.019521248191875555,-0.07147198245348006,0.008893560334658738,0.08687459791887292,-0.025821320580518062,-0.09064830159240478
487,4.87,0.01766892644053297,-0.057437933866285235,0.00910043839549742,0.05897614434577503,-0.029085451154841582,-0.06478519525772676
488,4.88,0.015815805105707965,-0.04075796485785553,0.009306859730757183,0.028199848580447287,-0.029591041097627092,-0.042826514364830655
489,4.89,0.013964767805322506,-0.022611327117588405,0.009323396699306744,-0.005463513230290505,-0.027329248932491473,-0.02478477309782476
490,4.9,0.012097587253526935,-0.0036112682829510176,0.009018603802509519,-0.03681434739394513,-0.026656473530010247,-0.01357018029206003
491,4.91,0.010177735321159221,0.01553672349085549,0.008405782891621609,-0.06582098820773738,-0.02759447347654277,-0.009276220864041566
492,4.92,0.009115234889752688,0.0333977463803134,0.007127243120174494,-0.09198705766972626,-0.023460384156781096,-0.004355796005799265
493,4.93,0.008127735185751793,0.050317368980468964,0.005552980819093601,-0.11532389538610666,-0.01427445343206771,0.001188593422665975
494,4.94,0.005810192271679823,0.06683149089778528,0.003804470003046493,-0.13524726205009785,-0.008600068025389852,0.005079417003727814
495,4.95,0.002693322510351705,0.08265975988226104,0.00215138850829146,-0.1517503238858193,-0.00644425805750435,0.007313364295249306
496,4.96,-0.0002850747828464315,0.09962448545136515,-0.00019124259682366373,-0.1698008692464929,-0.0042105460542578,-0.0018914284294738613
497,4.97,-0.0033775932053590908,0.11407623853831173,-0.002037378054642461,-0.1887862594828434,-0.0019297729240992047,-0.0180064384947773
498,4.98,-0.006769515134462563,0.12053152757261039,-0.0037949390154971775,-0.2011297007983658,-0.0020524548445342693,-0.02904441196981002
499,4.99,-0.010224373667746405,0.1231083424959997,-0.005097361547520499,-0.20606400383177986,-0.00485620689016087,-0.03441891729580582
500,5.0,-0.013653350174611723,0.1332041904832165,-0.005601087883547819,-0.2106782739967382,-0.0062726056439234385,-0.04905580255541312
501,5.01,-0.01675128304650509,0.14327026532771112,-0.004720917997548556,-0.21511182148570576,-0.006905565494488183,-0.06892315709688615
502,5.02,-0.020660141129916168,0.14858570956907266,-0.003096482819618565,-0.2089781357056861,-0.01414442564505581,-0.09066315287685227
503,5.03,-0.023616189983131072,0.15037378223300712,-0.0006598357565125515,-0.19781889395312025,-0.024524914343197483,-0.11329373781303255
504,5.04,-0.024390261217044164,0.14928404734323691,0.0026942256335768986,-0.18904661932962127,-0.02660860635603481,-0.13361610091949264
505,5.05,-0.024192566547101935,0.1458119545833375,0.005736415380499553,-0.1814908907549946,-0.02446373773940544,-0.1527620514509022
506,5.06,-0.024361484585736747,0.1401545069400066,0.008586075123734303,-0.16887590575974235,-0.023102404545925485,-0.1792547710996094
507,5.07,-0.024212387916235492,0.13240969861870444,0.010199046193544885,-0.15299629363686695,-0.02224666956396117,-0.21048819961275253
508,5.08,-0.022545765576771244,0.12049278216276096,0.01120428767035794,-0.137283255967394,-0.01879070903884104,-0.2366865300584023
509,5.09,-0.020522603285371654,0.10707239712531887,0.010457222048927073,-0.12166262153948512,-0.013892334841771287,-0.2600917588397461
510,5.1,-0.01881651765650296,0.09363938620983497,0.007508370966921588,-0.10604198711157622,-0.008993960644701537,-0.28349698762108977
511,5.11,-0.017263622559675326,0.07862286622528031,0.003960101887088084,-0.08500669975701955,-0.0053953931066317296,-0.3044362645054002
512,5.12,-0.015752690709455786,0.06214795374738885,1.2121952398299468e-05,-0.058235626847546025,-0.0031737212551137504,-0.3227633386388169
513,5.13,-0.013318832370568258,0.04239549029306422,-0.005108506946579295,-0.030145045744141518,0.002003157701115928,-0.33945478360417874
514,5.14,-0.011015673954076613,0.022559624099303302,-0.010327162992866805,-0.0013373804686686375,0.008786038234084283,-0.35525734906641937
515,5.15,-0.008884176174662025,0.0014187338535932917,-0.015486072767002859,0.02991077242590858,0.013977488209592522,-0.3653260162536132
516,5.16,-0.007131600492482352,-0.018536721037249612,-0.019640761865958527,0.06262697008303478,0.018211633064373626,-0.3719455287449268
517,5.17,-0.00536735848031687,-0.03814034089470874,-0.02293382314877204,0.0896943458436003,0.02117705114239804,-0.3719153561623561
518,5.18,-0.0038426428223612774,-0.05568612205664109,-0.02463596057719219,0.11372539298325925,0.023460509071046458,-0.3683108756126423
519,5.19,-0.002197119755940442,-0.0723732520207527,-0.0250419814515022,0.13377585663856198,0.026804821378112745,-0.3647127006528173
520,5.2,-0.00043837404756694696,-0.08800671878332464,-0.024186276258581337,0.1498105528654925,0.031219364839942882,-0.3611208870173033
521,5.21,0.0018534958945697734,-0.10186126323934624,-0.02221077997242013,0.16184527438078386,0.035990982302534086,-0.35013310811412873
522,5.22,0.003970322322923051,-0.11352865362086338,-0.019056900254894375,0.17144500485539912,0.04097996913753196,-0.3346430234559944
523,5.23,0.004949946927571244,-0.1232084721850915,-0.014875041370575335,0.17641644183159186,0.04089794661318177,-0.3184450927868181
524,5.24,0.0058399506323859925,-0.13107756675549925,-0.010158791815700147,0.1787663391319863,0.03794362304819833,-0.30184622678306683
525,5.25,0.00824384827248973,-0.13862456529529302,-0.005331113377857534,0.1830872143349372,0.04016709516848601,-0.2810599695783386
526,5.26,0.01099725517983325,-0.1445769620372735,-0.0007101154778346233,0.1888063046311547,0.04606370439883781,-0.2573031698977038
527,5.27,0.01316028129007642,-0.14861535070528858,0.004296086124396125,0.19316552102854592,0.048179556052494764,-0.23212238920895056
528,5.28,0.014895675054923266,-0.14998920902720206,0.00852069960292448,0.1967892740384364,0.048250652838016266,-0.20617147395340293
529,5.29,0.016580223790546807,-0.14886619058793882,0.01268487200721299,0.19660082118021946,0.04960929247931862,-0.17993301296902664
530,5.3,0.017995031314184458,-0.14503256904506934,0.015360516933182357,0.19451597001504645,0.051608425886255006,-0.1535515111174493
531,5.31,0.019036851014446302,-0.13847133543321136,0.016041034964598837,0.1924311188498734,0.053607559293191394,-0.12717000926587196
532,5.32,0.019811784954607708,-0.12958426219046137,0.015462264705751207,0.1903462676847004,0.05560669270012778,-0.10078850741429457
533,5.33,0.02061879805933016,-0.11885974523027132,0.015041598613967354,0.1773516415955079,0.05720543596892546,-0.07674488745696073
534,5.34,0.02126195022201311,-0.10633424914264886,0.014523650619442552,0.1528325421802434,0.058381229589436374,-0.0551708745921066
535,5.35,0.021236553664445643,-0.08937813390871284,0.012621627151492051,0.1256047926979694,0.05978439281163104,-0.034001174404807565
536,5.36,0.020740548993684358,-0.07129584398210762,0.010239909097409369,0.09679849786167058,0.06132006234490504,-0.013067099301199231
537,5.37,0.019868433444485155,-0.05178659810900309,0.007586818757992174,0.06707271758545999,0.06065469403564251,0.009827063024064315
538,5.38,0.018671653231352763,-0.033080948406738586,0.0053684553189427405,0.03684174744715968,0.05878001674131113,0.033798149626983486
539,5.39,0.01699257137744535,-0.01402944485167927,0.0034660192269249084,0.00984319835434564,0.05639707988247835,0.055047536248180116
540,5.4,0.01507176439566938,0.003586266460045985,0.0023778295494805424,-0.01549831323685699,0.053753593687070916,0.07490169654384995
541,5.41,0.012028839067850409,0.021447977404415793,0.002014028586092783,-0.03882222675757885,0.04706908922540519,0.09394896013253948
542,5.42,0.00913307830851549,0.037672688150650065,0.002353776457366121,-0.06118221319660065,0.038453949023409456,0.11261072097944284
543,5.43,0.00671783351892684,0.05377834097926544,0.0032245414441501525,-0.07991742397706965,0.035466036153362725,0.12449539394113728
544,5.44,0.004633273064527388,0.06816697073276931,0.004344133114640901,-0.09698731167331154,0.03506342854323652,0.13326648361873406
545,5.45,0.002270160731604626,0.08242083362617053,0.005864958672538992,-0.1147115460971274,0.03488433192244606,0.13761768579488962
546,5.46,-4.048051324248916e-05,0.09508555972889232,0.007136592385252906,-0.13280241480066216,0.034830469809801125,0.13949239928050453
547,5.47,-0.002448752618283462,0.10710181928173079,0.008046255030612692,-0.14900743294356553,0.0329156153317565,0.1368903303527656
548,5.48,-0.004774104869666738,0.1172442342721445,0.008355578990400368,-0.16408190599669814,0.0298851179577557,0.13160448335636862
549,5.49,-0.0074734217658254986,0.12741530661536934,0.008301911470634197,-0.1821379598892969,0.0256243086227545,0.1200935263982956
550,5.5,-0.010248654662340104,0.13626044510586985,0.007788996499408051,-0.20318515097020615,0.020129244019185588,0.10233750720302834
551,5.51,-0.01197560036778114,0.14056817156188525,0.005946205304850034,-0.21506480688711427,0.0184853005193514,0.0868522049715966
552,5.52,-0.013394176077617628,0.14141796494621006,0.003712900288414047,-0.22177652468576992,0.01901231739152091,0.07264695507083364
553,5.53,-0.015416357982626968,0.1416812258653181,0.0012397388440327133,-0.22245951961765406,0.017969899604758456,0.053130048163426084
554,5.54,-0.017639025891998134,0.14058527749729538,-0.001166419102563588,-0.21678684368834866,0.015272934022260829,0.028013423967994645
555,5.55,-0.019131747122624308,0.13371411137665673,-0.003792924279210947,-0.20394742673656768,0.012284178259969206,0.002254037743645708
556,5.56,-0.020199866651932696,0.12447746318375669,-0.005627916909758143,-0.18766678600194012,0.009155314838818531,-0.023813980810751853
557,5.57,-0.021814204319139247,0.11371000187381922,-0.00678361193574987,-0.16789738882015767,0.0033538454504427025,-0.04937327724499039
558,5.58,-0.022986332708652038,0.10252592099994633,-0.007221074436587455,-0.14611310958236728,-0.003991149801004793,-0.0746387683973387
559,5.59,-0.02328648108549358,0.09027329821092624,-0.007089413725549186,-0.12546574528319274,-0.00980240351093013,-0.09933823764393383
560,5.6,-0.02282437463721148,0.07796124526324094,-0.0066665537704683545,-0.10547725650285902,-0.014724809058504366,-0.12370968061155115
561,5.61,-0.022513289652652025,0.06457983796716693,-0.005688728126701036,-0.08662955989150217,-0.02121395908348412,-0.1477804976121394
562,5.62,-0.02152950611927392,0.05131700584430571,-0.004938193847571573,-0.0683907523519305,-0.02853934695836742,-0.17169085780823973
563,5.63,-0.019465048338961777,0.037079189585550565,-0.004532276680147144,-0.050442902262045904,-0.03181576555345755,-0.18952525566754894
564,5.64,-0.016788285622400565,0.023132707397546463,-0.004697975116299177,-0.032628107327672545,-0.033240586130478485,-0.20458110939790888
565,5.65,-0.014476177467822874,0.007558556269185779,-0.005121551188441481,-0.011299605053954751,-0.03768434731596152,-0.21779654172157084
566,5.66,-0.011852434360297284,-0.007557491263770567,-0.005954594686839272,0.011766583303441228,-0.043621110216195885,-0.2301018030043176
567,5.67,-0.008020994227910902,-0.023879351870375973,-0.007131682957067714,0.0350233684885293,-0.0463251925779973,-0.2351733253781451
568,5.68,-0.004101640466746046,-0.03932174579170264,-0.008410948667661932,0.05839228370058235,-0.047127456529005234,-0.2359891665387202
569,5.69,-0.0012572346575682783,-0.054138487950519384,-0.009583465329201546,0.08385438473013095,-0.04779294125750473,-0.2354687087680719
570,5.7,0.0005077072836231497,-0.06999314008283347,-0.01047834926033267,0.1136837499961826,-0.0481730471143508,-0.2321601705112908
571,5.71,0.0033116772291291287,-0.08388781266945561,-0.011192486703313416,0.13720931372543207,-0.04888962710969425,-0.22714469550735716
572,5.72,0.00646993217977594,-0.09598051852542012,-0.011542993373180951,0.15444115393792227,-0.049942143315256066,-0.2204250126719338
573,5.73,0.009049873931618772,-0.10514582770305947,-0.011590179519929026,0.1631606693431317,-0.05355647100889308,-0.2100553555394128
574,5.74,0.011189735991785646,-0.11211077176365258,-0.011066388676805611,0.1666140621498583,-0.058755655210691836,-0.19742765344679014
575,5.75,0.012877893513160928,-0.11902233239413153,-0.010287587149095157,0.16916505882542265,-0.06110789992928094,-0.18206722915927934
576,5.76,0.014239507538267103,-0.1251482827766432,-0.009087445980323529,0.17080968007239322,-0.060600651011797936,-0.1639620321881476
577,5.77,0.015577131401210571,-0.12751129405573963,-0.006955575820268678,0.16576688311236312,-0.06318730359841447,-0.14243173505606144
578,5.78,0.016706666612543393,-0.12789744482977555,-0.00428635120384559,0.15752033706603286,-0.06725615511592564,-0.11926057127387453
579,5.79,0.017134762760883642,-0.12744724275153285,-0.001039534123329404,0.14906706369053915,-0.07242810476575039,-0.0997742386098398
580,5.8,0.017364478913758856,-0.12585997178724037,0.0021366912110203345,0.14049133399904412,-0.07825348197165896,-0.08247064030241752
581,5.81,0.0178116122508807,-0.1223703051312168,0.005565338211002262,0.1278194977597359,-0.07986725605666839,-0.05934058772819669
582,5.82,0.01818731072023569,-0.11744731486607268,0.008389202253570281,0.11265838776629035,-0.07892156715180662,-0.03266969960277031
583,5.83,0.01766110373794366,-0.11056523938277682,0.010648967348411583,0.10055592003491297,-0.08149681349900914,-0.011313323935639772
584,5.84,0.016972901487138516,-0.10236066183381459,0.01199250498938221,0.09023980016037786,-0.08612840204078806,0.006939201353899003
585,5.85,0.01708864919283324,-0.09188099998000415,0.012363670775087538,0.07847708929565328,-0.08656653816655528,0.02723125580550477
586,5.86,0.017069633173253405,-0.08038897367732102,0.012068885744411792,0.0659721496447685,-0.08485306328571092,0.048569768630324216
587,5.87,0.01576010778024011,-0.06713635740199225,0.011913699426200259,0.04787913697904637,-0.0847005431344497,0.06370722680038021
588,5.88,0.01408368363525233,-0.05316292012238186,0.01145542112444899,0.02666460721775423,-0.08541997774485087,0.07538075419071796
589,5.89,0.013282065478511662,-0.03594188238649561,0.010740984228780013,0.004207178426745379,-0.08351891150869574,0.0849087555305157
590,5.9,0.012248033494080483,-0.019018127862360637,0.009742997009102247,-0.01884759271701154,-0.0803584218570947,0.09340560828280194
591,5.91,0.010489777687927013,-0.0038360515586541577,0.008525944919487837,-0.041902363860768455,-0.07719793220549365,0.10190246103508817
592,5.92,0.007979097617627887,0.012961478008564058,0.007481872404988104,-0.0649496578006375,-0.07332849070435472,0.10583228531861973
593,5.93,0.005075974615390853,0.030477631998707108,0.006619506612288939,-0.0879889642000555,-0.06870170974036925,0.10488337081391592
594,5.94,0.0032063745331094677,0.04741693011548208,0.005062517320635741,-0.10678602359394286,-0.06391541961047834,0.1062873214705356
595,5.95,0.0012431378406531019,0.06263803029083365,0.0037607787523976427,-0.12325024164008958,-0.059041414272801865,0.10898512916255143
596,5.96,-0.001705089301309172,0.07684748983158399,0.0028628315779620863,-0.1342028642740661,-0.055794888751278415,0.10501877519135966
597,5.97,-0.005020340348648495,0.09000854661197605,0.0023727822617798816,-0.1396040646321956,-0.054187603237273216,0.09434010423382183
598,5.98,-0.007645682434725055,0.10169020035513163,0.001985555928284455,-0.14225682552578384,-0.050633957916961125,0.08488538647160945
599,5.99,-0.00978116702867084,0.11202450672197059,0.0017639683898689699,-0.1419261396179253,-0.04496752786425544,0.0767592769224667
600,6.0,-0.012500025381100163,0.11994529001225676,0.0018721465050623763,-0.14107332466591574,-0.04571069535115439,0.06107839982532391
601,6.01,-0.014865147981862422,0.12589850105201095,0.002489206989824024,-0.13997139940185188,-0.04951191306743634,0.04179310630572319
602,6.02,-0.016320225164540746,0.13035360959633427,0.0033197899898188936,-0.13569392056471724,-0.05127341123018706,0.0219874575261362
603,6.03,-0.01716336937971431,0.1331527287406501,0.004172719942343869,-0.1298317590945812,-0.05201703705090428,0.0019221381333736284
604,6.04,-0.018195682483580125,0.13388153851452259,0.005165589154544776,-0.12139378959020783,-0.0533053287480274,-0.019914898966302087
605,6.05,-0.018702076474141027,0.13283641915490274,0.005687499991287119,-0.11149620898449704,-0.05490226159742378,-0.04275590018095585
606,6.06,-0.017778729477639622,0.1298208431813426,0.005858628743708166,-0.10147770040673276,-0.05275840468561471,-0.06672754464734121
607,6.07,-0.01638096689822437,0.12499892416362457,0.00520499215336833,-0.09139335845422117,-0.04857805605052391,-0.09131471304613642
608,6.08,-0.013682990900249051,0.11462561440818952,0.00391605596166179,-0.08320355922909682,-0.04642493270929174,-0.10685739191666972
609,6.09,-0.01141482725322178,0.10334023883639876,0.0018592932697992833,-0.07601076600580871,-0.045338639773008366,-0.11764039436878924
610,6.1,-0.010409494468575645,0.0934251520578316,-0.0009082705392622053,-0.06881797278252058,-0.044252346836724986,-0.12842339682090878
611,6.11,-0.010071382483706072,0.08336025605207695,-0.004001068854735227,-0.061625179559232475,-0.04316605390044162,-0.13920639927302833
612,6.12,-0.01213961991656646,0.07502817739243449,-0.0062800335808844,-0.034675323092763444,-0.03751374614418723,-0.1597563615003894
613,6.13,-0.014730063099071503,0.06577517909431924,-0.008132920830412796,0.01333784873213812,-0.026993538290608368,-0.1907190329096196
614,6.14,-0.011012487954482673,0.04387492538993446,-0.01149047909156922,0.042431400804122346,-0.021980878780106117,-0.2071046689286155
615,6.15,-0.006378244435562965,0.020284905217442577,-0.014743729172931288,0.06244868663772865,-0.019610342934631157,-0.2164972968483011
616,6.16,-0.003001775288700476,-0.0015657106253614411,-0.017345775970840742,0.08131117314263539,-0.01587147967461783,-0.22096621753915696
617,6.17,-0.0007080619427382322,-0.021311325465716083,-0.019028221713607837,0.09926889177684883,-0.01106055250662038,-0.22157748781869674
618,6.18,0.0008496081907948066,-0.039526006286876914,-0.019976710323489542,0.11424770075617274,-0.007572102872806861,-0.21931335014318976
619,6.19,0.0017367998981192082,-0.05553347254344054,-0.01985710830432056,0.127581219367273,-0.004814074702300762,-0.21546108742824527
620,6.2,0.0026146652666816047,-0.07061213115890874,-0.019161664203456427,0.1386347428429988,-0.0017534523929458655,-0.20899620695595844
621,6.21,0.003171328089308014,-0.08379268102051855,-0.01749292027123544,0.14848043043776984,0.00146747028398336,-0.20114728253481484
622,6.22,0.0031236009813807187,-0.09519106521252901,-0.01514434430432327,0.1554149847676008,0.0013078549430934805,-0.18966468938803585
623,6.23,0.003073281643443231,-0.10486910782084993,-0.012072852246035416,0.1610182747160004,-0.0003976840789267321,-0.1765204156144652
624,6.24,0.003925047641052453,-0.11419528200808135,-0.008661804461618995,0.16632765213948467,0.00026166598792279707,-0.15747027416425027
625,6.25,0.005256352711020905,-0.12252272808184916,-0.005144394731900138,0.1713317320472821,0.00337751144881745,-0.13228549544339252
626,6.26,0.0060911540569164105,-0.12927686176353717,-0.0013102203660877352,0.1751125024342139,0.005757507894239075,-0.1090558754521778
627,6.27,0.006732253774067055,-0.1340284859245785,0.0024026328654128187,0.17765469962744967,0.0073924738713884545,-0.08780580940920897
628,6.28,0.007166282103506855,-0.12948657152969725,0.006641122655771447,0.17745816527079694,0.008876718460953097,-0.07331359245466187
629,6.29,0.007718661816421297,-0.1233983354451656,0.010045699501565322,0.1756593709441587,0.010272785424653852,-0.06277496893574078
630,6.3,0.008552513859170576,-0.12043902108418147,0.0118261487599554,0.17386057661752047,0.011668852388354613,-0.05223634541681967
631,6.31,0.009544698809543027,-0.11853461006364915,0.012475808844222072,0.17206178229088226,0.013064919352055369,-0.04169772189789856
632,6.32,0.010576040754426693,-0.11614989100911727,0.012376515168501119,0.17026298796424402,0.014460986315756125,-0.03115909837897745
633,6.33,0.014566965720215416,-0.1262946622433908,0.013576599895464404,0.14273730702654466,0.01892610843237754,0.0145032487024883
634,6.34,0.01851098303831523,-0.13474277584818317,0.014596271146593367,0.09356807150848463,0.02597316996967553,0.08971453575030766
635,6.35,0.016455561445866216,-0.10844548576321088,0.01323411037449252,0.06260050888468183,0.03103801022873161,0.12991272139314491
636,6.36,0.012870072574091316,-0.07540086532362282,0.010824621314691526,0.04056150573248437,0.03513050137067723,0.15293575176339375
637,6.37,0.010645780217416837,-0.04760333295581619,0.008161573832531167,0.01836782079186327,0.040146235236461915,0.1697593372258485
638,6.38,0.008941455335710669,-0.025463125092763918,0.0056990996780838105,-0.003906511416204628,0.04564332507586538,0.18335068509526964
639,6.39,0.0066951700297595475,-0.00654168127984886,0.0033963122874554694,-0.02873971132283515,0.046171945477061715,0.1919904885786628
640,6.4,0.00470883015105152,0.008860658498463278,0.0017173525277552892,-0.05501477476692965,0.043900946763921166,0.19784020982827788
641,6.41,0.004010261674382085,0.02341219176034526,0.000421470329337861,-0.08087702119952887,0.04605137714637948,0.2008190385419621
642,6.42,0.003625129283127986,0.03575505791722706,-9.688060060603076e-05,-0.10650361305786266,0.050725758727927665,0.20215903227676274
643,6.43,0.0019867364206284676,0.047349875376143755,-0.00017139616810570892,-0.1270929957948944,0.049155235824896434,0.2001218981312196
644,6.44,0.00027604923537175073,0.057479618680479315,0.00038927656107222604,-0.14428911213640466,0.043377894419700816,0.195809794995152
645,6.45,-2.911118868981471e-05,0.06731183601747306,0.0014888844174429953,-0.1604179374082226,0.04128702268453758,0.1895535682342974
646,6.46,0.000181975072668045,0.07643236218691593,0.002897487432843412,-0.17558883350363744,0.04250487989420414,0.1815524259620116
647,6.47,-0.0015223556412076824,0.08375764234251544,0.004541721547834235,-0.18409365457740046,0.03869566811083743,0.16895416005775715
648,6.48,-0.003104149908314599,0.08964103450816913,0.006135260661412792,-0.18955431757499755,0.03259077369190492,0.15425655218901307
649,6.49,-0.0038708282953857096,0.09638054076377761,0.007511802679447568,-0.1937699627029552,0.029320046367527924,0.13561113214945614
650,6.5,-0.004147178928328789,0.10224193056990104,0.008440832702079765,-0.1972537792895654,0.027715258481709932,0.11464516580053928
651,6.51,-0.004166209617711043,0.10600532967393517,0.00879632855622988,-0.20073759587617565,0.02611047059589193,0.0936791994516224
652,6.52,-0.004181213583794424,0.10841443326372313,0.008572784709880954,-0.2042214124627859,0.024505682710073938,0.07271323310270554
653,6.53,-0.004176090500980738,0.11060115859022046,0.007873114075850798,-0.2011211125612009,0.026028538185545375,0.048594622268262166
654,6.54,-0.004426461091505027,0.11164786468692031,0.006678010704786623,-0.1944269781689964,0.02925856767689455,0.022755190954858503
655,6.55,-0.006020543027119163,0.11003700632837053,0.005134917666440491,-0.18451676866699115,0.025693471769297684,-0.001939670835742811
656,6.56,-0.00765525897261065,0.10704307279999192,0.003234424029693309,-0.17280535641238295,0.01832268160550484,-0.025993502269579645
657,6.57,-0.008445194278066965,0.10366063418548084,0.000755785738852534,-0.15734525528996818,0.013911793649802266,-0.05105434555403636
658,6.58,-0.008786417599182169,0.09921082710553891,-0.001928052305090233,-0.1381304625953949,0.0124655475374311,-0.07712381319808112
659,6.59,-0.009859053041752419,0.09002484654162984,-0.004476244710342451,-0.11775620349403965,0.00926536620589248,-0.0997887608006519
660,6.6,-0.010638766603704466,0.07986458577911858,-0.006673489647074246,-0.09682113423154062,0.005216842320275838,-0.12080701176595188
661,6.61,-0.010950441112740322,0.06916377628170059,-0.008562737505695207,-0.0735427095808462,0.0005932107808439653,-0.14212987572735733
662,6.62,-0.010888585410043297,0.05785529184274034,-0.010117754876767224,-0.04791717717143888,-0.0046064493213764214,-0.16375784045587874
663,6.63,-0.010670620788212386,0.045395766950287623,-0.011162613417325818,-0.021230326831831483,-0.010384289496451295,-0.1802583511100002
664,6.64,-0.01024510876268036,0.032111739319920674,-0.011825602251636699,0.006533666045438168,-0.016748930603818747,-0.19155495562413516
665,6.65,-0.009155112869548943,0.017658057004321596,-0.011938081244629006,0.03007943713366698,-0.021113218356494247,-0.20241966785838708
666,6.66,-0.007752916284770914,0.0037433136931765976,-0.011883014008629707,0.0512617140036955,-0.024356696482597927,-0.2130423883346331
667,6.67,-0.00555553369179403,-0.010432998525071825,-0.011661484652729887,0.06632563850147245,-0.02536695322485292,-0.21718525875406175
668,6.68,-0.003601885920381287,-0.02380691470561233,-0.011435344585704128,0.07823487449206543,-0.02522573692257119,-0.21798704855916906
669,6.69,-0.0023861608138877463,-0.03594268611870176,-0.011253593575868043,0.0901441104826584,-0.02508452062028946,-0.21878883836427634
670,6.7,-0.002182697470642891,-0.051739240782502645,-0.01108189809213925,0.1106242446202942,-0.026674849564967944,-0.211051699203876
671,6.71,-0.00234815809650588,-0.0683979852457544,-0.010748007777642302,0.13967527690497278,-0.029996723756606624,-0.194775631077968
672,6.72,-0.0016758685094342245,-0.08056042704921748,-0.010093232222031841,0.16280548973695497,-0.031816282272323936,-0.18038017138436802
673,6.73,-0.0005486602271458146,-0.0898752881405454,-0.009121430640389689,0.1798976865284072,-0.03210378830415374,-0.1679025448506798
674,6.74,0.0010008329582829557,-0.09882045240841425,-0.007857060807937011,0.18980966178080474,-0.03229952242305826,-0.14935772549591164
675,6.75,0.002615051555393634,-0.10676988137829016,-0.006341928197312165,0.19256721784745226,-0.03240381441431053,-0.12476751596945053
676,6.76,0.003599769206610657,-0.11129354855904941,-0.004584639221317088,0.19532477391409966,-0.032508106405562814,-0.1001773064429894
677,6.77,0.004484970645629352,-0.1130544227757987,-0.0029627345628086953,0.18945583739566565,-0.03109877230520646,-0.07706342843978263
678,6.78,0.005133917140539677,-0.11352706742144049,-0.0011787771858878002,0.17961077463823494,-0.028991777091771195,-0.05463002172304296
679,6.79,0.0055473612758959595,-0.11333268243869682,0.0008392116083342162,0.16976571188080422,-0.02688478187833593,-0.03219661500630331
680,6.8,0.0056126122246445646,-0.11289807177950886,0.0030098833001225844,0.15802624173769064,-0.028825822446541187,-0.006068610780663737
681,6.81,0.005709293053160402,-0.11142761610254735,0.005113826445920018,0.1447715184588725,-0.034004708769535964,0.023014539472612842
682,6.82,0.006864579015313625,-0.10654133411596234,0.007328006021050133,0.12968302439073084,-0.03252973153022396,0.053156677884880515
683,6.83,0.00805261796028215,-0.10029428578303232,0.00913091151638175,0.11374066988030852,-0.02795650945177249,0.08379191396402713
684,6.84,0.00850212233533727,-0.09145250885462146,0.01100174260839243,0.0957874106595141,-0.02624511905057169,0.10491793484130396
685,6.85,0.00877758854527489,-0.08218805669999775,0.012168849864763295,0.076894352245391,-0.025871209778063974,0.12159981038946045
686,6.86,0.009107764575533035,-0.07234126204859888,0.012400041366013508,0.058095745233140886,-0.025994604183944302,0.13981396440854207
687,6.87,0.009446033684290816,-0.0616415147704972,0.012031647783416477,0.03939234826856194,-0.026619296675268,0.15957270435614662
688,6.88,0.009506982894942149,-0.04859349712685161,0.011197637649039185,0.02409980730821007,-0.026955416815964285,0.17300226780413092
689,6.89,0.009427795864602491,-0.034205373337961024,0.010158228058755037,0.012229054582868062,-0.02700203969465295,0.1800823689303808
690,6.9,0.009537419608468385,-0.021381024290417848,0.009178215647125341,0.00035830185752605553,-0.027048662573341625,0.18716247005663067
691,6.91,0.009762660895927172,-0.006898675596190264,0.00892734543585377,-0.02238468753415013,-0.022545551817708467,0.19339873408868732
692,6.92,0.009816966927723061,0.0075428440269957875,0.008571080992268955,-0.05072603057358725,-0.015699683203711456,0.1992004878521237
693,6.93,0.009588870276524716,0.02315468837981567,0.007798701097563603,-0.07406936431724216,-0.010936624308276974,0.19993211743972614
694,6.94,0.009039748450476011,0.03918714984302169,0.006787331981460429,-0.09206500399136733,-0.008402098518876383,0.19523889257382293
695,6.95,0.009125103389847494,0.05435890088187766,0.00514309875087955,-0.1080121845205461,-0.004288334033104839,0.19060883956262265
696,6.96,0.008682145621813096,0.06781117645684238,0.0035237377515630205,-0.12272029547545063,0.0007806785102212097,0.1860169978690881
697,6.97,0.006797576773666563,0.08058906813896329,0.0020151579511146823,-0.13163333517747886,0.00406700427270626,0.1812772360794537
698,6.98,0.004172959116176952,0.0919076506227997,0.0008350426987071115,-0.13597273750315406,0.005946382210841759,0.1764207314836113
699,6.99,0.0014018846864954247,0.10034900055343436,0.0002479596281062496,-0.14031213982882926,0.007825760148977259,0.17156422688776887
700,7.0,-0.0008463596772461347,0.10766044897856883,-0.0007112938870740401,-0.14118854397829708,0.01054978134383569,0.16608757085962553
701,7.01,-0.0030512904610845767,0.11339320529524106,-0.0013274689121868135,-0.1401705852640475,0.013735847488535131,0.16027167357767402
702,7.02,-0.005715911753712992,0.11703548235121615,-0.001688834187952714,-0.13240120064772182,0.013674596613452716,0.1478677421839928
703,7.03,-0.008237429704435296,0.11912748801005493,-0.0016280542497370365,-0.12112583399959785,0.011927030093640066,0.13204267730597669
704,7.04,-0.01036435534218051,0.11884790393823827,-0.0010953483772265554,-0.11143616471285814,0.012020589825854482,0.11776957401226452
705,7.05,-0.011978714803392238,0.11743613275429068,-0.0005070892193941717,-0.10248144399095144,0.012967485843766207,0.1042157832222097
706,7.06,-0.013362315331230307,0.11545672588759646,0.00015392630232800072,-0.09454346993546812,0.012223520455564829,0.08832814545097735
707,7.07,-0.014275622896826167,0.11215453861194558,0.0005190597907163991,-0.08743302032987448,0.010103372384753338,0.0705410026181554
708,7.08,-0.014084663574118231,0.10590663787735247,0.000435987761451595,-0.07759745948902508,0.010375660730803277,0.05537244948338207
709,7.09,-0.013423279881759124,0.09776261317067661,-0.00018057847381408153,-0.06614489510450257,0.012067552839821982,0.041757693040057615
710,7.1,-0.012899483724838677,0.08764097944069621,-0.001165976190730748,-0.05472016274504871,0.012646843517263787,0.02636062095079893
711,7.11,-0.012271536676655086,0.07614292364369789,-0.0025070479294138307,-0.043311769166856376,0.012572981886277895,0.00991724104146238
712,7.12,-0.010902686590896457,0.06209443905936189,-0.004232867725682359,-0.02894223903674196,0.014537841338756484,-0.000968806558949922
713,7.13,-0.009493669862096476,0.047246004369133274,-0.006015889468756476,-0.012994313721738232,0.017589414451698968,-0.008892590716447976
714,7.14,-0.008549900032978938,0.03145629530900689,-0.007624968663024447,0.005949685144871225,0.018260507191794177,-0.016482410066895256
715,7.15,-0.007808251301695275,0.015066800195816049,-0.008980004538116017,0.02791382241089047,0.01653199923476221,-0.02373558216204236
716,7.16,-0.006765741900529273,-0.002212702374002194,-0.010182523458150313,0.04434793097718594,0.01680441422310755,-0.02969250842270005
717,7.17,-0.005684739549797136,-0.018647533078459524,-0.010992337535566537,0.058262535929196765,0.017988457860511262,-0.035058859798066354
718,7.18,-0.004482118874406531,-0.035249033009647004,-0.011343878862958939,0.07142153779921089,0.0202680260576108,-0.03671342064634847
719,7.19,-0.0033527438729787514,-0.050493707161518755,-0.01125729710940869,0.0842283827717514,0.02305817519229617,-0.036638061822207114
720,7.2,-0.002009489183814462,-0.06472740799902765,-0.0109150605470424,0.09362141571872484,0.024293034276978032,-0.032203020347943284
721,7.21,-0.0005620194441412138,-0.07809248516098093,-0.010302553386542707,0.09877568946157002,0.023596767697690042,-0.022354779546392242
722,7.22,0.00043913720739925254,-0.09008704351270848,-0.009369381694864284,0.1052119820799296,0.022848373972322457,-0.00963716124039549
723,7.23,0.0011898856315918959,-0.10058503480911586,-0.008137722071023628,0.11294732865449285,0.022047160451058225,0.005987961994104427
724,7.24,0.0018353979538336656,-0.10912846196530132,-0.006511653205473337,0.11891812868021595,0.022612084902744,0.02162605853570767
725,7.25,0.0024109622877009716,-0.11542417053207292,-0.004646035918861983,0.1240661635995883,0.023814006239177725,0.03727020421464061
726,7.26,0.0029587314946084202,-0.11943225793028932,-0.002670897414860128,0.12921419851896065,0.02501592757561145,0.05291434989357356
727,7.27,0.0038542837169801896,-0.12273133784040237,-0.000576617646905728,0.13145828901139028,0.02494751891467426,0.07092774514960222
728,7.28,0.004775808650962587,-0.12409333835596371,0.0014083647415510817,0.13180958718325236,0.024051108573917828,0.09048541837576958
729,7.29,0.005413274366483204,-0.12177954069609292,0.003565560946009024,0.12810955150913111,0.026018455648028082,0.1077824853957039
730,7.3,0.005950363659636388,-0.11733821620741973,0.00531161610229801,0.1225413087020579,0.029306378175282588,0.12403711039534722
731,7.31,0.006606234972636483,-0.11211078984433936,0.0068052621362458925,0.11454707803347912,0.02987450586997145,0.1427445071706911
732,7.32,0.007291374847389817,-0.10559189095492388,0.007951533600992532,0.10404696317618113,0.027633266306220386,0.16398545413760535
733,7.33,0.007836843344803612,-0.09561233611774297,0.00859325328417448,0.09183321812697147,0.028014889939386552,0.1846736038790535
734,7.34,0.008244650291601591,-0.08404209157402254,0.008705442192729592,0.07865220497193934,0.029877003311989107,0.20504972414780426
735,7.35,0.008507425581638464,-0.07045540268639519,0.008384981020608629,0.06258774722524454,0.031734573892502546,0.21801234898863944
736,7.36,0.008653677066275265,-0.05672853067274236,0.007808851791944846,0.045173844182275436,0.03359001845698836,0.2275054753820003
737,7.37,0.008828212750885892,-0.04212981225384099,0.006944117527087931,0.031298979521786036,0.035460237568243215,0.237715746991034
738,7.38,0.008850186760868295,-0.02797179400270316,0.006153364229390578,0.0191593512664171,0.0373377008313416,0.24827764419761825
739,7.39,0.008722381801065607,-0.014055021186856084,0.005487540776482959,0.00556499281716578,0.03780751003737407,0.25678956626057103
740,7.4,0.00842200543645849,-0.0002408851282145047,0.00500701454816101,-0.009484677834447182,0.03686910201208294,0.2632506930258042
741,7.41,0.007531552083724147,0.014109762859064654,0.004465934911789534,-0.024342137739648426,0.035050456748816274,0.26837921371861784
742,7.42,0.006530327415239316,0.02786362517425314,0.004218682076510971,-0.03909477432170225,0.03275176864629515,0.272780989421543
743,7.43,0.005100747424235556,0.04214024449692422,0.004187812245148435,-0.055261877695176084,0.029740276533816976,0.2757439661815768
744,7.44,0.0039316665793924024,0.0550877425813117,0.0044344860481048565,-0.072085172733415,0.026398104300191984,0.2780394632387819
745,7.45,0.0028997288219358673,0.06745267479419556,0.0047706371557846156,-0.08424705490355061,0.022835584456780002,0.27842088012489696
746,7.46,0.002173486356977212,0.07816845368232167,0.005137868929190193,-0.09370983696515398,0.019145476632144456,0.27769398625980624
747,7.47,0.0013481405379469867,0.08619257832552557,0.005702340928348853,-0.1000776830161115,0.0185448885744605,0.2748522447254953
748,7.48,0.0007252512987365079,0.09266960891369348,0.006057803490250275,-0.10456947887365793,0.01981706755829201,0.2707285508777188
749,7.49,0.0004973137488878702,0.09825339792386104,0.005951167187713624,-0.10906127473120436,0.02108924654212352,0.26660485702994224
750,7.5,0.0005881317236783932,0.10670194069255376,0.005954739761282271,-0.11340123984112666,0.020327780941133283,0.25654343649737416
751,7.51,0.0006619082728599327,0.11553662095803871,0.005813864616944426,-0.11756196123808835,0.01716549724545814,0.23947223570500206
752,7.52,0.0006599741559777999,0.11970511481589995,0.0051450466086409834,-0.12142732541680927,0.019434891515800072,0.2175947702280809
753,7.53,0.0003181892757707916,0.1197941610338094,0.00395866291831703,-0.12499685942738024,0.027144661395018987,0.1909033438861712
754,7.54,-0.0021102074762573385,0.1068879412217885,0.0008114076624813667,-0.12444505216451825,0.02993229931772678,0.1748996173565642
755,7.55,-0.004696947396351701,0.09308362004745982,-0.002427811325166989,-0.12190618055268965,0.03034677950299118,0.16404886066383587
756,7.56,-0.00576920846207922,0.0871982968204188,-0.005113858727031314,-0.11467909352615654,0.029728168019612432,0.15105619259876346
757,7.57,-0.006549279894914656,0.08286489477034352,-0.007032772286512808,-0.10528710772823748,0.028632501050011836,0.13707444427857707
758,7.58,-0.008211589736172038,0.07638971073336476,-0.008726901330391737,-0.0910199545252622,0.024087115612956556,0.1197760773049825
759,7.59,-0.009783611004686166,0.0685296346594015,-0.009727013306264552,-0.07401408866322286,0.017603789003414236,0.1006145403647615
760,7.6,-0.011087503337073455,0.058595951865879445,-0.010083391469607246,-0.058140770385533176,0.01242825428632048,0.0807289259426049
761,7.61,-0.011778144453235488,0.04799150105983465,-0.009813623747116402,-0.04286954625170589,0.007947978515265772,0.06045837156949128
762,7.62,-0.01181945356468914,0.03584900204668294,-0.008885180898361033,-0.02825294366547139,0.0048484901369183365,0.045682156421908426
763,7.63,-0.011338140394063922,0.02384301552929715,-0.007740030233622335,-0.013975226205787051,0.002463809133973014,0.03375025620804625
764,7.64,-0.010757275328890823,0.01178279432648929,-0.006486192831322022,0.001134414505864787,-0.0010327238744383864,0.022867988342526825
765,7.65,-0.009935442178087232,-2.849181095507594e-05,-0.005361629865609181,0.01689374060663105,-0.0053975509245183075,0.012805424456968724
766,7.66,-0.008855465377263044,-0.012276616403373408,-0.004317650981299121,0.03205508314470736,-0.009239469029401115,0.0041999429490610545
767,7.67,-0.007503603803701743,-0.023928455290933553,-0.003592294755258507,0.046866733234871484,-0.012775597275682128,-0.0035534571050383507
768,7.68,-0.005536165727479895,-0.03560130434271937,-0.002960286965733649,0.057066000049022035,-0.014707276890993545,-0.0056644271112800786
769,7.69,-0.003595071171754109,-0.0462722958745955,-0.0026847398496784923,0.06488813161211604,-0.01581205397653869,-0.0048673952092381295
770,7.7,-0.002016563783811562,-0.05547454975075189,-0.0028344438077008635,0.07271026317521008,-0.016916831062083845,-0.004070363307196183
771,7.71,-0.000730780397941029,-0.06381093765054247,-0.0031676683323634868,0.08053239473830406,-0.018021608147628997,-0.0032733314051542352
772,7.72,0.0001297105009516724,-0.07743198578611316,-0.0029911494834873823,0.0981836161940452,-0.01837608248284843,0.006466094938565332
773,7.73,0.0007628248535063123,-0.09212876363878122,-0.002564410222777711,0.12641498756745298,-0.01792292196389667,0.02583122161153257
774,7.74,0.0022474079710733787,-0.09502666229604605,-0.0032328413811003307,0.13888377846695876,-0.015680523765651582,0.041719823070129634
775,7.75,0.0035838504578423413,-0.09362107867559788,-0.003909497581292116,0.14320709512490776,-0.012513518746027408,0.05581189466290549
776,7.76,0.004323273759880484,-0.09357789895938332,-0.004324994092717287,0.1435137326004859,-0.011236863882527105,0.07231976887660807
777,7.77,0.0047002329885209694,-0.09447433214362927,-0.004447821501208674,0.13819316166570772,-0.012608514699935036,0.0922120868581636
778,7.78,0.004625368913065153,-0.09182490601949803,-0.004016923772930609,0.1291951278098508,-0.01453956331209423,0.11083616888534356
779,7.79,0.0044903543633382425,-0.08816826191584642,-0.0029070074788825105,0.1184385436879643,-0.01673811404783367,0.12885378479095594
780,7.8,0.0037486392203220347,-0.08429018279765424,-0.001516866230908639,0.10925041324153636,-0.023323355551420327,0.14373507944455566
781,7.81,0.003354975595826411,-0.08039505835205694,0.00025816009705527214,0.100854891403947,-0.032125384787607174,0.15703145306202618
782,7.82,0.0031094467966481347,-0.07581284979526327,0.002239015501308434,0.0915046179739993,-0.03829176289449281,0.1709810093302601
783,7.83,0.0034528049810554906,-0.07087689964779709,0.004287369098539412,0.08163138124342384,-0.0430144682964416,0.1852883451064729
784,7.84,0.004071384058930963,-0.06499506409754861,0.006879051544764803,0.07218114991092615,-0.04699603486939077,0.19768288940511755
785,7.85,0.005135091719978746,-0.05855211257317978,0.009047373163534708,0.06294863629164693,-0.05059614283268517,0.20909293424287512
786,7.86,0.006837533713726094,-0.050493752883109616,0.011312170137765304,0.0488248958314739,-0.050051887817578036,0.22043726706687186
787,7.87,0.008488556873231447,-0.04190772463249255,0.012540899250010847,0.03229639945429818,-0.04747007009709928,0.23174929279102435
788,7.88,0.010111046233694992,-0.029506769797362598,0.014042946118541198,0.011841242739420912,-0.04297343856131131,0.2404666989117253
789,7.89,0.011083107019178478,-0.017709896919734056,0.014074748726348998,-0.01048819962342706,-0.03756282217735315,0.24794563318447954
790,7.9,0.01116597009725928,-0.008264455779190626,0.012115446674903631,-0.03281764198627503,-0.03215220579339498,0.2554245674572337
791,7.91,0.010546259473910233,0.0003281280650277406,0.009130447913301105,-0.055147084349122986,-0.026741589409436814,0.262903501729988
792,7.92,0.00939330313380593,0.008997134406672151,0.005807632217451293,-0.07747652671197096,-0.021330973025478647,0.2703824360027422
793,7.93,0.008626475689416815,0.01951660638617339,0.0014305629828516913,-0.08918226419753446,-0.01812579637856265,0.2751736479257748
794,7.94,0.007506118619963766,0.030579625844794747,-0.002362963945476495,-0.0937937197737172,-0.016393365013020373,0.2781700565985932
795,7.95,0.005645145054944149,0.043164685260368624,-0.004265416539290477,-0.1006340180625404,-0.01340276148658449,0.2779469492640933
796,7.96,0.003268016752955129,0.05480399659463849,-0.004887343893556492,-0.10865296899515256,-0.009746813593151058,0.2760213031940311
797,7.97,0.00047615217202017727,0.06534212315091822,-0.00545333336786205,-0.11528305604939433,-0.006999364054679217,0.26973165768491736
798,7.98,-0.002303718889854114,0.07442850103415244,-0.005499038247121828,-0.12076804624788788,-0.005000957403649711,0.2598439619176256
799,7.99,-0.004842368186953715,0.0821908966259818,-0.005090762070962234,-0.12551168191944398,-0.005801474269241549,0.24660285528293666
800,8.0,-0.00694110311535993,0.08830684024388825,-0.00407056047058354,-0.1296633006666112,-0.008837102720048994,0.2306838450059377
801,8.01,-0.008810111737225443,0.09215960838838981,-0.0023329663371332455,-0.13097557670826113,-0.009543663603628072,0.21328155719213185
802,8.02,-0.01001211084708635,0.09422600145191481,-0.00016097324645187802,-0.1309063797790239,-0.00911702422742739,0.1951575855106332
803,8.03,-0.01029606294411935,0.09530547946733767,0.0021646114275305655,-0.13084824670948708,-0.009436683880841887,0.17706264092214838
804,8.04,-0.010026019953014973,0.09499369587880989,0.004216002665966253,-0.1307957726637148,-0.010138066012523879,0.15898254332319794
805,8.05,-0.009477909853227464,0.09325728996587879,0.006169207282390558,-0.12760424408056234,-0.008903265176820779,0.14170245053178915
806,8.06,-0.008711363430839843,0.09008829464287903,0.007375131241558294,-0.122578616458459,-0.006537183798703829,0.12488978767229005
807,8.07,-0.006999101832644145,0.08373261394741492,0.00810742643076286,-0.11564511855523495,-0.002514292504605205,0.11193232303487682
808,8.08,-0.00545976911003809,0.07662131770200487,0.007763024533806477,-0.107808011002214,0.002293300686040001,0.10080076571927088
809,8.09,-0.004520583175089146,0.07015958603515966,0.0065788761218083264,-0.09835389699122067,0.006119406630006776,0.08798188623596817
810,8.1,-0.0039054274245361844,0.06385787640370608,0.005096261593769579,-0.08553218260104709,0.00790145343754955,0.07164896588800483
811,8.11,-0.0030133284706040883,0.05456861247989485,0.002623837525064756,-0.07182500519675704,0.012263992907446298,0.06033783796510703
812,8.12,-0.002127836502186795,0.043527277231172466,-0.00036202471731407084,-0.057226323088107725,0.019224632254330784,0.05408276715570592
813,8.13,-0.0019496426208081812,0.03209881289340702,-0.0035549154495907436,-0.04157708392371588,0.0237732073940991,0.0497505606626916
814,8.14,-0.0021103945308614067,0.020292410822341338,-0.006604061788301208,-0.02470299125465391,0.025509536134277585,0.0476602382102036
815,8.15,-0.001959570692219925,0.008449548692051879,-0.009777108327106281,-0.009205915425889432,0.029897827115035507,0.04260213644321256
816,8.16,-0.0016617341853066064,-0.0033361046377081774,-0.01253146586913513,0.00491193857164032,0.036942326873187235,0.0345715031130163
817,8.17,-0.0020253195196042965,-0.014851200534298867,-0.014739128248458421,0.018405161258211063,0.03774543367872468,0.027819825318061788
818,8.18,-0.002537773796106265,-0.026080604228808056,-0.01609647169897742,0.031268987327696236,0.03225953200621128,0.0223568601975458
819,8.19,-0.0022305665848859875,-0.03774458088234085,-0.01677194335174999,0.04567743602048999,0.031863154243658515,0.016912124546138184
820,8.2,-0.0016674150236075163,-0.04821910294510453,-0.01606592772930141,0.06079981249691858,0.03381916499980518,0.011475814593202788
821,8.21,-0.0017136639505952545,-0.05848201100875379,-0.014507421890459192,0.07433510298089531,0.030236304814331295,0.009844839055332413
822,8.22,-0.0015112357671867005,-0.06716655150571872,-0.011954113712328853,0.08706872871612606,0.023855664544559008,0.01013600414012281
823,8.23,-0.0005444747479914683,-0.07478601433868357,-0.008566693410027113,0.09527144301443292,0.02166853868654378,0.01127691481382783
824,8.24,0.0007564360655770686,-0.08060140355344822,-0.004865831558711084,0.10140505208990563,0.021396440895660142,0.01280587391014718
825,8.25,0.0018337090796358086,-0.0854939487683338,-0.0007744756612166701,0.1065638275943236,0.019663971682055945,0.0162512116426463
826,8.26,0.00292889787029237,-0.08881576198321722,0.0028748691785006166,0.11113720368155244,0.017054531665307127,0.020847358056794985
827,8.27,0.004224739353269435,-0.08938069216465197,0.006237326219213342,0.11396635775735872,0.01790223440062679,0.02467828783464309
828,8.28,0.00548685187197522,-0.08848389948577692,0.008741619940032155,0.11543281896852314,0.021450868398962545,0.027911383596314798
829,8.29,0.006532879702930219,-0.08721794202614766,0.009782226192872754,0.11689928017968755,0.024999502397298298,0.031144479357986494
830,8.3,0.008187527331458472,-0.0891681903792571,0.010381057841623688,0.11584018844265835,0.0257721272672164,0.04020731315862042
831,8.31,0.009743115266592554,-0.0912400486252048,0.010462770280035864,0.11214719521420356,0.02364964966510752,0.05534998611939778
832,8.32,0.009644029761376446,-0.08580803271892916,0.009848147956893453,0.10728606173318732,0.02336635227867606,0.06935994552331752
833,8.33,0.008546164759471543,-0.07613050119384683,0.008729619185255248,0.10124504789656884,0.02494071933119519,0.08222580731453184
834,8.34,0.0067052040415078494,-0.06436878398865621,0.006899227760922599,0.09176753794563744,0.025985556628480226,0.09146151229348147
835,8.35,0.0048348090778963584,-0.052860779437373134,0.004799982037884842,0.08063843391903827,0.026775899761493742,0.09895254907393966
836,8.36,0.003512145980255276,-0.042536952108256046,0.0027285901892795347,0.06827929719047159,0.028176041686453983,0.10353531093194372
837,8.37,0.002500820465212169,-0.03286731040936921,0.0009416186790986319,0.05468766523200548,0.03018720322176327,0.1052039754952765
838,8.38,0.001090941516497007,-0.021717451331027024,-0.0007834883007590415,0.040289915817239834,0.029956985486829717,0.10573725047893028
839,8.39,-0.00018719571882361524,-0.011217857650401748,-0.0018802135513022542,0.02552421241062408,0.028703685515813857,0.10575227452423364
840,8.4,-0.0008971499207962679,-0.0006367407173831531,-0.0027832841762239213,0.008611221332384697,0.02794246813220395,0.10869653030319457
841,8.41,-0.0013981483464947527,0.008933599168131415,-0.0029150127047005685,-0.00946105378908112,0.027446917756823987,0.1132222284071021
842,8.42,-0.00252039253095885,0.01811033902546408,-0.002420477883107405,-0.02247780308883507,0.023867348296165842,0.11607071092048815
843,8.43,-0.003420178948507775,0.026307749177922522,-0.001242774936343059,-0.032956918369940615,0.01873974762748732,0.11807731081093595
844,8.44,-0.0037159530433500607,0.03450378598197153,0.0005503445163714373,-0.04365227819778245,0.016980250207087544,0.12243415708798115
845,8.45,-0.003638825886928998,0.04190787337520442,0.0025163690834568665,-0.05445443582537186,0.01688417515579586,0.1279517315625302
846,8.46,-0.003741426475299723,0.04954573996557709,0.00470921026273069,-0.06413643459102908,0.015884510536517744,0.13063206492776674
847,8.47,-0.003632769980631243,0.05622867790346552,0.006481454375977002,-0.07329444300104591,0.014462162818285752,0.13198518745851348
848,8.48,-0.0037558493346746694,0.06256838565033773,0.007922105701138889,-0.08098822350179394,0.01125468147051477,0.12638798865778772
849,8.49,-0.0035677072257469843,0.06776738637972475,0.008619181439942036,-0.08797346457352792,0.0071833745156913075,0.11742753153061415
850,8.5,-0.0030967758304262663,0.07231032609803999,0.008711419449679639,-0.09407144515955852,0.005194836978995203,0.10735143027476887
851,8.51,-0.0023915797804224103,0.0757023904462193,0.008118200540511272,-0.09967466055262676,0.004367719148980707,0.09665320970729673
852,8.52,-0.0017390245703988655,0.07875159062924343,0.0069805602793395725,-0.10219998095209254,0.004594202746687261,0.08220778696300371
853,8.53,-0.0011690732309671517,0.08095091993707601,0.005467015408049629,-0.1016226843098145,0.005882750434184914,0.06398506403243745
854,8.54,-0.00024142561480250814,0.0802731085080953,0.003401792365812335,-0.09919965207337404,0.00872729249844649,0.04609098402506494
855,8.55,0.0005683351241224769,0.07806943636930978,0.0012518362917363947,-0.09574154445222534,0.01244442513484991,0.028381204629996944
856,8.56,0.0007607768950804396,0.07566785749586855,-0.0007938223396772976,-0.09007277839360303,0.012214762635625587,0.010453159779490993
857,8.57,0.0005701912703997922,0.07265999561707778,-0.0026198305361532217,-0.08218715537595196,0.008027238481266458,-0.007693762526528251
858,8.58,0.0007466711143486616,0.06715473768311478,-0.004474394580190139,-0.0717344651457153,0.009459128100789927,-0.0246783116811668
859,8.59,0.0007704274012486283,0.06083532457847229,-0.005847354195475435,-0.06010567033951714,0.013465558122404252,-0.041130318339211866
860,8.6,0.0004168907678703431,0.05343648728209445,-0.006864343869928641,-0.047969772534143404,0.01294496639710137,-0.052873994686491135
861,8.61,-0.0001398588081726604,0.045966918890257474,-0.007346558167483754,-0.0355951283395417,0.01029303232558845,-0.06240096779435854
862,8.62,-0.0008476320832860225,0.03782379848047706,-0.007546758389482858,-0.02292368528342239,0.010101323557088343,-0.07400330451772016
863,8.63,-0.0015326503309591438,0.02967581696029168,-0.007376008943687326,-0.010084712456909544,0.011298302663004729,-0.08677709179250594
864,8.64,-0.0023848456434882453,0.020536659411862765,-0.007058950393358114,0.005230812960470017,0.008705810812774556,-0.09423017831622132
865,8.65,-0.003002951550084517,0.01158634649774426,-0.00650020751325231,0.02187051106455609,0.004087150022824519,-0.09883837205038336
866,8.66,-0.0035067192547331566,0.0022642482025932546,-0.005843096486919495,0.03837176939921437,8.101645588668295e-05,-0.10628040337714276
867,8.67,-0.003778820764635448,-0.007231404600673463,-0.00515836301895627,0.054726846266812366,-0.0032783367209626127,-0.11671474347766445
868,8.68,-0.003338729812594525,-0.018831453497936173,-0.004094892395145354,0.06356841481337948,-0.006754749258426394,-0.11477930051312472
869,8.69,-0.0025309923174741122,-0.028949622144567127,-0.0030994371658820403,0.06859943995372668,-0.010290529504777551,-0.10657041067384017
870,8.7,-0.0015846128365757549,-0.03602886921159114,-0.0023975411403610574,0.0736304650940739,-0.013826309751128713,-0.09836152083455564
871,8.71,-0.0006089276427191656,-0.041593056819936705,-0.0019459332720002708,0.0786614902344211,-0.01736208999747987,-0.0901526309952711
872,8.72,0.0003220362154282015,-0.046591599544584195,-0.001692812108690255,0.08369251537476831,-0.02089787024383103,-0.08194374115598657
873,8.73,0.0015115492049913514,-0.050373832742446084,-0.0009751130576909387,0.08628313778045389,-0.023450134147893285,-0.07338763188925572
874,8.74,0.0026530170446430927,-0.05406076953516385,-0.00022488606162214585,0.08641965282320459,-0.025013358553312024,-0.06448235330659713
875,8.75,0.0029058833905285467,-0.06137946149005349,-0.00021177431464555708,0.08713411909051913,-0.025513956725853656,-0.0515121905435616
876,8.76,0.002712898244260121,-0.06985900334178936,-0.0006202590693061083,0.08842492058137014,-0.024954899859298947,-0.034488509363785086
877,8.77,0.0024812960018965125,-0.07589410349142661,-0.000932265125841247,0.08748961301973793,-0.024347534111474257,-0.02231077762783277
878,8.78,0.002330411986924543,-0.07987991543547805,-0.001248988916613076,0.08466789085922513,-0.023699231205255817,-0.014239524757356459
879,8.79,0.002998484547392033,-0.0821580510713379,-0.0014401567876989514,0.08002942793118241,-0.019841957465918728,-0.006978684735529897
880,8.8,0.003821807337160775,-0.08279756229983415,-0.0016045374937931672,0.07384523905304992,-0.013254415557074621,-0.00040736310445715386
881,8.81,0.0039378790919268394,-0.08076011828848724,-0.0017632062726275982,0.06336126456591154,-0.01350344788797363,0.008052451405006263
882,8.82,0.003688156046568256,-0.07746880700582037,-0.0019788867196918226,0.05074508524797969,-0.0171426438097101,0.017448743684382182
883,8.83,0.0035604047767904172,-0.07199126579608552,-0.0024133621322739466,0.03527662348693922,-0.01625622723940013,0.02340302125383268
884,8.84,0.0032699002021027226,-0.06618184362981093,-0.002598894835287297,0.0185013854884757,-0.013296396488569612,0.02778033612007733
885,8.85,0.002490070472748963,-0.05927578201234539,-0.0027061112506255904,0.0031799557089851,-0.01472627474505144,0.029330491141225323
886,8.86,0.0016703500105382121,-0.05230945435887159,-0.002294548156034009,-0.011355207992139557,-0.018530248319817758,0.029351627509632293
887,8.87,0.0011339285279345463,-0.0445155999626035,-0.0016592382675046499,-0.027816641421156463,-0.019532035009342467,0.03187321327639061
888,8.88,0.0007901169974004745,-0.035974580199861536,-0.0007054357117757043,-0.04636653986153133,-0.017495685772017072,0.037105790658451904
889,8.89,-1.869091009312285e-05,-0.027259348693811688,0.0005471382620453463,-0.056692176998853885,-0.019891080099695764,0.037151224366466236
890,8.9,-0.0006980763219456141,-0.01855847282588109,0.0023198742372299947,-0.06176188972696465,-0.025118693434086625,0.033881681319012764
891,8.91,-0.0010326428045875995,-0.009529163321205791,0.0045211925383844016,-0.06582129312010378,-0.028646232037274337,0.032545971657771615
892,8.92,-0.0010926844628304981,-2.7720811845270005e-05,0.006826122888537582,-0.06887200238104495,-0.030476413854472664,0.03314100372265294
893,8.93,-0.0010868975208718653,0.00940490325410381,0.009607837647567247,-0.0711431711308312,-0.032413612391276256,0.031292161530621865
894,8.94,-0.000799308909461645,0.019038498085587885,0.011969121771463748,-0.07305785516420761,-0.03439974978936247,0.028325733005423917
895,8.95,-0.000384341357939372,0.02957953833864349,0.013785271825986985,-0.0755453965297284,-0.03434550717670424,0.021064261352967826
896,8.96,5.088417784288339e-05,0.04043017206947426,0.014836511075645108,-0.07860625369664696,-0.032249251596110085,0.009504309163787996
