,ts,ax,ay,az,wx,wy,wz
0,0.0,-0.027833999999999998,0.014658999999999997,0.061163,-0.008179,-0.049957,0.022964
1,0.01,0.005979000000000001,0.00475600000000001,0.03827,0.013123,-0.046752999999999996,0.026154000000000004
2,0.02,0.051092,0.029671,-0.043137,0.030167000000000003,-0.035033999999999996,0.026154000000000004
3,0.03,0.03965,0.027692,-0.129544,0.03656,-0.016937,0.01976
4,0.04,0.085509,0.043988,-0.15118499999999999,0.030167000000000003,0.0054470000000000005,0.014435
5,0.05,0.040671,0.037818,-0.173362,0.018448,0.009705,0.010178
6,0.06,0.048906,0.010422,-0.151783,-0.0007170000000000006,0.007568000000000001,0.004852
7,0.07,0.0037379999999999983,0.046158,-0.157309,-0.019897,0.0065,0.008041
8,0.08,-0.007238,-0.024051,-0.080606,-0.039077999999999995,0.0065,0.009109
9,0.09,-0.020600999999999998,-0.048123,-0.052223,-0.050797,-0.010544,0.002716
10,0.1,-0.05256,-0.026914999999999998,-0.015631,-0.056122000000000005,-0.029708999999999996,-0.0026089999999999998
11,0.11,-0.054978,-0.012806,0.032868,-0.055054,-0.041428,-0.01326
12,0.12,-0.06301,-0.010046,0.059512,-0.045471,-0.040359,-0.022841999999999998
13,0.13,-0.11198399999999999,0.023027000000000002,0.125565,-0.027358999999999998,-0.032913,-0.027114999999999997
14,0.14,-0.157281,0.029981999999999998,0.12576700000000002,0.0003359999999999995,-0.025452000000000002,-0.023911
15,0.15,-0.168986,0.01929,0.123365,0.033371,-0.004150000000000001,-0.014328
16,0.16,-0.172511,0.076997,0.074489,0.057861,0.021422999999999998,0.0016479999999999993
17,0.17,-0.166113,0.08592000000000001,0.06264700000000001,0.070648,0.044861,0.017624
18,0.18,-0.15452,0.073382,-0.040114,0.073853,0.05658,0.026154000000000004
19,0.19,-0.160347,0.007636000000000005,-0.094011,0.062134,0.058700999999999996,0.030411
20,0.2,-0.11730299999999999,0.089797,-0.151814,0.046143,0.051239,0.02829
21,0.21,-0.145982,0.036149,-0.132219,0.024841,0.02887,0.018692
22,0.22,-0.16341,0.022854,-0.131187,-0.001785,0.016097999999999998,0.015503
23,0.23,-0.152023,0.043448,-0.1346,-0.029480000000000003,0.003311,0.020828
24,0.24,-0.167639,0.10800699999999999,-0.06826900000000001,-0.042267,-0.020125999999999998,0.026154000000000004
25,0.25,-0.12999000000000002,0.074135,-0.03785,-0.050797,-0.016937,0.036804
26,0.26,-0.12166500000000001,0.033665,0.021451,-0.047592,-0.002014,0.051712
27,0.27,-0.030317,0.010085,0.0303,-0.031616000000000005,0.015029999999999996,0.057053
28,0.28,-0.002651000000000001,-0.014638,0.043087,-0.014572,0.036331,0.054916
29,0.29,0.064256,-0.025907999999999997,0.077771,0.00354,0.069351,0.051712
30,0.3,0.069285,-0.035611000000000004,0.078474,0.01738,0.09704600000000001,0.045334
31,0.31,0.067222,-0.056101,0.087673,0.028045999999999998,0.111969,0.037872
32,0.32,0.041027999999999995,-0.032096,0.06728200000000001,0.039764,0.111969,0.032547
33,0.33,0.053842999999999995,-0.017684000000000002,-0.016434,0.04509,0.099182,0.029343
34,0.34,0.07216,0.004888,-0.046113,0.040817,0.08320599999999999,0.025085
35,0.35,0.10903499999999999,0.053263,-0.03949,0.031235000000000002,0.069351,0.022964
36,0.36,0.121395,0.10583,-0.06940299999999999,0.019516,0.055511000000000005,0.018692
37,0.37,0.133552,0.07182100000000001,-0.058437,0.011002,0.045913999999999996,0.015503
38,0.38,0.129462,0.050845,-0.03829,0.001404,0.038467,0.011245999999999999
39,0.39,0.127331,0.097147,0.016024000000000004,0.00033599999999999993,0.053375,0.008041
40,0.4,0.14639000000000002,0.040205,0.06085599999999999,-0.003922,0.085327,0.015503
41,0.41,0.125655,0.052524,0.16583299999999998,0.004608,0.110901,0.014435
42,0.42,0.069576,0.041134,0.197605,0.013123,0.118362,0.010178
43,0.43,0.034229,0.022425,0.24357399999999998,0.019516,0.115158,0.004852
44,0.44,0.030664999999999998,0.025232,0.23680199999999998,0.037627999999999995,0.090668,0.006973
45,0.45,0.027437,0.040175,0.18074300000000001,0.050414999999999995,0.058700999999999996,0.00592
46,0.46,0.031918,0.048376,0.142065,0.05574,0.035263,0.015503
47,0.47,0.055248,0.013154,0.045533,0.054672000000000005,0.025681,0.026154000000000004
48,0.48,0.088573,-0.012608,-0.050692,0.050414999999999995,0.020355,0.031479
49,0.49,0.155711,0.029172000000000007,-0.073977,0.041885000000000006,0.032074,0.034668
50,0.5,0.10723599999999998,-0.061963,-0.049033999999999994,0.032303,0.051239,0.032547
51,0.51,0.098753,-0.081376,-0.043977999999999996,0.024841,0.052307000000000006,0.02829
52,0.52,0.08766900000000001,-0.090284,-0.039355,0.022719999999999997,0.051239,0.01976
53,0.53,0.09880900000000001,-0.021911,0.042241,0.021652,0.054443,0.008041
54,0.54,0.040063,-0.023765,0.09469,0.026978,0.059769,-0.002609
55,0.55,0.028463,-0.009403,0.112701,0.040817,0.066162,-0.001541
56,0.56,-0.019614,0.030669,0.150223,0.053604,0.060837,0.00592
57,0.57,-0.023729,-0.035821000000000006,0.154265,0.062134,0.054443,0.014435
58,0.58,0.01411,-0.032285,0.152096,0.065323,0.045913999999999996,0.021896000000000002
59,0.59,0.018668,-0.071772,0.114883,0.070648,0.027817,0.021896000000000002
60,0.6,0.012802000000000001,-0.091458,0.078556,0.067459,0.008636,0.012299
61,0.61,-0.012416999999999996,-0.13536700000000002,0.049968,0.061065999999999995,-0.008408,0.0037840000000000005
62,0.62,-0.0044100000000000025,-0.115504,-0.030282,0.050414999999999995,-0.029708999999999996,-0.001541
63,0.63,0.011863000000000002,-0.084616,-0.057229999999999996,0.044022000000000006,-0.043564,-0.006866
64,0.64,0.016031,-0.033736,-0.083708,0.03656,-0.053146000000000006,-0.007935
65,0.65,0.002986,-0.007868,-0.10656800000000001,0.028045999999999998,-0.043564,-0.0026089999999999998
66,0.66,0.025723000000000003,-0.0031299999999999995,-0.094343,0.016327,-0.024384000000000003,0.006973
67,0.67,0.030781,-0.010361,-0.079472,0.012054,-0.009476,0.012299
68,0.68,0.025812,-0.019296999999999998,-0.075714,0.014191,-0.009476,0.012299
69,0.69,0.031619,-0.061780999999999996,-0.081765,0.015259,-0.015869,0.0037840000000000005
70,0.7,0.029334,-0.056430999999999995,-0.082839,0.013123,-0.012665000000000001,-0.0026089999999999998
71,0.71,0.010299,-0.061728,-0.062823,0.014191,-0.006271,-0.005797999999999999
72,0.72,-0.024687,-0.046926999999999996,-0.066264,0.011002,-0.005219,-0.009003
73,0.73,-0.010286000000000005,-0.022392,-0.036844,0.020584,-0.005219,-0.007935
74,0.74,-0.03545,-0.016372,-0.052808,0.023773,0.004379,-0.003677
75,0.75,-0.050495,-0.0037360000000000006,-0.06985,0.028045999999999998,0.010773,0.0037840000000000005
76,0.76,-0.011199000000000002,-0.043332,-0.09779700000000001,0.028045999999999998,0.009705,0.010178
77,0.77,-0.050031999999999986,-0.043107,-0.085458,0.028045999999999998,0.010773,0.006973
78,0.78,-0.024853,-0.06706000000000001,-0.09490599999999999,0.023773,0.018219,0.0037840000000000005
79,0.79,-0.057111,-0.059739999999999994,-0.061483,0.023773,0.023544,-0.0004730000000000001
80,0.8,-0.053087,-0.003963,-0.02852,0.018448,0.031006,-0.0004730000000000001
81,0.81,-0.100637,-0.0027539999999999995,-0.016608,0.008865000000000001,0.024612000000000002,0.001648
82,0.82,-0.07840599999999999,0.004715,0.012881,0.001404,0.018219,0.011245999999999999
83,0.83,-0.046146,0.033489,0.034757,-0.011382999999999999,0.009705,0.020828
84,0.84,-0.019947,0.036718,0.06654,-0.020966,0.00010700000000000032,0.030411
85,0.85,-0.016045,0.004602000000000002,0.13344,-0.028426999999999997,-0.021194,0.035736000000000004
86,0.86,-0.029233999999999996,0.009319,0.117704,-0.034805,-0.035033999999999996,0.037872
87,0.87,0.024709000000000002,-0.036841000000000006,0.160946,-0.029480000000000003,-0.047820999999999995,0.037872
88,0.88,-0.0026230000000000003,-0.047806,0.176505,-0.016708,-0.054214,0.02829
89,0.89,0.039901999999999986,-0.048563,0.153451,0.004608,-0.057404,0.024017
90,0.9,0.033575,-0.011095999999999998,0.067501,0.029099,-0.048889,0.015503
91,0.91,0.055175999999999996,-0.007389,0.010893,0.046143,-0.02652,0.00592
92,0.92,0.100786,0.033188999999999996,-0.073122,0.059998,-0.007339,-0.0015410000000000005
93,0.93,0.041667,0.059227,-0.10292899999999999,0.057861,0.011826,-0.006866
94,0.94,0.027886,0.019334000000000004,-0.149509,0.049347,0.022491,-0.005797999999999999
95,0.95,0.014329,0.047042,-0.17371,0.037627999999999995,0.011826,-0.007935
96,0.96,-0.038364999999999996,-0.0008400000000000005,-0.171467,0.018448,-0.007339000000000002,-0.0015409999999999998
97,0.97,-0.063438,0.038805,-0.119492,-0.007111,-0.013733,0.005920000000000001
98,0.98,-0.042914999999999995,0.014543,-0.12221800000000001,-0.022034,-0.029708999999999996,0.016571000000000002
99,0.99,-0.039192000000000005,0.017443,-0.08679400000000001,-0.033752,-0.042496,0.024017
100,1.0,0.034699,0.059895000000000004,-0.05600700000000001,-0.034805,-0.0457,0.025085
101,1.01,0.080289,0.090736,-0.034851000000000014,-0.033752,-0.044632,0.01976
102,1.02,0.092347,0.091415,-0.032526,-0.026291000000000002,-0.030777,0.008041
103,1.03,0.066453,0.101651,0.008923999999999998,-0.017761000000000002,-0.009476,-0.0004730000000000003
104,1.04,-0.0022359999999999984,0.063985,0.022831999999999998,-0.008179,0.007568000000000002,-0.001541
105,1.05,-0.036308999999999994,0.053463,0.048841,-0.0007170000000000003,0.022491,0.0005800000000000003
106,1.06,-0.055527999999999994,0.031606999999999996,0.088228,0.007797,0.043793,0.009109
107,1.07,-0.069279,-0.008283000000000002,0.086493,0.005676,0.051239,0.020828
108,1.08,-0.046732,-0.07128999999999999,0.12651600000000002,0.007797,0.040588,0.024017
109,1.09,-0.012957,-0.11439400000000001,0.118395,0.008865000000000001,0.019287000000000002,0.024017
110,1.1,0.003607000000000001,-0.085332,0.13217,0.012054,-0.009476,0.015503
111,1.11,0.030832,-0.08805199999999999,0.082089,0.006728999999999999,-0.031845,0.0037840000000000005
112,1.12,0.020673,-0.019651,0.026567,0.006729000000000001,-0.051025,-0.010071
113,1.13,-0.019549,0.010128000000000002,0.043664,0.0035399999999999997,-0.054214,-0.016464
114,1.14,-0.021883,0.026295,0.01621,0.002472,-0.044632,-0.019653
115,1.15,-0.065211,0.076185,-0.0010539999999999994,0.007797,-0.032913,-0.015396
116,1.16,-0.096015,0.025323,-0.02402,0.006729000000000001,-0.014801,-0.006866
117,1.17,-0.072345,0.026978,-0.025587000000000002,0.0035399999999999997,0.0054470000000000005,0.008041
118,1.18,-0.077855,0.031249000000000002,-0.026452,-0.001785,0.008636,0.024017
119,1.19,-0.079764,-0.052939,-0.002599999999999998,-0.003922,-0.010544,0.030411
120,1.2,-0.017974000000000004,-0.028791000000000004,-0.006217,-0.002853,-0.036101999999999995,0.037872
121,1.21,0.021022,-0.034115,-0.047195999999999995,0.0014039999999999999,-0.056351,0.040008999999999996
122,1.22,0.085926,-0.034827,-0.082508,0.006729000000000001,-0.055283000000000006,0.032547
123,1.23,0.123954,-0.046127999999999995,-0.109641,0.007797,-0.042496,0.022964
124,1.24,0.092449,-0.0035700000000000007,-0.12233,0.0035399999999999997,-0.010543999999999998,0.012299
125,1.25,0.066751,-0.009588,-0.103496,-0.008179,0.020355,0.008041
126,1.26,0.037161,0.010622,-0.063984,-0.019897,0.038467,0.008041
127,1.27,-0.04725300000000002,0.014710999999999997,-0.009472,-0.029480000000000003,0.044861,0.014435
128,1.28,-0.041231,-0.043144,0.007698999999999999,-0.041199,0.032074,0.026154000000000004
129,1.29,-0.036163,-0.060723,0.048341,-0.047592,0.004379000000000001,0.032547
130,1.3,-0.036638,-0.11787,0.10998599999999999,-0.052917,-0.020125999999999998,0.031479
131,1.31,0.021456,-0.088849,0.081599,-0.050797,-0.044632,0.02829
132,1.32,0.028486,-0.067843,0.090659,-0.03801,-0.056351,0.015503
133,1.33,-0.012329999999999999,-0.06166900000000001,0.018981,-0.027358999999999998,-0.049957,-0.0015409999999999998
134,1.34,-0.004016,-0.034031,0.00029799999999999965,-0.012436,-0.030777,-0.005797999999999999
135,1.35,-0.041081,0.0036959999999999975,-0.021079,-0.00499,0.0022429999999999998,-0.006866
136,1.36,-0.048414,0.024506,-0.015386999999999996,-0.002853,0.034194999999999996,-0.003677
137,1.37,-0.075097,0.02563,-0.035491,-0.013503999999999999,0.061904999999999995,0.008041
138,1.38,-0.044104000000000004,0.0007360000000000001,0.042171,-0.023087,0.071487,0.017624
139,1.39,-0.035955,0.039243,0.057709,-0.028426999999999997,0.057632,0.018692
140,1.4,-0.025269,0.018246000000000002,0.100711,-0.028426999999999997,0.026749000000000002,0.012299
141,1.41,-0.020321000000000002,-0.009301,0.12088099999999999,-0.023087,-0.0009460000000000024,0.010178
142,1.42,-0.0026000000000000016,0.031862,0.095277,-0.016708,-0.008408,0.006973
143,1.43,-0.013615,0.037276,0.066902,-0.010315000000000001,-0.008408,0.00592
144,1.44,-0.02251,0.034444999999999996,0.047654,-0.002853,0.009705,0.009109
145,1.45,-0.009412,0.037951,0.019693000000000002,0.00033599999999999993,0.033142000000000005,0.017624
146,1.46,0.03364099999999999,0.035005000000000015,-0.010682999999999998,-0.003922,0.055511000000000005,0.016571000000000002
147,1.47,-0.005226000000000002,0.01123,0.039041,-0.00499,0.06828300000000001,0.016571000000000002
148,1.48,0.016418000000000002,0.007195999999999998,0.074382,-0.011382999999999999,0.06828300000000001,0.014435
149,1.49,0.013740000000000002,0.006465,0.156274,-0.008179,0.053375,0.009109
150,1.5,-0.016879999999999996,0.006943,0.17938099999999998,0.0003360000000000004,0.02887,-0.0004729999999999999
151,1.51,-0.053538,0.019986,0.1334,0.012054,-0.005219,0.00058
152,1.52,-0.021841,0.038176999999999996,0.051212,0.023773,-0.022262999999999998,0.006973
153,1.53,-0.03416,0.049127,-0.0022210000000000008,0.020584,-0.014801,0.012299
154,1.54,-3.399999999999931e-05,0.059775999999999996,-0.044081,0.011002,0.0011749999999999998,0.018692
155,1.55,0.017755,0.028651999999999997,-0.043526999999999996,-0.003922,0.012894,0.024017
156,1.56,0.023301,0.022382,-0.062340999999999994,-0.014572,0.021422999999999998,0.027222000000000003
157,1.57,0.020867,-0.016071000000000002,-0.007904000000000001,-0.032684,0.015030000000000002,0.02829
158,1.58,0.014405000000000001,-0.015108000000000002,0.11796099999999997,-0.039077999999999995,0.003311,0.025085
159,1.59,0.024708,-0.032694,0.153308,-0.032684,-0.023314999999999995,0.018692
160,1.6,0.026867000000000002,-0.002815999999999992,0.168547,-0.01564,-0.054214,0.014435
161,1.61,0.077798,-0.031258999999999995,0.159669,0.011002,-0.06274400000000001,0.013366999999999999
162,1.62,0.080809,-0.027429000000000002,0.096113,0.038696,-0.044632,0.010178
163,1.63,0.11676600000000001,-0.026581999999999998,0.033712,0.06425499999999999,-0.014801000000000003,0.008041
164,1.64,0.140744,0.004133,-0.09055099999999999,0.07811,0.023544,0.0016480000000000002
165,1.65,0.11575899999999999,-0.0222,-0.179399,0.075974,0.052307000000000006,0.0037840000000000005
166,1.66,0.13276,-0.06122699999999999,-0.228674,0.061065999999999995,0.060837,-0.0004730000000000001
167,1.67,0.133437,-0.083988,-0.24836599999999998,0.029099,0.038467,0.002716
168,1.68,0.16413599999999998,-0.110549,-0.250639,-0.008179000000000004,0.00010699999999999946,0.004852
169,1.69,0.168777,-0.072895,-0.22315500000000002,-0.049727999999999994,-0.040359,0.0016480000000000002
170,1.7,0.213804,-0.070766,-0.198461,-0.07635499999999999,-0.079788,-0.010071
171,1.71,0.21473499999999998,-0.069164,-0.127459,-0.093399,-0.107483,-0.029236
172,1.72,0.195457,-0.04916,-0.125021,-0.092331,-0.109604,-0.051605
173,1.73,0.119075,0.014934999999999997,-0.057063,-0.07849099999999999,-0.077652,-0.063324
174,1.74,0.077136,-0.011977000000000002,-0.003736000000000003,-0.04866,-0.033981,-0.069717
175,1.75,-0.036549999999999985,-0.035173,-0.032914,-0.01564,0.007568000000000001,-0.06546
176,1.76,-0.039602,-0.05656799999999999,-0.044183,0.012054,0.053375,-0.061203
177,1.77,-0.042213,-0.026922,-0.10129099999999999,0.022719999999999997,0.092789,-0.055878
178,1.78,-0.020995,-0.036198,-0.147621,0.016327,0.10131799999999999,-0.052673000000000005
179,1.79,-0.018452,-0.060601,-0.11267200000000001,0.0003359999999999995,0.091721,-0.061203
180,1.8,-0.088367,0.013754000000000002,-0.10968399999999999,-0.023087,0.060837,-0.071854
181,1.81,-0.144055,0.037674,-0.054974,-0.050797,0.024612000000000002,-0.078247
182,1.82,-0.220032,0.115422,0.034213,-0.07635499999999999,-0.0009460000000000008,-0.070786
183,1.83,-0.273739,0.118755,0.102986,-0.09021,-0.029708999999999996,-0.047348
184,1.84,-0.272739,0.10646900000000001,0.161633,-0.087006,-0.051025,-0.028183
185,1.85,-0.264465,0.083682,0.2047,-0.083817,-0.049957,-0.0015410000000000007
186,1.86,-0.184585,0.044323,0.182061,-0.066772,-0.038238999999999995,0.016571000000000002
187,1.87,-0.11663,0.019926,0.20934699999999998,-0.041199,-0.024384,0.024017
188,1.88,-0.115698,-0.039661,0.217525,-0.025223,0.004378999999999999,0.020828
189,1.89,-0.056095000000000006,-0.015438,0.174845,-0.008179,0.017151,0.018692
190,1.9,-0.054030999999999996,0.009632999999999996,0.11948199999999999,0.0035400000000000006,0.017151,0.012299
191,1.91,-0.052988,0.015171,0.077186,0.006729000000000001,0.010773,0.00592
192,1.92,-0.043814,0.034622,0.043778,0.0003360000000000004,0.0011749999999999998,0.002716
193,1.93,-0.055467999999999996,0.042904000000000005,-0.032189999999999996,-0.011382999999999999,-0.014800999999999996,0.0037840000000000005
194,1.94,-0.020012,0.0462,-0.08136,-0.029480000000000003,-0.032913,0.014435
195,1.95,-0.04166,0.024515000000000002,-0.13302,-0.059311,-0.044632,0.020828
196,1.96,-0.009695,-0.0072879999999999985,-0.197915,-0.09765599999999999,-0.043564,0.026154000000000004
197,1.97,0.039925,0.009430999999999998,-0.105279,-0.13281199999999999,-0.035033999999999996,0.027222000000000003
198,1.98,0.017285,0.008056,0.0020939999999999986,-0.158386,-0.039307,0.02829
199,1.99,-0.061121,-0.04858,0.184099,-0.15625,-0.057404,0.020828
200,2.0,-0.044147000000000006,-0.040282,0.281814,-0.127487,-0.08830299999999999,0.013366999999999999
201,2.01,-0.047583,-0.032142000000000004,0.31808800000000004,-0.08167999999999999,-0.101089,0.008041
202,2.02,-0.061528,-0.022039,0.237511,-0.023087,-0.096832,0.00592
203,2.03,0.013932999999999994,-0.0029990000000000017,0.175189,0.031235000000000002,-0.068069,0.0037840000000000005
204,2.04,0.015252000000000002,0.0019920000000000007,0.040787,0.070648,-0.009475999999999998,0.006973
205,2.05,0.052648,0.007176999999999999,-0.097126,0.095154,0.049118,0.014435
206,2.06,0.042969,-0.016934,-0.135736,0.094086,0.10450699999999999,0.01976
207,2.07,0.040522,-0.034791,-0.203599,0.079178,0.12475599999999999,0.025085
208,2.08,0.041246,-0.061077,-0.185809,0.052536,0.12048299999999999,0.027222000000000003
209,2.09,0.043343,-0.065981,-0.164461,0.019516,0.080002,0.020828
210,2.1,0.049101,-0.05443099999999999,-0.153375,-0.011382999999999999,0.029938,0.014435
211,2.11,0.072193,-0.081743,-0.038394,-0.031616000000000005,-0.009476,0.0005799999999999988
212,2.12,0.054982,-0.06416799999999999,0.008702000000000003,-0.039077999999999995,-0.030777,-0.011139
213,2.13,0.058073,-0.017327000000000002,0.033993,-0.029480000000000003,-0.039307,-0.015396
214,2.14,0.003634000000000005,0.012853,0.07900700000000001,-0.007110999999999998,-0.023315,-0.016464
215,2.15,0.038388999999999986,0.01435,0.028758999999999996,0.013123,0.015030000000000002,-0.007935
216,2.16,0.040186,0.042005,0.0020369999999999967,0.031235000000000002,0.05658,-0.005797999999999999
217,2.17,0.01223,0.026607,-0.03885,0.034424,0.07788099999999999,-0.003677
218,2.18,0.022516,0.031604,-0.035194,0.020584,0.091721,0.00058
219,2.19,0.015597,0.066389,-0.007502000000000002,-0.00499,0.087463,0.001648
220,2.2,-0.02743,0.025013999999999998,0.007893,-0.031616000000000005,0.042725,-0.0026089999999999998
221,2.21,-0.045862,0.044772,0.026405,-0.050797,-0.022263,-0.0026089999999999998
222,2.22,-0.03609,0.033638999999999995,0.045536,-0.068893,-0.073395,-0.0015410000000000005
223,2.23,-0.048889999999999996,0.036812,0.129497,-0.077423,-0.09256,-0.0004730000000000001
224,2.24,-0.029307999999999997,0.043809,0.136641,-0.065704,-0.094696,-0.003677
225,2.25,-0.013378,0.077474,0.14919200000000002,-0.03801,-0.07019,-0.0026089999999999998
226,2.26,0.001947,0.06827799999999999,0.183542,-0.007110999999999998,-0.019058000000000002,-0.0015410000000000005
227,2.27,0.022634,0.02877,0.163135,0.024841,0.046981999999999996,-0.004745
228,2.28,0.008338,0.021822,0.167997,0.050414999999999995,0.10025,-0.0026089999999999998
229,2.29,-0.025816000000000002,0.007123000000000002,0.135606,0.06639099999999999,0.116226,-0.005797999999999999
230,2.3,-0.055931,-0.004632000000000001,0.079989,0.075974,0.09811399999999999,-0.009003
231,2.31,-0.08716900000000001,-0.02011,0.051223000000000005,0.06425499999999999,0.054442999999999984,-0.006866
232,2.32,-0.10899,-0.005386999999999999,0.004611,0.040817,0.006500000000000002,-0.006866
233,2.33,-0.078968,0.02827,-0.024715,0.014191,-0.044631999999999984,-0.0026089999999999998
234,2.34,-0.000677000000000004,0.0050479999999999995,-0.046373000000000004,-0.009246999999999998,-0.08616599999999999,-0.001541
235,2.35,0.032809,0.009604,-0.037242000000000004,-0.023087,-0.093628,-0.0026089999999999998
236,2.36,0.050694,0.020602000000000002,0.007947000000000003,-0.027358999999999998,-0.07872,-0.005798000000000001
237,2.37,0.084106,0.004083,-0.00575,-0.017761000000000002,-0.0457,-0.009003
238,2.38,0.072521,-0.0006139999999999965,0.051702,0.0003359999999999995,0.003311000000000001,-0.015396
239,2.39,0.048826999999999995,-0.002865,0.068337,0.021652,0.041656,-0.022841999999999998
240,2.4,-0.054939999999999996,-0.055879,0.082721,0.04509,0.06723,-0.028183
241,2.41,-0.12101500000000001,-0.00034300000000000297,0.091815,0.065323,0.072556,-0.02179
242,2.42,-0.128796,-0.052761,0.037360000000000004,0.084503,0.052307000000000006,-0.01326
243,2.43,-0.087736,-0.052490999999999996,-0.039612,0.090897,0.027817,-0.005797999999999999
244,2.44,-0.066675,-0.026063,-0.10558599999999999,0.086624,0.008636,-0.0015409999999999998
245,2.45,-0.044239,-0.020849,-0.15316400000000002,0.077042,-0.010544,0.002716
246,2.46,-0.004088000000000007,-0.014811000000000001,-0.271784,0.06318700000000001,-0.024384,0.010178
247,2.47,-0.032194,-0.025689,-0.25721900000000003,0.038696,-0.013733,0.015503
248,2.48,0.009068000000000001,-0.021800999999999997,-0.286774,0.015259,-0.002014,0.026154000000000004
249,2.49,0.031537,-0.021904,-0.30230999999999997,-0.009247,-0.005219,0.035736000000000004
250,2.5,0.072242,-0.07169099999999999,-0.257184,-0.031616000000000005,-0.003082,0.041061
251,2.51,0.062046000000000004,-0.069235,-0.201372,-0.047592,-0.002014,0.040008999999999996
252,2.52,0.110805,-0.050049,-0.14840799999999998,-0.058242999999999996,-0.003082,0.034668
253,2.53,0.153975,-0.081149,-0.083071,-0.062515,-0.005219,0.025085
254,2.54,0.138648,-0.077861,-0.031893,-0.051849,-0.004150000000000001,0.015503
255,2.55,0.090911,-0.056939,0.027533999999999996,-0.042267,0.013962,0.002716
256,2.56,0.08347,-0.048045,0.073982,-0.027358999999999998,0.032074,-0.001541
257,2.57,0.053075,-0.028619,0.055408000000000006,-0.017761000000000002,0.043793,-0.005797999999999999
258,2.58,0.048075,-0.024137,0.111483,-0.01564,0.053375,-0.010071
259,2.59,-0.006920999999999999,-0.014653999999999999,0.083039,-0.014572,0.049118,-0.012192
260,2.6,-0.036958,-0.014946,0.108672,-0.016708,0.031006,-0.015396
261,2.61,-0.08734600000000001,0.001935,0.081606,-0.022034,0.007568000000000001,-0.01326
262,2.62,-0.065838,0.020374,0.0775,-0.022034,-0.009476,-0.011139
263,2.63,-0.078966,0.067201,0.07409,-0.024155000000000003,-0.021194,-0.005797999999999999
264,2.64,-0.06324400000000001,0.081096,0.049219,-0.026291000000000002,-0.022262999999999998,0.0027160000000000005
265,2.65,-0.053765999999999994,0.083553,0.069107,-0.030548000000000002,-0.010544,0.010178
266,2.66,-0.063577,0.088322,0.149095,-0.030548000000000002,0.011826,0.017624
267,2.67,-0.06597599999999999,0.056251999999999996,0.17002799999999998,-0.018829,0.009705,0.029343
268,2.68,-0.059102999999999996,0.040382,0.13229000000000002,-0.001785,-0.002013999999999999,0.035736000000000004
269,2.69,-0.026304,0.050466000000000004,0.11368699999999998,0.0014039999999999999,-0.003082,0.038939999999999995
270,2.7,0.018949,0.046707,0.040353,-0.000717,-0.009476,0.036804
271,2.71,0.036663999999999995,0.039602,-0.0030519999999999987,-0.012436,-0.025452000000000002,0.033615
272,2.72,0.050234,0.032175999999999996,-0.029238999999999998,-0.034805,-0.046752999999999996,0.02829
273,2.73,0.026688999999999997,-0.0028979999999999982,-0.091869,-0.057175,-0.072327,0.021896000000000002
274,2.74,0.055577,0.034751,-0.10373099999999999,-0.080612,-0.094696,0.01976
275,2.75,0.067057,0.02937,-0.055077,-0.09979199999999999,-0.10641500000000001,0.01976
276,2.76,0.040099,0.043452,-0.040532,-0.105118,-0.102158,0.018692
277,2.77,0.026831999999999998,0.004011999999999997,0.010324,-0.098724,-0.09149199999999999,0.022964
278,2.78,0.009916999999999995,0.017972,0.028941,-0.08167999999999999,-0.074448,0.024017
279,2.79,0.093875,0.0039109999999999995,0.049272,-0.04866,-0.056351,0.012299
280,2.8,0.085643,-0.004076,0.062419,-0.013504000000000002,-0.024384,0.0005800000000000008
281,2.81,0.09664600000000001,-0.015856,0.033537,0.022719999999999997,0.009705,-0.012192
282,2.82,0.066121,0.0034059999999999997,-0.007098,0.049347,0.051239,-0.022841999999999998
283,2.83,0.042654000000000004,0.021398,-0.018009999999999998,0.067459,0.088531,-0.028183
284,2.84,-0.024023,0.012537000000000001,-0.056105999999999996,0.073853,0.09811399999999999,-0.028183
285,2.85,-0.029223000000000002,0.026443,-0.092053,0.065323,0.0896,-0.023911
286,2.86,-0.057478999999999995,0.016114,-0.08408,0.04509,0.065094,-0.020721
287,2.87,-0.061003999999999996,0.014487,-0.08992699999999999,0.01738,0.034194999999999996,-0.015396
288,2.88,-0.12241800000000001,0.001615,-0.08810599999999999,-0.012436,-0.002014,-0.011139
289,2.89,-0.123901,-0.014721000000000001,-0.035128,-0.036942,-0.028656,-0.002609000000000001
290,2.9,-0.10763299999999999,-0.013087,-0.00506199999999999,-0.04866,-0.046752999999999996,0.004852
291,2.91,-0.050745,-0.014487,0.052708000000000005,-0.044403,-0.059539999999999996,0.011245999999999999
292,2.92,-0.034970999999999995,-0.052881,0.017833,-0.039077999999999995,-0.043564,0.011245999999999999
293,2.93,-0.009111,-0.061728,0.03802,-0.029480000000000003,-0.014801,0.012299
294,2.94,0.016922,-0.072851,0.075013,-0.019897,0.015030000000000002,0.008041
295,2.95,-0.01457,-0.045524,0.112829,-0.0060420000000000005,0.032074,-0.0026089999999999998
296,2.96,-0.047216,-0.047807999999999996,0.120531,0.012054,0.041656,-0.007935
297,2.97,-0.079917,-0.041727,0.085351,0.030167000000000003,0.036331,-0.006866
298,2.98,-0.119154,-0.05134299999999999,0.041223,0.042953,0.021422999999999998,0.002716
299,2.99,-0.082618,-0.043505,-0.067996,0.04509,0.003311,0.014435
300,3.0,-0.0027809999999999988,-0.018654,-0.187494,0.029099,-0.006271,0.022964
301,3.01,0.030145,0.009418,-0.225598,0.0035400000000000006,-0.00415,0.024017
302,3.02,0.034825,-0.033206,-0.204131,-0.024155000000000003,0.00010700000000000012,0.026154000000000004
303,3.03,0.049710000000000004,-0.026804,-0.179234,-0.055054,0.0065,0.02829
304,3.04,0.062682,-0.016281999999999998,-0.099584,-0.077423,0.009705,0.030411
305,3.05,0.071233,-0.031301999999999996,0.032962000000000005,-0.088074,0.004379,0.030411
306,3.06,0.081786,-0.032723,0.113299,-0.085938,0.0022429999999999998,0.026154000000000004
307,3.07,0.10861300000000002,-0.010923,0.222642,-0.068893,-0.0009460000000000001,0.017624
308,3.08,0.080234,-0.0003520000000000016,0.226361,-0.039077999999999995,0.0022429999999999998,0.00592
309,3.09,0.041514999999999996,-0.009354000000000001,0.22378,-0.008179,0.008636,-0.0026089999999999998
310,3.1,0.059198,0.018682,0.172645,0.023773,0.022491,-0.007935
311,3.11,0.048223,0.018636,0.091063,0.046143,0.037399,-0.009003
312,3.12,0.032125,0.0065769999999999995,0.018427000000000002,0.053604,0.054443,-0.012192
313,3.13,0.045043,0.021725,-0.021632,0.039764,0.075745,-0.014328
314,3.14,0.023913999999999998,0.047045,-0.029068,0.021652,0.072556,-0.016464
315,3.15,0.021346,0.028169,-0.052808,-0.002852999999999998,0.043793,-0.018585
316,3.16,-0.039618,0.07202899999999998,0.003892,-0.022034,0.009705000000000002,-0.020721
317,3.17,-0.014625,0.089067,0.091087,-0.040131,0.00010699999999999988,-0.017516999999999998
318,3.18,-0.05501,0.089626,0.13414600000000002,-0.04866,-0.006271,-0.012192
319,3.19,-0.096205,0.074002,0.23037,-0.041199,-0.010544,-0.005797999999999999
320,3.2,-0.071824,0.037870999999999995,0.27270300000000003,-0.019897,-0.014801,-0.0004729999999999999
321,3.21,-0.060907,0.021119,0.220492,0.009932999999999999,-0.012665000000000001,0.0037840000000000005
322,3.22,-0.062711,-0.009755,0.168721,0.039764,-0.0030820000000000005,0.010178
323,3.23,-0.004039000000000001,-0.007639000000000002,0.13736800000000002,0.062134,0.018219,0.006973
324,3.24,0.010726000000000001,0.023769,0.093861,0.074905,0.036331,0.004852
325,3.25,0.021836,0.015097,0.016416999999999998,0.084503,0.046981999999999996,-0.0004730000000000001
326,3.26,0.008763999999999997,0.03493,-0.03385500000000001,0.08982799999999999,0.045913999999999996,-0.005797999999999999
327,3.27,-0.007544000000000001,0.030097000000000002,-0.042456,0.085556,0.045913999999999996,-0.005797999999999999
328,3.28,-0.046894,0.004255000000000003,-0.09491799999999999,0.071716,0.04805,-0.0026089999999999998
329,3.29,-0.05828,0.027696,-0.11210999999999999,0.058928999999999995,0.033142000000000005,0.011245999999999999
330,3.3,-0.035533999999999996,-0.006628,-0.14967,0.044022000000000006,0.003311,0.01976
331,3.31,-0.009852,-0.041495,-0.141129,0.023773,-0.008408,0.026154000000000004
332,3.32,0.025230000000000002,-0.073463,-0.151346,0.0014040000000000007,-0.015869,0.02829
333,3.33,0.070772,-0.103269,-0.12047200000000001,-0.01564,-0.023315,0.020828
334,3.34,0.054974,-0.08396100000000001,-0.08617000000000001,-0.027358999999999998,-0.027587999999999998,0.011245999999999999
335,3.35,0.06250599999999999,-0.06530599999999999,-0.032102,-0.029480000000000003,-0.016937,0.0016480000000000002
336,3.36,0.013645,-0.054275,0.025282,-0.019897,-0.002014,-0.005797999999999999
337,3.37,-0.020831,-0.020027,0.06475399999999999,0.0003359999999999995,-0.000946,-0.007935
338,3.38,0.018704,-0.040954000000000004,0.028732999999999998,0.021652,0.010773,-0.004745
339,3.39,0.048664,-0.024248,0.024634,0.03656,0.031006,-0.0015409999999999998
340,3.4,0.077075,-0.033862,-0.034818,0.04509,0.049118,-0.007935
341,3.41,0.078314,-0.014977999999999997,-0.067422,0.04509,0.059769,-0.016464
342,3.42,0.030246,-0.052351000000000016,-0.041705,0.03656,0.066162,-0.023911
343,3.43,-0.043186,-0.016755000000000003,-0.029122000000000002,0.028045999999999998,0.054443,-0.023911
344,3.44,-0.058554999999999996,-0.045732,-0.025827999999999997,0.020584,0.033142000000000005,-0.02179
345,3.45,-0.07283300000000001,-0.024424,-0.029846999999999988,0.01738,0.018219,-0.015396
346,3.46,-0.023142,0.014122999999999998,-0.037935,0.020584,0.015030000000000002,-0.007935
347,3.47,0.021286000000000003,-0.011607,-0.06861,0.026978,0.018219,-0.003677
348,3.48,0.055314999999999996,-0.02071,-0.11784800000000001,0.033371,0.035263,-0.0004730000000000001
349,3.49,0.114905,-0.009372000000000002,-0.130367,0.038696,0.071487,-0.001541
350,3.5,0.049596,-0.008119,-0.119341,0.03656,0.106644,0.001648
351,3.51,0.020324000000000002,-0.022552000000000003,-0.079488,0.03656,0.121552,0.0037840000000000005
352,3.52,0.026699,-0.008934000000000001,-0.080945,0.030167000000000003,0.115158,0.008041
353,3.53,0.026662,-0.021486,-0.059858,0.018448,0.078949,0.011245999999999999
354,3.54,-0.018678999999999998,-0.040442,-0.073736,-0.009246999999999998,0.045913999999999996,0.012299
355,3.55,-0.0014289999999999995,0.003540999999999999,-0.092317,-0.036942,-0.0020139999999999984,0.012299
356,3.56,0.007089,-0.01804,-0.055893,-0.064636,-0.039307000000000016,0.008041
357,3.57,0.02044,0.007708999999999999,-0.003496,-0.087006,-0.058472,0.010178
358,3.58,0.0073939999999999995,0.024215999999999998,0.079682,-0.091263,-0.060608,0.016571000000000002
359,3.59,0.039546,-0.009891999999999998,0.15623199999999998,-0.085938,-0.051025,0.01976
360,3.6,0.045374,-0.035174000000000004,0.167677,-0.062515,-0.033981,0.027222000000000003
361,3.61,0.085497,-0.017454,0.20131,-0.036942,-0.013733,0.020828
362,3.62,0.107119,-0.024870000000000003,0.195982,-0.011382999999999999,0.007568000000000001,0.006973
363,3.63,0.12303299999999999,0.007838,0.184055,0.005676,0.019287000000000002,-0.01326
364,3.64,0.053299,0.0013830000000000025,0.130105,0.018448,0.018219,-0.033507999999999996
365,3.65,-0.004942000000000002,0.086438,0.08470599999999999,0.026978,0.007568000000000001,-0.04628
366,3.66,-0.055180999999999994,0.083196,0.065501,0.025908999999999998,-0.005219,-0.048416
367,3.67,-0.12215799999999999,0.09736399999999999,0.052569000000000005,0.020584,-0.009476,-0.038834
368,3.68,-0.14039300000000002,0.12723900000000002,-0.010467,0.011002,-0.010544,-0.029236
369,3.69,-0.14002,0.11146400000000001,0.010569,0.0003360000000000004,-0.009476,-0.014328
370,3.7,-0.13814300000000002,0.102818,-0.005221,-0.0060420000000000005,-0.00415,-0.0026089999999999998
371,3.71,-0.119644,0.06308899999999999,0.05423300000000001,-0.008179,-0.00415,0.001648
372,3.72,-0.11336199999999999,0.076913,0.099784,-0.009247,0.0011750000000000005,0.004852
373,3.73,-0.13108,0.062846,0.136209,-0.001785,-0.012665000000000001,0.002716
374,3.74,-0.11140499999999999,0.042196,0.118677,0.015258999999999997,-0.033981,0.00058
375,3.75,-0.10346099999999998,0.042268,0.07496900000000001,0.029099,-0.043564,0.002716
376,3.76,-0.04562,0.04021,-0.0005100000000000035,0.040817,-0.032913,0.010178
377,3.77,-0.012967,0.049589,-0.073003,0.046143,-0.015869,0.014435
378,3.78,0.035673,0.054664,-0.088353,0.039764,0.005447,0.017624
379,3.79,-0.003372,0.024804,-0.071339,0.025908999999999998,0.020355,0.024017
380,3.8,0.0439,-0.030400999999999997,-0.043019999999999996,0.011002,0.013962,0.026154000000000004
381,3.81,0.032423,-0.041923,-0.012844,0.001404,-0.009476,0.021896000000000002
382,3.82,0.029047000000000003,-0.10319600000000001,-0.028222000000000004,-0.000717,-0.030777,0.015503
383,3.83,0.026300999999999998,-0.07119099999999999,0.008358000000000003,-0.000717,-0.044632,0.010178
384,3.84,0.028069999999999998,-0.093048,-0.03792,0.0014039999999999999,-0.039307,0.004852
385,3.85,0.07234700000000001,-0.07821900000000001,0.005665,0.006729000000000001,-0.02652,0.00058
386,3.86,0.065934,-0.11298499999999999,-0.007545,0.018448,-0.011612,-0.006866
387,3.87,0.038674,-0.057246000000000005,-0.010329000000000001,0.029099,0.003311,-0.005797999999999999
388,3.88,0.037868,-0.09426,-0.018782,0.038696,0.010773,-0.004745
389,3.89,0.073947,-0.081635,-0.054801,0.047211,0.0065,-0.007935
390,3.9,0.07203,-0.078448,-0.14415999999999998,0.050414999999999995,0.0022429999999999998,-0.015396
391,3.91,0.078303,-0.062466999999999995,-0.168238,0.042953,-0.002014,-0.022841999999999998
392,3.92,0.054909000000000006,-0.015235,-0.179859,0.025908999999999998,0.012894,-0.028183
393,3.93,0.011141000000000002,0.014262999999999996,-0.114032,0.012054,0.007568000000000001,-0.028183
394,3.94,-0.054751,-0.001288,-0.08907000000000001,-0.00499,-0.00415,-0.026047000000000004
395,3.95,-0.071187,0.019527000000000003,-0.055692,-0.023087,-0.002014,-0.012192
396,3.96,-0.05380599999999999,0.023482,0.015499,-0.040131,0.0065,0.0027160000000000005
397,3.97,-0.066198,-0.020485,0.065116,-0.047592,0.009705,0.015503
398,3.98,-0.010167000000000002,-0.027982,0.135451,-0.046524,-0.002014000000000001,0.020828
399,3.99,0.031275,-0.052926,0.190903,-0.033752,-0.021194,0.017624
400,4.0,0.024419999999999997,-0.032779,0.169693,-0.019897,-0.035033999999999996,0.00592
401,4.01,0.05237000000000001,-0.023351,0.13506400000000002,-0.0060420000000000005,-0.036101999999999995,-0.004745
402,4.02,0.025963,0.022644,0.087792,0.013123,-0.028656,-0.016464
403,4.03,0.004294000000000001,0.01468,0.077611,0.023773,-0.008408,-0.022841999999999998
404,4.04,-0.063113,0.05242,0.08279,0.033371,0.008636,-0.020721
405,4.05,-0.052699,0.038855,0.019115,0.039764,0.019287000000000002,-0.015396
406,4.06,-0.031056,0.032663,0.03643500000000001,0.03656,0.02887,-0.011139
407,4.07,-0.045898,0.025939999999999998,-0.008015999999999999,0.030167000000000003,0.027817,-0.005797999999999999
408,4.08,-0.045875,0.019232,0.010430000000000002,0.021652,0.011826,-0.009003
409,4.09,-0.072599,0.015588999999999999,0.08640500000000001,0.011002,-0.006271,-0.011139
410,4.1,-0.068862,0.032945,0.024286000000000002,0.009932999999999999,-0.025452000000000002,-0.01326
411,4.11,-0.058380999999999995,0.085911,0.06726,0.013123,-0.03717,-0.016464
412,4.12,-0.079788,0.10274000000000001,0.060032,0.021652,-0.031845,-0.015396
413,4.13,-0.068141,0.083022,0.030945,0.032303,-0.023315,-0.011139
414,4.14,-0.075475,0.064138,0.007006000000000004,0.042953,-0.007339,-0.004745000000000001
415,4.15,-0.110829,0.058001,-0.093645,0.049347,0.0065,0.0037840000000000005
416,4.16,-0.082023,0.017758000000000003,-0.136157,0.05146799999999999,0.0065,0.013366999999999999
417,4.17,-0.029108,0.022628,-0.17468599999999998,0.048279,-0.007339,0.020828
418,4.18,0.022737,-0.022154,-0.286543,0.03656,-0.022262999999999998,0.01976
419,4.19,0.026739999999999996,-0.0515,-0.269966,0.012054,-0.024384,0.020828
420,4.2,0.074377,-0.012736999999999998,-0.203658,-0.012436,0.0011750000000000007,0.016571000000000002
421,4.21,0.044348,-0.032193,-0.151738,-0.026291000000000002,0.015030000000000002,0.018692
422,4.22,0.017509999999999998,-0.040216,-0.108713,-0.028426999999999997,0.021422999999999998,0.021896000000000002
423,4.23,0.013283000000000001,-0.048107,-0.045377,-0.029480000000000003,0.026749000000000002,0.026154000000000004
424,4.24,0.086083,-0.071501,0.009603999999999998,-0.026291000000000002,0.029938,0.031479
425,4.25,0.10251700000000001,-0.099393,0.01709,-0.024155000000000003,0.02887,0.024017
426,4.26,0.10616500000000001,-0.111902,0.111073,-0.018829,0.013962,0.015503
427,4.27,0.102753,-0.061792999999999994,0.10909500000000001,-0.011382999999999999,-0.004150000000000001,0.0016480000000000002
428,4.28,0.077453,-0.079714,0.093207,-0.0060420000000000005,-0.013733,-0.015396
429,4.29,0.049943,-0.057162,0.0528,0.0003360000000000004,-0.013733,-0.022841999999999998
430,4.3,0.024578,-0.063978,0.065314,0.007797,-0.003082,-0.024978999999999998
431,4.31,0.005788000000000002,-0.005312999999999997,0.026151,0.016327,0.010773,-0.018585
432,4.32,0.013254000000000002,-0.029467,0.023776,0.018448,0.027817,-0.012192
433,4.33,0.017227000000000003,-5.999999999999929e-06,0.039182999999999996,0.013123,0.043793,-0.003677
434,4.34,0.003971000000000001,-0.048322,0.034821,0.005676,0.045913999999999996,0.0027160000000000005
435,4.35,-0.0024199999999999994,-0.032608,0.071249,-0.003922,0.024612,0.0005800000000000003
436,4.36,-0.006339999999999997,-0.031886000000000005,0.056836000000000005,-0.007111000000000002,-0.007339,-0.005797999999999999
437,4.37,-0.026498,-0.018096,0.039264999999999994,-0.014572,-0.038238999999999995,-0.007935
438,4.38,-0.011062,-0.0309,0.03391,-0.019897,-0.053146000000000006,-0.006866
439,4.39,0.010623000000000004,0.012337,0.043435,-0.019897,-0.057404,-0.0026089999999999998
440,4.4,0.018308,0.012127,0.036745,-0.018829,-0.049957,-0.0026089999999999998
441,4.41,0.039342,0.041794,0.057554999999999995,-0.012436,-0.030777,-0.00047300000000000006
442,4.42,0.048908999999999994,0.055247000000000004,0.033589999999999995,-0.0060420000000000005,-0.011612,0.001648
443,4.43,0.003603,0.025896,0.027770999999999997,0.0003360000000000001,-0.0009459999999999998,0.00058
444,4.44,-0.004147,0.028298,0.0013330000000000009,0.009932999999999999,-0.0009460000000000001,-0.0026089999999999998
445,4.45,-0.027819,0.009577,-0.032112,0.016327,-0.012665000000000001,-0.006866
446,4.46,-0.048063999999999996,0.017833,-0.08625,0.015259,-0.015869,-0.009003
447,4.47,-0.020722,0.084437,-0.109051,0.005676,-0.014801,-0.012192
448,4.48,-0.042119,0.076599,-0.07934400000000001,-0.000717,-0.005219,-0.009003
449,4.49,-0.067433,0.065969,-0.061836,-0.003922,0.004379,-0.004745
450,4.5,-0.052834000000000006,0.071229,-0.054899,-0.007111,0.003311,0.0005800000000000001
451,4.51,-0.072681,0.059945000000000005,-0.008428000000000001,-0.007111,0.008636,0.009109
452,4.52,-0.048323000000000005,0.04261,0.045228,-0.014572,0.015030000000000002,0.013366999999999999
453,4.53,-0.029026999999999997,0.031818,0.046319,-0.01564,0.005447,0.016571000000000002
454,4.54,-0.042812,0.001307,0.042007,-0.018829,-0.007339,0.012299
455,4.55,-0.01889,-0.010893,0.045849,-0.019897,-0.015869,0.009109
456,4.56,0.010532,0.013371,0.071249,-0.019897,-0.028656,0.006973
457,4.57,-0.038415999999999985,-0.021976,0.12717699999999998,-0.011382999999999999,-0.036101999999999995,-0.0015409999999999998
458,4.58,-0.007949,0.016348999999999995,0.067163,0.0035400000000000006,-0.033981,-0.003677
459,4.59,0.016401,0.005644999999999999,0.086046,0.021652,-0.027587999999999998,-0.0015410000000000005
460,4.6,0.009753,0.021963999999999997,0.047583999999999994,0.040817,-0.013733000000000002,-0.0004729999999999999
461,4.61,0.049839999999999995,-0.0033770000000000002,-0.017943999999999998,0.052536,0.008636,-0.0004730000000000001
462,4.62,0.035274,0.015758,-0.046733,0.056808000000000004,0.036331,-0.006866
463,4.63,0.027525,0.012798,-0.07069199999999999,0.050414999999999995,0.049118,-0.005797999999999999
464,4.64,0.012484,-0.014049999999999995,-0.081318,0.038696,0.043793,-0.007935
465,4.65,-0.046353,0.012581999999999998,-0.082077,0.025908999999999998,0.022491,-0.005797999999999999
466,4.66,0.005579000000000001,0.002181999999999999,-0.06321900000000001,0.008864999999999998,-0.008408,-0.0015409999999999998
467,4.67,-0.022887,0.027768,-0.068698,-0.00499,-0.032913,0.0016479999999999995
468,4.68,-0.032451,0.031239999999999997,-0.029590000000000005,-0.016708,-0.047820999999999995,0.006973
469,4.69,0.016561000000000003,-0.005708999999999995,-0.035694,-0.023087,-0.042496,0.017624
470,4.7,0.042276000000000015,-0.010735,0.010500999999999995,-0.017761000000000002,-0.030777,0.020828
471,4.71,0.066726,-0.043095999999999995,0.06454800000000001,-0.017761000000000002,0.00010699999999999946,0.021896000000000002
472,4.72,0.060386,-0.023027000000000002,0.099951,-0.009247,0.023544,0.022964
473,4.73,0.032019,-0.076638,0.126871,0.009932999999999999,0.022491,0.017624
474,4.74,0.007710000000000002,-0.083121,0.067412,0.019516,0.011826,0.011245999999999999
475,4.75,0.026611000000000003,-0.068537,0.046941000000000004,0.024841,-0.002014000000000001,0.009109
476,4.76,0.046069,-0.06435,0.021154,0.022719999999999997,-0.019058000000000002,0.002716
477,4.77,0.061443,-0.051490999999999995,0.006829000000000001,0.016327,-0.030777,-0.004744999999999999
478,4.78,0.077151,0.0012759999999999994,-0.037064,0.011002,-0.036101999999999995,-0.009003
479,4.79,0.051967,0.010026,-0.01813,0.007797,-0.027587999999999998,-0.010071
480,4.8,0.035003,0.028132,0.038232999999999996,0.009932999999999999,0.0011750000000000005,-0.0015410000000000005
481,4.81,-0.008242,0.034526,0.039275,0.018448,0.005447,0.0016480000000000002
482,4.82,0.022783,0.013522999999999999,0.029875,0.028045999999999998,0.005447,0.001648
483,4.83,0.033257999999999996,0.023952,-0.015732000000000003,0.03656,0.0065,0.002716
484,4.84,0.026929,0.035927999999999995,-0.043216000000000004,0.037627999999999995,0.005447,-0.004745
485,4.85,0.025128,0.058248,-0.075132,0.026978,0.004379,-0.011139
486,4.86,-0.009632,0.075264,-0.069597,0.009932999999999999,0.0065,-0.009003
487,4.87,-0.024676,0.020584,-0.044203,0.0003360000000000004,-0.006271,-0.003677
488,4.88,-0.011103,0.038095,0.012290000000000002,-0.012436,-0.01799,0.0016480000000000006
489,4.89,0.019531,0.010698000000000001,0.036599,-0.01564,-0.027587999999999998,0.00592
490,4.9,0.047504999999999985,-0.012333999999999998,0.043227999999999996,-0.01564,-0.036101999999999995,0.004852
491,4.91,0.031945,0.004511000000000001,0.045697,-0.0060420000000000005,-0.03717,-0.001541
492,4.92,0.044277,-0.000412,0.061818,0.004608,-0.031845,-0.007935
493,4.93,0.031922000000000006,0.013433999999999998,-0.0008309999999999983,0.019516,-0.022262999999999998,-0.018585
494,4.94,-0.006454999999999999,0.0029180000000000005,-0.007770999999999998,0.030167000000000003,-0.0009460000000000008,-0.022841999999999998
495,4.95,-0.040147,0.025311,0.025072000000000004,0.034424,0.018219,-0.018585
496,4.96,-0.100422,0.008479,-0.025131999999999998,0.033371,0.027817,-0.010071
497,4.97,-0.081117,-0.0016600000000000018,-0.011699,0.030167000000000003,0.021422999999999998,-0.0026089999999999998
498,4.98,-0.034246,-0.004832,-0.003537999999999999,0.032303,-0.0020139999999999984,-0.001541
499,4.99,-0.016215999999999998,-0.06229,-0.069796,0.029099,-0.023315,-0.003677
500,5.0,-0.009352,-0.037603,-0.105952,0.021652,-0.035033999999999996,-0.009003
501,5.01,-0.011483,-0.037966,-0.137322,0.012054,-0.030777,-0.012192
502,5.02,-0.022699000000000004,-0.000596,-0.129247,0.002472,-0.01799,-0.014328
503,5.03,-0.024359,0.006555,-0.08820599999999999,-0.003922,0.001174999999999999,-0.015396
504,5.04,-0.037018,0.032076,-0.036982999999999995,-0.001785,0.012894,-0.015396
505,5.05,-0.090418,0.027264999999999998,-0.072098,-0.003922,0.007568000000000001,-0.009003
506,5.06,-0.10976,0.0008279999999999997,-0.024225,0.0014039999999999999,0.0011749999999999998,-0.0004730000000000012
507,5.07,-0.07259299999999999,-0.005495,-0.060691999999999996,-0.000717,-0.008407999999999999,0.006973
508,5.08,-0.050948,-0.048905000000000004,-0.072947,-0.00499,-0.011612,0.010178
509,5.09,0.004261000000000001,-0.04125,-0.05457000000000001,-0.00499,-0.011612,0.008041
510,5.1,0.018363,-0.034368,-0.065505,-0.0007170000000000003,-0.014801,0.002716
511,5.11,-0.025812,-0.039972,-0.093819,0.002472,-0.011612,-0.003677
512,5.12,-0.028595999999999996,-0.0025149999999999964,-0.11925699999999999,-0.0007170000000000003,0.005447,-0.003677
513,5.13,0.008282,0.015004999999999998,-0.11864200000000001,-0.0017850000000000001,0.018219,0.0027160000000000005
514,5.14,0.0069859999999999966,0.018575999999999995,-0.134948,-0.011382999999999999,0.025681,0.009109
515,5.15,0.044944,0.049743,-0.112649,-0.019897,0.021422999999999998,0.017624
516,5.16,0.060286,-0.0027219999999999987,-0.145673,-0.035873,0.019287000000000002,0.018692
517,5.17,0.064691,0.018828,-0.08028300000000001,-0.052917,0.010773,0.01976
518,5.18,0.06217999999999999,-0.050943,-0.075539,-0.064636,-0.007339,0.012299
519,5.19,0.077933,-0.06389500000000001,-0.034338,-0.062515,-0.008408,0.002716
520,5.2,0.044552999999999995,-0.044668,0.053048000000000005,-0.058242999999999996,0.006500000000000001,-0.006866
521,5.21,0.050145999999999996,-0.037135,0.079846,-0.045471,0.026749000000000002,-0.01326
522,5.22,0.035661,-0.046153,0.149482,-0.032684,0.038467,-0.017516999999999998
523,5.23,0.041779000000000004,-0.033044,0.13563,-0.012436,0.035263,-0.024978999999999998
524,5.24,0.027331,-0.00012400000000000082,0.122082,0.004607999999999999,0.029938,-0.027114999999999997
525,5.25,0.054466999999999995,0.0004919999999999959,0.08279299999999999,0.012054,0.026749000000000002,-0.030304
526,5.26,0.027549,0.034232,0.031972,0.016327,0.017151,-0.031372000000000004
527,5.27,0.027924,0.058189,0.030982,0.009932999999999999,0.011826,-0.03244
528,5.28,0.003285,0.075668,-0.0028179999999999998,0.002472,0.009705,-0.03244
529,5.29,-0.011603,0.096509,-0.016577,-0.00499,0.011826,-0.030304
530,5.3,-0.008251,0.125365,0.014369999999999999,-0.019897,0.012894,-0.023911
531,5.31,-0.043782,0.109089,0.039402000000000006,-0.030548000000000002,0.012894,-0.014328
532,5.32,-0.031687,0.076689,0.11976499999999997,-0.035873,0.004379,-0.003677
533,5.33,-0.0013369999999999999,0.049779000000000004,0.109872,-0.032684,-0.01799,0.00058
534,5.34,0.056471,0.019244,0.14066199999999998,-0.029480000000000003,-0.03717,0.0016480000000000002
535,5.35,0.128393,0.011027,0.158049,-0.023087,-0.036101999999999995,-0.003677
536,5.36,0.162091,0.058400000000000014,0.131964,-0.018829,-0.032913,-0.014328
537,5.37,0.164025,0.030141999999999995,0.141264,-0.00499,-0.038238999999999995,-0.024978999999999998
538,5.38,0.146244,0.044788,0.133677,0.015259000000000003,-0.040359,-0.035629
539,5.39,0.150936,0.06629299999999999,0.081966,0.032303,-0.031845,-0.044159
540,5.4,0.1986,0.07436,0.016638999999999998,0.049347,-0.02652,-0.048416
541,5.41,0.215071,0.051698,-0.08566900000000001,0.062134,-0.024384,-0.054810000000000005
542,5.42,0.260821,0.07227599999999999,-0.182877,0.067459,-0.011612,-0.06227100000000001
543,5.43,0.256737,0.06475700000000001,-0.241975,0.058928999999999995,0.008636,-0.067596
544,5.44,0.278237,0.125558,-0.28893,0.044022000000000006,0.029938,-0.077179
545,5.45,0.269561,0.098439,-0.29333200000000004,0.025908999999999998,0.038467,-0.084641
546,5.46,0.27625900000000003,0.11801500000000001,-0.255205,0.009932999999999999,0.043793,-0.084641
547,5.47,0.257181,0.088504,-0.183815,-0.00499,0.02887,-0.084641
548,5.48,0.264995,0.106825,-0.15598900000000002,-0.007111,-0.007339,-0.08569299999999999
549,5.49,0.260336,0.142849,-0.13966900000000002,-0.010315000000000001,-0.038238999999999995,-0.08357200000000001
550,5.5,0.27402,0.145369,-0.134008,-0.014572,-0.044632,-0.073975
551,5.51,0.328287,0.170286,-0.15876700000000002,-0.013503999999999999,-0.047820999999999995,-0.061203
552,5.52,0.334188,0.16430799999999998,-0.169131,-0.008179,-0.051025,-0.043091000000000004
553,5.53,0.333282,0.12728,-0.22768400000000003,0.0014039999999999999,-0.047820999999999995,-0.030304
554,5.54,0.376884,0.114968,-0.263813,0.005676,-0.042496,-0.022841999999999998
555,5.55,0.367622,0.11559200000000001,-0.31346799999999997,0.002472,-0.031845,-0.01326
556,5.56,0.35465100000000005,0.06175,-0.317762,-0.0017850000000000001,-0.032913,0.0005799999999999988
557,5.57,0.35744699999999996,0.027305,-0.341773,-0.0060420000000000005,-0.046752999999999996,0.0037840000000000005
558,5.58,0.368649,0.041346,-0.333441,-0.017761000000000002,-0.054214,0.008041
559,5.59,0.328314,0.011770000000000001,-0.327246,-0.030548000000000002,-0.038238999999999995,0.017624
560,5.6,0.306157,-0.037557,-0.32436,-0.036942,-0.028656,0.027222000000000003
561,5.61,0.29142399999999996,0.005198,-0.28013000000000005,-0.039077999999999995,-0.033981,0.031479
562,5.62,0.243889,-0.004536,-0.298171,-0.036942,-0.027587999999999998,0.041061
563,5.63,0.24595,-0.072033,-0.31894,-0.039077999999999995,-0.031845,0.047455000000000004
564,5.64,0.18406,-0.079217,-0.32664,-0.043335000000000005,-0.025452000000000002,0.051712
565,5.65,0.221896,-0.007302000000000003,-0.328567,-0.052917,-0.009476,0.052779999999999994
566,5.66,0.20202,-0.024085,-0.313784,-0.058242999999999996,-0.007339,0.053848
567,5.67,0.161663,0.081504,-0.310614,-0.064636,0.004379,0.054916
568,5.68,0.126341,0.109625,-0.228501,-0.067841,0.015030000000000002,0.062377999999999996
569,5.69,0.083665,0.14738199999999999,-0.190022,-0.067841,0.017151,0.073029
570,5.7,0.002563000000000003,0.12126500000000001,-0.215569,-0.061447,0.012894,0.090073
571,5.71,-0.028372,0.089107,-0.260482,-0.057175,0.012894,0.10923800000000002
572,5.72,-0.035750000000000004,0.06940700000000001,-0.286391,-0.058242999999999996,0.015030000000000002,0.122025
573,5.73,-0.086388,0.021703999999999998,-0.265919,-0.062515,0.018219,0.13694800000000001
574,5.74,-0.09412100000000001,-0.030754000000000007,-0.296649,-0.073166,0.024612000000000002,0.148651
575,5.75,-0.15904200000000002,-0.072268,-0.230136,-0.08167999999999999,0.017151,0.156113
576,5.76,-0.23638499999999998,-0.11713399999999999,-0.168498,-0.080612,-0.004150000000000001,0.164642
577,5.77,-0.319169,-0.160986,-0.159959,-0.067841,-0.042496,0.174225
578,5.78,-0.295746,-0.176867,-0.160831,-0.047592,-0.073395,0.184875
579,5.79,-0.283513,-0.15013900000000002,-0.165962,-0.027358999999999998,-0.079788,0.193405
580,5.8,-0.308153,-0.136681,-0.236729,-0.003922000000000003,-0.073395,0.199799
581,5.81,-0.25872399999999995,-0.082768,-0.22674,0.021652,-0.060608,0.19766199999999998
582,5.82,-0.26314499999999996,-0.010652999999999996,-0.303754,0.042953,-0.042496,0.185944
583,5.83,-0.268855,0.095114,-0.343957,0.061065999999999995,-0.038238999999999995,0.171036
584,5.84,-0.298051,0.188602,-0.38765700000000003,0.081299,-0.041428,0.16037
585,5.85,-0.268331,0.32053000000000004,-0.44777700000000004,0.09301799999999999,-0.038238999999999995,0.15399200000000002
586,5.86,-0.228631,0.414448,-0.43827200000000005,0.091949,-0.010544,0.15399200000000002
587,5.87,-0.26471,0.46580699999999997,-0.435646,0.08876,0.035263,0.15078699999999998
588,5.88,-0.296931,0.543103,-0.335117,0.08343500000000001,0.07788099999999999,0.151855
589,5.89,-0.338924,0.506862,-0.269208,0.082367,0.105576,0.152924
590,5.9,-0.41590200000000005,0.5422640000000001,-0.165199,0.084503,0.12048299999999999,0.15931700000000001
591,5.91,-0.50644,0.53661,-0.094415,0.09301799999999999,0.110901,0.165695
592,5.92,-0.547647,0.51499,-0.095956,0.100479,0.09811399999999999,0.17741400000000002
593,5.93,-0.561708,0.522591,-0.201872,0.10261500000000001,0.095993,0.183807
594,5.94,-0.5200170000000001,0.600033,-0.23589200000000002,0.08876,0.10025,0.185944
595,5.95,-0.553751,0.604291,-0.35173499999999996,0.059998,0.09811399999999999,0.184875
596,5.96,-0.508772,0.737731,-0.373291,0.016327,0.10450699999999999,0.17955
597,5.97,-0.5184479999999999,0.79643,-0.378454,-0.049727999999999994,0.12901300000000002,0.176361
598,5.98,-0.547379,0.813008,-0.40208299999999997,-0.12216199999999999,0.152451,0.17955
599,5.99,-0.579341,0.80691,-0.38913200000000003,-0.195663,0.151382,0.19873
600,6.0,-0.592829,0.746744,-0.257936,-0.271301,0.138596,0.21363800000000002
601,6.01,-0.582737,0.724069,-0.15021900000000002,-0.334152,0.119431,0.228546
602,6.02,-0.567246,0.632788,-0.034881999999999996,-0.36930799999999997,0.076813,0.23494
603,6.03,-0.525875,0.55699,0.051095999999999996,-0.374634,0.012893999999999996,0.237076
604,6.04,-0.432004,0.46616,0.047592,-0.363983,-0.041428,0.23068200000000003
605,6.05,-0.346666,0.389727,-0.03946,-0.330948,-0.08190900000000001,0.20192000000000002
606,6.06,-0.232792,0.339685,-0.07102699999999999,-0.294739,-0.102158,0.15504500000000002
607,6.07,-0.138819,0.395464,-0.161046,-0.242538,-0.087234,0.098587
608,6.08,-0.161894,0.399897,-0.23057399999999997,-0.187149,-0.033981,0.044266
609,6.09,-0.212718,0.462157,-0.29023699999999997,-0.125366,0.029938,-0.0004730000000000012
610,6.1,-0.23521599999999998,0.509128,-0.30036199999999996,-0.052917,0.07788099999999999,-0.031372000000000004
611,6.11,-0.313257,0.565924,-0.43520200000000003,0.019516,0.095993,-0.054810000000000005
612,6.12,-0.34962,0.563779,-0.56934,0.080231,0.09704600000000001,-0.071854
613,6.13,-0.385131,0.586511,-0.7782100000000001,0.10899400000000001,0.106644,-0.08357200000000001
614,6.14,-0.424059,0.693604,-0.8241700000000001,0.10899400000000001,0.10771199999999999,-0.086761
615,6.15,-0.473541,0.687815,-0.9097959999999999,0.091949,0.106644,-0.08996599999999999
616,6.16,-0.537787,0.691938,-0.8414860000000001,0.06639099999999999,0.110901,-0.086761
617,6.17,-0.577188,0.74451,-0.7346699999999999,0.044022000000000006,0.13327,-0.068649
618,6.18,-0.612822,0.688158,-0.670391,0.041885000000000006,0.126877,-0.049484
619,6.19,-0.626894,0.640633,-0.585367,0.050414999999999995,0.10450699999999999,-0.034561
620,6.2,-0.570542,0.648287,-0.585807,0.059998,0.085327,-0.020721
621,6.21,-0.5126430000000001,0.672004,-0.571121,0.068512,0.074677,-0.018585
622,6.22,-0.45512700000000006,0.659235,-0.655012,0.065323,0.06828300000000001,-0.02179
623,6.23,-0.41317,0.697334,-0.693973,0.052536,0.05658,-0.033507999999999996
624,6.24,-0.352117,0.7610979999999999,-0.704887,0.029099,0.045913999999999996,-0.045226999999999996
625,6.25,-0.371392,0.801643,-0.673802,-0.004989999999999998,0.04805,-0.052673000000000005
626,6.26,-0.430095,0.813175,-0.596217,-0.04866,0.05658,-0.060135
627,6.27,-0.479088,0.798466,-0.418212,-0.083817,0.057632,-0.066528
628,6.28,-0.576766,0.801715,-0.22219,-0.109375,0.055511000000000005,-0.071854
629,6.29,-0.675128,0.7897890000000001,0.050401,-0.120026,0.057632,-0.070786
630,6.3,-0.700667,0.778284,0.22715300000000002,-0.109375,0.033142000000000005,-0.06546
631,6.31,-0.751454,0.724488,0.403779,-0.079559,-0.013732999999999995,-0.059066999999999995
632,6.32,-0.744616,0.7227819999999999,0.542165,-0.040131,-0.056351,-0.053741
633,6.33,-0.670878,0.693423,0.592383,0.011001999999999998,-0.090439,-0.04628
634,6.34,-0.569617,0.690487,0.606928,0.059998,-0.117065,-0.063324
635,6.35,-0.48134499999999997,0.640088,0.5525100000000001,0.095154,-0.12239100000000001,-0.08996599999999999
636,6.36,-0.374303,0.672602,0.564203,0.12391700000000001,-0.11813399999999999,-0.111267
637,6.37,-0.270717,0.626762,0.470778,0.14735399999999998,-0.121323,-0.144287
638,6.38,-0.166729,0.656934,0.414526,0.160126,-0.129852,-0.189026
639,6.39,-0.12340999999999999,0.671515,0.360693,0.162262,-0.129852,-0.23057600000000003
640,6.4,-0.089046,0.696862,0.340127,0.156937,-0.11492899999999999,-0.269989
641,6.41,-0.15299100000000002,0.701427,0.279808,0.14415,-0.11174,-0.296616
642,6.42,-0.22945300000000002,0.703365,0.306361,0.127106,-0.094696,-0.300888
643,6.43,-0.253752,0.691933,0.328071,0.10366800000000001,-0.058472,-0.288101
644,6.44,-0.266631,0.62693,0.35536599999999996,0.072784,-0.032913,-0.276382
645,6.45,-0.241063,0.541213,0.41696400000000006,0.034424,-0.013733,-0.267853
646,6.46,-0.198389,0.426359,0.45375299999999996,-0.008179000000000002,-0.006271,-0.255081
647,6.47,-0.077328,0.288621,0.487834,-0.043335000000000005,-0.015869,-0.24868800000000002
648,6.48,0.12025699999999999,0.315486,0.564832,-0.063568,-0.044632,-0.254013
649,6.49,0.203791,0.228622,0.514536,-0.069962,-0.094696,-0.282776
650,6.5,0.34665999999999997,0.160603,0.48297399999999996,-0.058242999999999996,-0.14476,-0.309402
651,6.51,0.386967,0.224266,0.398963,-0.041199,-0.159683,-0.343491
652,6.52,0.271283,0.171434,0.40084699999999995,-0.027358999999999998,-0.11174,-0.361603
653,6.53,0.191338,0.080968,0.5162899999999999,-0.01564,-0.002014000000000002,-0.362671
654,6.54,0.06135199999999999,-0.0051270000000000005,0.7042510000000001,-0.003922,0.11729400000000001,-0.347748
655,6.55,-0.014764,-0.157897,0.937768,0.019516,0.196121,-0.326447
656,6.56,-0.084604,-0.32616300000000004,1.166669,0.057861,0.21742199999999998,-0.29129
657,6.57,-0.07825499999999999,-0.539411,1.3395110000000001,0.122849,0.185471,-0.252945
658,6.58,0.008412000000000001,-0.693425,1.406152,0.21020500000000003,0.116226,-0.233765
659,6.59,0.108756,-0.840959,1.2410510000000001,0.313538,-0.010543999999999998,-0.23590100000000003
660,6.6,0.24679299999999998,-0.9419270000000001,0.8943030000000001,0.405136,-0.15329,-0.257202
661,6.61,0.39025,-0.946421,0.49361800000000006,0.460541,-0.253418,-0.293427
662,6.62,0.51855,-0.8648610000000001,0.12196600000000002,0.48503100000000005,-0.280045,-0.33284
663,6.63,0.584015,-0.811732,-0.148493,0.481842,-0.23851,-0.354141
664,6.64,0.549408,-0.7448739999999999,-0.370525,0.458405,-0.165009,-0.359467
665,6.65,0.523967,-0.7467020000000001,-0.604236,0.42112700000000003,-0.08616599999999999,-0.344559
666,6.66,0.534729,-0.7398520000000001,-0.674164,0.363602,0.008635999999999998,-0.310471
667,6.67,0.5440699999999999,-0.667365,-0.718783,0.2901,0.08107,-0.27319299999999996
668,6.68,0.547193,-0.718254,-0.697613,0.205933,0.116226,-0.24015799999999998
669,6.69,0.522537,-0.779605,-0.572971,0.118591,0.102386,-0.216721
670,6.7,0.49623500000000004,-0.7584270000000001,-0.45555,0.037627999999999995,0.042725,-0.193298
671,6.71,0.47704799999999997,-0.755373,-0.330869,-0.031616000000000005,-0.044632,-0.183701
672,6.72,0.480473,-0.760417,-0.223426,-0.079559,-0.12878399999999998,-0.176254
673,6.73,0.48171400000000003,-0.736583,-0.15946300000000002,-0.117905,-0.16819800000000001,-0.166656
674,6.74,0.493724,-0.708151,-0.059369000000000005,-0.139206,-0.160736,-0.152817
675,6.75,0.486221,-0.6111,0.028506000000000007,-0.145599,-0.136246,-0.135773
676,6.76,0.46181000000000005,-0.577561,0.089321,-0.13281199999999999,-0.11492899999999999,-0.115524
677,6.77,0.401819,-0.594917,0.141275,-0.110443,-0.10321,-0.097412
678,6.78,0.408017,-0.6248520000000001,0.175555,-0.079559,-0.110672,-0.079315
679,6.79,0.436684,-0.594403,0.135485,-0.039077999999999995,-0.14263900000000002,-0.060135
680,6.8,0.476749,-0.646256,0.028826000000000008,0.0035400000000000006,-0.17991600000000002,-0.045226999999999996
681,6.81,0.555012,-0.625732,-0.10339100000000001,0.041885000000000006,-0.20015,-0.036697
682,6.82,0.635493,-0.62674,-0.239794,0.06639099999999999,-0.194824,-0.042023000000000005
683,6.83,0.621691,-0.60626,-0.39055,0.082367,-0.178848,-0.053741
684,6.84,0.5777180000000001,-0.5647220000000001,-0.444201,0.086624,-0.157547,-0.069717
685,6.85,0.48632700000000006,-0.543534,-0.507362,0.08343500000000001,-0.150085,-0.080368
686,6.86,0.389395,-0.403417,-0.530529,0.070648,-0.146896,-0.094223
687,6.87,0.324332,-0.257875,-0.543439,0.054672000000000005,-0.15115399999999998,-0.093155
688,6.88,0.23595700000000003,-0.125926,-0.5068239999999999,0.03656,-0.161804,-0.078247
689,6.89,0.19955,-0.07109800000000001,-0.562186,0.022719999999999997,-0.169266,-0.053741
690,6.9,0.18141600000000002,0.049825,-0.545185,0.00354,-0.155411,-0.017516999999999998
691,6.91,0.155579,0.11193299999999999,-0.5667369999999999,-0.01564,-0.135178,0.021896000000000002
692,6.92,0.252053,0.128088,-0.5181899999999999,-0.03801,-0.107483,0.057053
693,6.93,0.283624,0.170574,-0.499327,-0.057175,-0.087234,0.08367899999999999
694,6.94,0.27836900000000003,0.163388,-0.447896,-0.077423,-0.06486499999999999,0.10179099999999999
695,6.95,0.215941,0.200553,-0.325798,-0.09765599999999999,-0.028656,0.10818499999999999
696,6.96,0.132392,0.225481,-0.15440199999999998,-0.110443,0.009705,0.115631
697,6.97,0.065925,0.221165,-0.009036000000000002,-0.094467,0.026749000000000002,0.13588
698,6.98,0.086686,0.234104,-0.007103,-0.073166,0.025681,0.156113
699,6.99,0.095972,0.25241199999999997,0.06303099999999999,-0.058242999999999996,0.035263,0.16037
700,7.0,0.11653800000000002,0.285814,0.069074,-0.051849,0.045913999999999996,0.1689
701,7.01,0.095353,0.33558899999999997,0.059868,-0.04866,0.04805,0.173157
702,7.02,0.089128,0.374029,0.05895,-0.050797,0.044861,0.178482
703,7.03,0.116501,0.402861,0.135656,-0.051849,0.055511000000000005,0.19233699999999998
704,7.04,0.110248,0.403496,0.28318699999999997,-0.059311,0.0896,0.21363800000000002
705,7.05,0.135468,0.426679,0.382785,-0.052917,0.105576,0.23388699999999998
706,7.06,0.193574,0.412714,0.450168,-0.029480000000000003,0.092789,0.249863
707,7.07,0.26692899999999997,0.377828,0.42629799999999995,-0.010315000000000001,0.09704600000000001,0.256256
708,7.08,0.327677,0.356508,0.459535,0.00033599999999999993,0.12475599999999999,0.246658
709,7.09,0.368752,0.33707600000000004,0.480767,0.009932999999999999,0.140732,0.224289
710,7.1,0.370354,0.354259,0.5508430000000001,0.016327,0.152451,0.191269
711,7.11,0.342948,0.374778,0.686704,0.029099,0.165222,0.158249
712,7.12,0.24446199999999998,0.410653,0.8355469999999999,0.052536,0.159897,0.129486
713,7.13,0.20592,0.43296999999999997,0.832476,0.100479,0.12475599999999999,0.10818499999999999
714,7.14,0.256251,0.545931,0.8474430000000001,0.161194,0.084274,0.09219400000000001
715,7.15,0.24941799999999997,0.64765,0.770158,0.217651,0.071487,0.086868
716,7.16,0.197447,0.644365,0.569986,0.254944,0.086395,0.098587
717,7.17,0.130369,0.5647340000000001,0.38619899999999996,0.267731,0.11303699999999998,0.12735
718,7.18,0.13556600000000002,0.517329,0.24722,0.245346,0.149246,0.176361
719,7.19,0.155256,0.42274300000000004,0.161419,0.194214,0.17694100000000001,0.22535700000000003
720,7.2,0.16608299999999998,0.311404,0.096807,0.105804,0.193985,0.267975
721,7.21,0.11412699999999999,0.098578,0.133552,0.002472000000000002,0.186539,0.303116
722,7.22,0.09317,-0.066557,0.2019,-0.110443,0.159897,0.31590300000000004
723,7.23,-0.037173000000000005,-0.239479,0.378661,-0.214844,0.131134,0.310577
724,7.24,-0.32995599999999997,-0.41892299999999993,0.702605,-0.29686,0.0896,0.290344
725,7.25,-0.56123,-0.576889,0.9764139999999999,-0.328827,0.044861,0.27116399999999996
726,7.26,-0.769205,-0.699711,1.2115129999999998,-0.307526,0.001174999999999999,0.26263400000000003
727,7.27,-0.8381,-0.739567,1.317812,-0.228683,-0.041428,0.260513
728,7.28,-0.8420280000000001,-0.766421,1.278492,-0.1147,-0.082977,0.26263400000000003
729,7.29,-0.6733279999999999,-0.7387319999999999,1.027323,0.021652,-0.110672,0.258377
730,7.3,-0.435047,-0.610859,0.7508520000000001,0.161194,-0.11492899999999999,0.24240100000000003
731,7.31,-0.192834,-0.46479799999999993,0.392413,0.26345799999999997,-0.051025,0.218964
732,7.32,0.034397999999999984,-0.29968,0.100618,0.32418800000000003,0.056579999999999984,0.190201
733,7.33,0.176679,-0.12812300000000001,-0.102547,0.344421,0.184402,0.148651
734,7.34,0.09070800000000001,-0.062904,-0.23416199999999998,0.325241,0.296265,0.09751900000000001
735,7.35,0.021669,-0.050517,-0.25092800000000004,0.269852,0.38467399999999996,0.053848
736,7.36,-0.189159,0.033665,-0.206973,0.180374,0.463501,0.010178
737,7.37,-0.45030200000000004,-0.05752,-0.074762,0.08343500000000001,0.495468,-0.02179
738,7.38,-0.786614,-0.13542,0.175591,-0.007110999999999992,0.5135649999999999,-0.036697
739,7.39,-0.9304120000000001,-0.019874000000000003,0.438746,-0.057175,0.558319,-0.022841999999999998
740,7.4,-1.068084,-0.073327,0.504242,-0.07421900000000001,0.582809,0.01976
741,7.41,-1.208795,-0.21066,0.435859,-0.08167999999999999,0.537003,0.069824
742,7.42,-1.120615,-0.16911099999999998,0.34176999999999996,-0.091263,0.43899499999999997,0.107117
743,7.43,-1.021882,-0.256417,0.210769,-0.10618599999999999,0.341003,0.15399200000000002
744,7.44,-0.957683,-0.306231,-0.030153999999999983,-0.143463,0.24406399999999998,0.19766199999999998
745,7.45,-0.8276110000000001,-0.427291,-0.14077,-0.200989,0.13327,0.22535700000000003
746,7.46,-0.639831,-0.429976,-0.174252,-0.25851399999999997,0.031005999999999995,0.237076
747,7.47,-0.478997,-0.458079,-0.180589,-0.292603,-0.057404,0.238144
748,7.48,-0.349785,-0.454115,-0.117097,-0.298996,-0.107483,0.224289
749,7.49,-0.229015,-0.477533,-0.012909999999999993,-0.271301,-0.121323,0.202988
750,7.5,-0.217862,-0.460254,0.029532,-0.19354200000000002,-0.136246,0.17208900000000002
751,7.51,-0.19411199999999998,-0.462121,0.006556999999999997,-0.085938,-0.154343,0.138
752,7.52,-0.17073,-0.38826900000000003,-0.054592999999999996,0.026978,-0.139435,0.11776700000000001
753,7.53,-0.12529300000000002,-0.245984,-0.253347,0.126038,-0.093628,0.10497999999999999
754,7.54,-0.10848800000000001,-0.169062,-0.394374,0.201675,-0.022263,0.095398
755,7.55,-0.106201,-0.104084,-0.5934729999999999,0.245346,0.059769,0.096466
756,7.56,-0.123774,-0.044709,-0.751962,0.249619,0.13327,0.098587
757,7.57,-0.113699,-0.037665,-0.927636,0.213394,0.191864,0.10285899999999999
758,7.58,-0.204619,-0.043963999999999996,-0.957592,0.14415,0.211029,0.10285899999999999
759,7.59,-0.30392399999999997,-0.100462,-0.9618909999999999,0.054672000000000005,0.180145,0.098587
760,7.6,-0.419562,-0.201266,-0.897574,-0.046524,0.115158,0.09751900000000001
761,7.61,-0.46406099999999995,-0.27146,-0.7426560000000001,-0.136017,0.026749,0.10179099999999999
762,7.62,-0.439968,-0.32572199999999996,-0.637791,-0.210587,-0.073395,0.10179099999999999
763,7.63,-0.42405600000000004,-0.339995,-0.5355840000000001,-0.257446,-0.166061,0.093262
764,7.64,-0.377418,-0.354578,-0.44402200000000003,-0.28302,-0.22998000000000002,0.08367899999999999
765,7.65,-0.344602,-0.36235,-0.381927,-0.276627,-0.254486,0.067703
766,7.66,-0.298815,-0.341278,-0.30131199999999997,-0.24572800000000003,-0.239578,0.046387
767,7.67,-0.274104,-0.28589899999999996,-0.29094200000000003,-0.205261,-0.189499,0.018692
768,7.68,-0.273944,-0.188863,-0.261909,-0.157318,-0.12345899999999999,-0.007935000000000001
769,7.69,-0.26150300000000004,-0.18371600000000002,-0.273901,-0.108322,-0.053146000000000006,-0.034561
770,7.7,-0.223477,-0.054224000000000015,-0.27174899999999996,-0.069962,0.006499999999999999,-0.068649
771,7.71,-0.24227600000000002,0.005549000000000003,-0.238467,-0.045471,0.032074,-0.116592
772,7.72,-0.287162,0.104146,-0.173804,-0.035873,0.029938,-0.16026300000000002
773,7.73,-0.28391,0.36143000000000003,-0.108049,-0.028426999999999997,-0.011612,-0.189026
774,7.74,-0.377334,0.528121,-0.035468,-0.026291000000000002,-0.068069,-0.212463
775,7.75,-0.426774,0.6348739999999999,-0.015609,-0.030548000000000002,-0.120255,-0.21566799999999997
776,7.76,-0.497594,0.783817,0.040714,-0.040131,-0.14582799999999999,-0.19755599999999998
777,7.77,-0.51668,0.887109,0.079478,-0.050797,-0.158615,-0.174118
778,7.78,-0.5825100000000001,0.97077,0.245015,-0.064636,-0.149017,-0.152817
779,7.79,-0.642755,1.018673,0.459433,-0.064636,-0.137299,-0.134705
780,7.8,-0.7919649999999999,0.987649,0.730704,-0.050797,-0.125595,-0.11233499999999999
781,7.81,-0.85911,0.931674,0.974131,-0.017761000000000002,-0.136246,-0.088898
782,7.82,-0.8711190000000001,0.916744,1.141804,0.028045999999999998,-0.162872,-0.070786
783,7.83,-0.8201510000000001,0.904394,1.3765120000000002,0.095154,-0.193771,-0.063324
784,7.84,-0.754467,0.838183,1.4047690000000002,0.176117,-0.21507300000000001,-0.060135
785,7.85,-0.603618,0.81718,1.347466,0.26452600000000004,-0.23637399999999997,-0.069717
786,7.86,-0.36486999999999997,0.783145,1.226721,0.35614,-0.272598,-0.095291
787,7.87,-0.162726,0.795925,0.9768040000000001,0.431778,-0.31308,-0.147491
788,7.88,0.008919999999999997,0.8396959999999999,0.67328,0.481842,-0.338638,-0.20181300000000002
789,7.89,0.183402,0.82824,0.375795,0.48823500000000003,-0.331177,-0.251877
790,7.9,0.310861,0.9021879999999999,0.13933900000000002,0.46479799999999993,-0.306686,-0.30300900000000003
791,7.91,0.450305,1.051251,-0.094286,0.405136,-0.24490399999999998,-0.350952
792,7.92,0.504895,1.102795,-0.168079,0.319916,-0.139435,-0.39355500000000004
793,7.93,0.42982600000000004,1.025951,-0.163481,0.218719,-0.0052190000000000005,-0.423386
794,7.94,0.28761,0.9116,-0.096511,0.11645499999999999,0.121552,-0.42871099999999995
795,7.95,0.10305999999999998,0.754727,-0.004943000000000003,0.021652000000000005,0.20890799999999998,-0.413803
796,7.96,0.018662,0.582395,0.145222,-0.088074,0.27920500000000004,-0.37651100000000004
797,7.97,-0.046764,0.321823,0.307737,-0.207382,0.31543000000000004,-0.33284
798,7.98,-0.18779,-0.044397999999999986,0.6299170000000001,-0.329895,0.294128,-0.294495
799,7.99,-0.326268,-0.43028900000000003,0.9166770000000001,-0.437485,0.202515,-0.250809
800,8.0,-0.34483400000000003,-0.832601,1.147429,-0.5109859999999999,0.004378999999999994,-0.209274
801,8.01,-0.188843,-1.111734,1.280045,-0.547211,-0.247025,-0.187958
802,8.02,0.08555100000000003,-1.367135,1.339726,-0.537613,-0.51973,-0.198624
803,8.03,0.46093900000000004,-1.417928,1.257975,-0.483292,-0.7466430000000001,-0.24548299999999998
804,8.04,0.863632,-1.3094430000000001,1.076509,-0.39379899999999995,-0.90004,-0.342422
805,8.05,1.0128030000000001,-1.246689,0.8180390000000001,-0.270233,-0.9980469999999999,-0.484116
806,8.06,1.065164,-0.997092,0.491924,-0.136017,-0.9980469999999999,-0.6407010000000001
807,8.07,0.967399,-0.713228,0.238773,0.013122999999999996,-0.8776700000000001,-0.7738649999999999
808,8.08,0.83105,-0.47422700000000007,0.09067599999999999,0.16545099999999996,-0.6528930000000001,-0.862274
809,8.09,0.65675,-0.307977,-0.0009149999999999993,0.32311999999999996,-0.345032,-0.887848
810,8.1,0.42984300000000003,-0.11948900000000001,-0.080887,0.480774,-0.020126,-0.86441
811,8.11,0.14193,-0.09374,-0.179837,0.616058,0.258972,-0.795166
812,8.12,-0.040198000000000005,-0.09838,-0.384604,0.702347,0.45285,-0.682251
813,8.13,-0.131982,-0.121101,-0.570117,0.7076720000000001,0.5625760000000001,-0.543762
814,8.14,-0.069605,-0.12363699999999998,-0.739719,0.6427,0.619034,-0.392502
815,8.15,0.110725,-0.17469,-0.836983,0.520187,0.630753,-0.24761999999999998
816,8.16,0.165074,-0.388378,-0.885966,0.349747,0.571091,-0.12085
817,8.17,0.220387,-0.549728,-0.7456470000000001,0.151611,0.435806,-0.020721000000000003
818,8.18,0.26963400000000004,-0.65105,-0.606161,-0.053986000000000006,0.246185,0.038939999999999995
819,8.19,0.25638,-0.7672220000000001,-0.38206,-0.24147,0.005447000000000007,0.069824
820,8.2,0.267908,-0.8795219999999999,-0.11610699999999999,-0.394867,-0.235306,0.084747
821,8.21,0.2458,-0.904432,0.149367,-0.492874,-0.43771400000000005,0.08154299999999999
822,8.22,0.28642,-0.8481920000000001,0.342665,-0.524826,-0.590042,0.074097
823,8.23,0.320973,-0.781453,0.534455,-0.482224,-0.6624760000000001,0.078354
824,8.24,0.36032600000000004,-0.726023,0.49953500000000006,-0.388474,-0.653961,0.093262
825,8.25,0.461505,-0.651234,0.41286300000000004,-0.27449,-0.587906,0.11244200000000001
826,8.26,0.536093,-0.646204,0.262714,-0.157318,-0.476059,0.118835
827,8.27,0.661775,-0.593541,0.13711199999999998,-0.056122000000000005,-0.318405,0.118835
828,8.28,0.7299479999999999,-0.527825,0.086985,0.035492,-0.13836700000000002,0.107117
829,8.29,0.697896,-0.567964,-0.047081,0.11645499999999999,0.002243000000000002,0.087936
830,8.3,0.693793,-0.580771,-0.12253299999999999,0.169724,0.088531,0.060242
831,8.31,0.6593720000000001,-0.49833,-0.205442,0.197418,0.130081,0.017624
832,8.32,0.602086,-0.48946999999999996,-0.267783,0.197418,0.148178,-0.020721
833,8.33,0.467983,-0.361654,-0.266212,0.18676800000000002,0.151382,-0.045226999999999996
834,8.34,0.350265,-0.25693299999999997,-0.222117,0.18249500000000002,0.1418,-0.056930999999999995
835,8.35,0.300299,-0.18792899999999998,-0.18501800000000002,0.18676800000000002,0.16629000000000002,-0.045226999999999996
836,8.36,0.199067,-0.095939,-0.149457,0.20060699999999998,0.204651,-0.029236
837,8.37,0.13314,-0.082524,-0.190136,0.211258,0.219559,-0.009003
838,8.38,0.063055,-0.038173,-0.180305,0.21020500000000003,0.23341399999999998,0.012299
839,8.39,0.008504999999999999,0.017436999999999994,-0.104849,0.197418,0.237671,0.038939999999999995
840,8.4,-0.021058,0.057624,-0.06400700000000001,0.185699,0.21316500000000002,0.065567
841,8.41,-0.008578,0.06441000000000001,-0.028989999999999995,0.172913,0.156708,0.08367899999999999
842,8.42,0.052758000000000006,0.072031,-0.019653,0.158005,0.08107,0.096466
843,8.43,0.071898,0.114603,-0.054528999999999994,0.14415,0.00010700000000000291,0.10285899999999999
844,8.44,0.127692,0.151031,-0.043956999999999996,0.137756,-0.07872,0.10497999999999999
845,8.45,0.115451,0.158642,-0.09074600000000001,0.143082,-0.12878399999999998,0.10072300000000001
846,8.46,0.17616400000000002,0.196142,-0.079888,0.1548,-0.14476,0.10497999999999999
847,8.47,0.24040999999999998,0.274506,-0.100049,0.18144200000000002,-0.121323,0.118835
848,8.48,0.348273,0.29524,-0.138,0.213394,-0.07872,0.128418
849,8.49,0.44560900000000003,0.293521,-0.129153,0.234695,-0.013733000000000002,0.139069
850,8.5,0.5673520000000001,0.343519,-0.11490299999999999,0.249619,0.058700999999999996,0.13588
851,8.51,0.5951609999999999,0.40389200000000003,0.009045999999999998,0.25174,0.132202,0.11776700000000001
852,8.52,0.559713,0.395916,0.165706,0.25387600000000005,0.183334,0.099655
853,8.53,0.553355,0.443804,0.203552,0.259201,0.20677199999999998,0.091141
854,8.54,0.445804,0.43159,0.30080100000000004,0.25174,0.205704,0.079422
855,8.55,0.39856199999999997,0.435709,0.38313600000000003,0.23896799999999999,0.172684,0.074097
856,8.56,0.418241,0.42105600000000004,0.41658500000000004,0.23576399999999997,0.10983299999999999,0.079422
857,8.57,0.502617,0.514808,0.419174,0.233643,0.042725,0.07728600000000001
858,8.58,0.68719,0.563566,0.23540300000000003,0.233643,-0.036101999999999995,0.068756
859,8.59,0.8406610000000001,0.6674359999999999,0.152608,0.209137,-0.033981,0.035736000000000004
860,8.6,1.027102,0.857482,0.10972,0.13030999999999998,0.087463,-0.016463999999999996
861,8.61,1.044341,1.120984,0.216324,0.014191000000000004,0.27069099999999996,-0.059066999999999995
862,8.62,0.752989,1.200839,0.48215399999999997,-0.133881,0.469894,-0.080368
863,8.63,0.319902,0.9530219999999999,0.842108,-0.293671,0.592407,-0.070786
864,8.64,-0.164879,0.683986,1.335374,-0.445999,0.6328739999999999,0.004852000000000002
865,8.65,-0.568058,0.330256,1.693814,-0.580231,0.5785520000000001,0.098587
866,8.66,-0.91946,-0.21276200000000006,1.939998,-0.685684,0.395325,0.20512399999999997
867,8.67,-1.059156,-0.7752479999999999,2.217295,-0.747467,0.13327,0.299927
868,8.68,-0.875552,-1.064418,2.30638,-0.744278,-0.193771,0.34573400000000004
869,8.69,-0.582615,-1.206224,2.2028380000000003,-0.664383,-0.575134,0.321228
870,8.7,-0.333468,-1.298504,1.8098049999999999,-0.534424,-0.93306,0.255188
871,8.71,-0.029676000000000008,-1.193797,1.330941,-0.385284,-1.170609,0.15931700000000001
872,8.72,0.18803699999999998,-0.986419,0.804562,-0.25,-1.2249450000000002,0.049591
873,8.73,0.233165,-0.755259,0.355249,-0.129623,-1.110962,-0.044159
874,8.74,0.195917,-0.46593999999999997,0.10991400000000001,-0.027358999999999998,-0.8691409999999999,-0.088898
875,8.75,0.126625,-0.260002,-0.06428099999999999,0.068512,-0.566605,-0.079315
876,8.76,0.045662,-0.098441,-0.199275,0.158005,-0.27153,-0.016464000000000006
877,8.77,0.002135999999999999,-0.093144,-0.328392,0.217651,-0.006270999999999999,0.073029
878,8.78,0.048996,-0.165693,-0.47986,0.233643,0.204651,0.167831
879,8.79,0.118144,-0.302454,-0.603511,0.19635,0.339935,0.22961399999999998
880,8.8,0.14984,-0.38906,-0.683272,0.10261500000000001,0.39318800000000004,0.248795
881,8.81,0.085862,-0.523479,-0.645791,-0.025223,0.353775,0.193405
882,8.82,-0.098894,-0.5370119999999999,-0.498575,-0.14666700000000002,0.27920500000000004,0.106049
883,8.83,-0.48523599999999995,-0.51159,-0.27477399999999996,-0.238281,0.205704,0.029343
884,8.84,-0.934683,-0.519357,-0.005147999999999986,-0.28302,0.137527,0.0016480000000000002
885,8.85,-1.307941,-0.525738,0.086996,-0.292603,0.09811399999999999,0.025085
886,8.86,-1.499331,-0.420019,0.144963,-0.281952,0.058700999999999996,0.080475
887,8.87,-1.529303,-0.422854,0.057142,-0.26597600000000005,0.025681,0.169968
888,8.88,-1.4046530000000002,-0.37245700000000004,0.016214,-0.24893200000000001,-0.004149999999999999,0.277557
889,8.89,-1.1594200000000001,-0.47229399999999994,-0.165409,-0.232956,-0.031845,0.371292
890,8.9,-0.8321059999999999,-0.565724,-0.368743,-0.221237,-0.08190900000000001,0.423492
891,8.91,-0.413296,-0.614196,-0.490332,-0.220169,-0.13410899999999998,0.412842
892,8.92,-0.193263,-0.54807,-0.512596,-0.214844,-0.162872,0.343597
893,8.93,-0.119591,-0.504117,-0.44583,-0.185013,-0.172455,0.25411999999999996
894,8.94,-0.190434,-0.419001,-0.45509099999999997,-0.13281199999999999,-0.165009,0.151855
895,8.95,-0.304938,-0.314583,-0.433167,-0.068893,-0.110672,0.06770300000000001
896,8.96,-0.502822,-0.204853,-0.442346,-0.0049900000000000005,-0.004150000000000001,0.014434999999999996
897,8.97,-0.698987,0.0008009999999999963,-0.498334,0.05892900000000001,0.11729400000000001,-0.002609
898,8.98,-0.832348,0.003675999999999999,-0.53781,0.10366800000000001,0.219559,0.008041
899,8.99,-0.9173450000000001,0.030612999999999998,-0.502305,0.110062,0.316498,0.038939999999999995
900,9.0,-0.89874,-0.001977,-0.524623,0.096222,0.336731,0.079422
901,9.01,-0.84677,-0.085439,-0.4891,0.070648,0.277084,0.111374
902,9.02,-0.658499,-0.116944,-0.486767,0.024841,0.203583,0.118835
903,9.03,-0.5265270000000001,-0.06456100000000001,-0.452475,-0.023087,0.142853,0.110306
904,9.04,-0.528965,-0.08132,-0.467133,-0.067841,0.071487,0.08367899999999999
905,9.05,-0.573995,-0.10662,-0.40524299999999996,-0.11151099999999999,0.009704999999999998,0.051712
906,9.06,-0.598108,-0.026085,-0.346137,-0.145599,-0.023315,0.037872
907,9.07,-0.6600630000000001,0.027894,-0.263835,-0.158386,-0.039307,0.035736000000000004
908,9.08,-0.653749,0.059687,-0.212796,-0.154114,-0.0457,0.047455000000000004
909,9.09,-0.601413,0.10925700000000002,-0.176517,-0.141342,-0.032913,0.064499
910,9.1,-0.527,0.15374200000000002,-0.114442,-0.127487,0.002243000000000002,0.078354
911,9.11,-0.501019,0.17163,0.0055489999999999975,-0.11683699999999998,0.036331,0.069824
912,9.12,-0.47663900000000003,0.195181,0.157675,-0.10405,0.055511000000000005,0.04213
913,9.13,-0.5370090000000001,0.280366,0.33311599999999997,-0.077423,0.042725,0.0005800000000000008
914,9.14,-0.665632,0.300182,0.44208500000000006,-0.041199,0.017151,-0.03244
915,9.15,-0.783125,0.366171,0.5835520000000001,-0.010314999999999998,0.012894,-0.053741
916,9.16,-0.798304,0.444745,0.611798,0.034424,0.0011750000000000007,-0.056930999999999995
917,9.17,-0.8473959999999999,0.432295,0.612962,0.081299,-0.030777,-0.056930999999999995
918,9.18,-0.7965369999999999,0.40990699999999997,0.556497,0.132431,-0.065933,-0.054810000000000005
919,9.19,-0.742459,0.446213,0.46342700000000003,0.176117,-0.09256,-0.054810000000000005
920,9.2,-0.642771,0.451841,0.329929,0.213394,-0.109604,-0.06439199999999999
921,9.21,-0.5669810000000001,0.45693100000000003,0.19092699999999999,0.233643,-0.117065,-0.076111
922,9.22,-0.556732,0.468937,0.137467,0.24429299999999998,-0.110672,-0.08569299999999999
923,9.23,-0.552982,0.44712700000000005,0.12025599999999999,0.23683200000000001,-0.098953,-0.092087
924,9.24,-0.5318109999999999,0.396491,0.143965,0.231506,-0.089371,-0.099548
925,9.25,-0.511645,0.38319699999999995,0.225859,0.218719,-0.08830299999999999,-0.108078
926,9.26,-0.47856400000000004,0.276979,0.358734,0.218719,-0.110672,-0.119781
927,9.27,-0.333262,0.24744499999999997,0.452166,0.231506,-0.154343,-0.14003
928,9.28,-0.148755,0.294823,0.487955,0.25387600000000005,-0.187378,-0.168793
929,9.29,-0.03274,0.326621,0.45871000000000006,0.280502,-0.193771,-0.20606999999999998
930,9.3,0.08122600000000002,0.412367,0.362478,0.30075100000000005,-0.17778,-0.242294
931,9.31,0.192994,0.509677,0.294798,0.308197,-0.137299,-0.275314
932,9.32,0.318797,0.632513,0.20828200000000002,0.2901,-0.05635100000000001,-0.298752
933,9.33,0.375884,0.79468,0.21605300000000002,0.243225,0.033142000000000005,-0.315796
934,9.34,0.35531399999999996,0.895158,0.368983,0.17717,0.116226,-0.33177199999999996
935,9.35,0.20417000000000002,0.9292239999999999,0.55152,0.098343,0.182266,-0.346695
936,9.36,-0.004155000000000006,0.850434,0.830343,0.009932999999999996,0.24086,-0.347748
937,9.37,-0.18699200000000002,0.778656,1.14255,-0.075287,0.27920500000000004,-0.329651
938,9.38,-0.410272,0.610643,1.45907,-0.138138,0.27175900000000003,-0.298752
939,9.39,-0.580643,0.33227399999999996,1.7330720000000002,-0.172226,0.23341399999999998,-0.25614899999999996
940,9.4,-0.606467,-0.014694000000000013,1.8895689999999998,-0.16583299999999998,0.1418,-0.20713800000000002
941,9.41,-0.52673,-0.24356999999999998,1.9274,-0.118973,-0.011611999999999985,-0.164536
942,9.42,-0.257799,-0.42944799999999994,1.7217630000000002,-0.047592,-0.208679,-0.143219
943,9.43,0.114145,-0.5018199999999999,1.328915,0.03656,-0.42492700000000005,-0.148544
944,9.44,0.538358,-0.498939,0.8940799999999999,0.110062,-0.551697,-0.16986099999999998
945,9.45,0.8270430000000001,-0.404909,0.45531000000000005,0.153748,-0.5591430000000001,-0.193298
946,9.46,1.056997,-0.36270399999999997,0.12191000000000002,0.152679,-0.466476,-0.210342
947,9.47,1.2708979999999999,-0.359254,0.0049039999999999995,0.114319,-0.308807,-0.222061
948,9.48,1.361433,-0.340385,0.097232,0.081299,-0.14582799999999999,-0.22950700000000002
949,9.49,1.345693,-0.479088,0.321886,0.062134,0.0033109999999999945,-0.22950700000000002
950,9.5,1.264217,-0.6537310000000001,0.5395909999999999,0.065323,0.118362,-0.232712
951,9.51,1.12057,-0.802845,0.691916,0.09301799999999999,0.147125,-0.24868800000000002
952,9.52,0.8830469999999999,-0.9399290000000001,0.804024,0.127106,0.12262,-0.283844
953,9.53,0.63016,-1.030657,0.6870189999999999,0.165451,0.05658,-0.30300900000000003
954,9.54,0.43096,-1.006304,0.519966,0.202744,-0.022263,-0.305145
955,9.55,0.268015,-0.9442010000000001,0.246088,0.225113,-0.08190900000000001,-0.279572
956,9.56,0.147759,-0.9397790000000001,-0.081062,0.22192399999999998,-0.115997,-0.22418200000000002
957,9.57,0.114561,-0.899816,-0.359091,0.179306,-0.101089,-0.148544
958,9.58,0.136188,-0.857025,-0.513493,0.105804,-0.051025,-0.070786
959,9.59,0.185804,-0.887913,-0.6131949999999999,0.0056760000000000005,-0.009476000000000002,0.005919999999999997
960,9.6,0.254287,-0.9889040000000001,-0.557106,-0.094467,-0.016937,0.084747
961,9.61,0.279348,-1.090075,-0.515269,-0.19354200000000002,-0.067001,0.14546199999999998
962,9.62,0.391431,-1.1738819999999999,-0.42833999999999994,-0.27876300000000004,-0.15115399999999998,0.190201
963,9.63,0.458413,-1.255374,-0.153765,-0.342667,-0.239578,0.21363800000000002
964,9.64,0.5020680000000001,-1.272471,0.017708000000000015,-0.362915,-0.324799,0.20724499999999998
965,9.65,0.5922270000000001,-1.284225,0.129251,-0.32456999999999997,-0.407883,0.184875
966,9.66,0.641486,-1.203185,0.12003399999999999,-0.264908,-0.43878199999999995,0.14971900000000002
967,9.67,0.679581,-1.065796,0.058296,-0.195663,-0.38765,0.110306
968,9.68,0.682474,-0.95281,-0.084985,-0.127487,-0.317337,0.079422
969,9.69,0.679238,-0.848662,-0.18348399999999998,-0.07103,-0.222534,0.050658999999999996
970,9.7,0.665608,-0.6656529999999999,-0.244344,-0.022034,-0.080841,0.030411
971,9.71,0.627698,-0.53959,-0.271857,0.01738,0.065094,0.021896000000000002
972,9.72,0.481216,-0.417996,-0.285669,0.039764,0.17161600000000002,0.017624
973,9.73,0.37791199999999997,-0.315212,-0.22672199999999998,0.04509,0.234467,0.011245999999999999
974,9.74,0.33167199999999997,-0.181598,-0.182901,0.042953,0.239792,0.0016480000000000002
975,9.75,0.203941,-0.141034,-0.18145,0.035492,0.205704,0.0005800000000000003
976,9.76,0.171093,-0.041996999999999986,-0.215401,0.022719999999999997,0.17482,-0.005797999999999999
977,9.77,0.121866,0.042863,-0.203118,0.006729000000000001,0.150314,-0.003677
978,9.78,0.11325,0.192967,-0.19129200000000002,-0.007110999999999998,0.134338,0.006973
979,9.79,0.029525,0.197424,-0.287594,-0.025223,0.12475599999999999,0.030411
980,9.8,0.008676999999999999,0.263265,-0.31147600000000003,-0.053986,0.137527,0.067703
981,9.81,-0.028071,0.33260700000000004,-0.33628800000000003,-0.092331,0.151382,0.110306
982,9.82,-0.061598,0.326947,-0.292501,-0.138138,0.151382,0.14971900000000002
983,9.83,-0.054653,0.326653,-0.264696,-0.181824,0.13327,0.180618
984,9.84,-0.028285,0.321006,-0.193496,-0.215912,0.076813,0.199799
985,9.85,0.033224000000000004,0.301929,-0.139427,-0.23400900000000002,0.002243000000000009,0.21044899999999997
986,9.86,0.143295,0.251499,-0.118346,-0.23081999999999997,-0.082977,0.20938099999999998
987,9.87,0.251008,0.28836300000000004,-0.121327,-0.203125,-0.137299,0.19659400000000002
988,9.88,0.385183,0.344023,-0.16356300000000001,-0.16050699999999998,-0.158615,0.17955
989,9.89,0.501422,0.380643,-0.22585500000000003,-0.105118,-0.11813399999999999,0.15504500000000002
990,9.9,0.589151,0.393269,-0.190351,-0.049727999999999994,-0.033981,0.132675
991,9.91,0.666352,0.433113,-0.223379,0.006728999999999999,0.082138,0.10818499999999999
992,9.92,0.712725,0.420494,-0.15437,0.056808000000000004,0.195053,0.089005
993,9.93,0.664458,0.406329,-0.12044300000000001,0.096222,0.280273,0.067703
994,9.94,0.6014510000000001,0.421875,0.005636000000000002,0.12178,0.327148,0.043198
995,9.95,0.502834,0.43377,0.151175,0.136703,0.336731,0.015503
996,9.96,0.377212,0.429943,0.26277399999999995,0.161194,0.284546,-0.009002999999999999
997,9.97,0.28984699999999997,0.48159399999999997,0.332845,0.189957,0.20784,-0.031372000000000004
998,9.98,0.254616,0.52972,0.368929,0.21446199999999999,0.158844,-0.053741
999,9.99,0.18218900000000002,0.595283,0.457031,0.23683200000000001,0.15457200000000001,-0.061203
1000,10.0,0.098353,0.567475,0.528542,0.269852,0.17056300000000002,-0.061203
1001,10.01,0.05872,0.6410140000000001,0.628833,0.315659,0.185471,-0.049484
1002,10.02,0.067734,0.738949,0.6572020000000001,0.362534,0.184402,-0.02179
1003,10.03,0.089126,0.749138,0.619636,0.40408299999999997,0.173752,0.013366999999999999
1004,10.04,0.118915,0.746276,0.545596,0.418991,0.16203299999999998,0.040008999999999996
1005,10.05,0.058138,0.763239,0.529192,0.400879,0.13327,0.07196
1006,10.06,-0.015733000000000004,0.768379,0.5727869999999999,0.343353,0.062958,0.116699
1007,10.07,-0.238288,0.6900890000000001,0.565164,0.247482,-0.07019,0.176361
1008,10.08,-0.257386,0.586839,0.514698,0.117523,-0.257675,0.248795
1009,10.09,-0.30178299999999997,0.45773400000000003,0.452766,-0.043335000000000005,-0.43132,0.32655300000000004
1010,10.1,-0.251306,0.237429,0.4213,-0.221237,-0.544235,0.39473
1011,10.11,-0.19914300000000001,0.01868400000000001,0.44494300000000003,-0.39061,-0.594299,0.444809
1012,10.12,-0.24377800000000002,-0.232594,0.610843,-0.5184479999999999,-0.599625,0.470367
1013,10.13,-0.382266,-0.5244770000000001,0.882709,-0.590881,-0.567673,0.486343
1014,10.14,-0.48135600000000006,-0.7162149999999999,1.074645,-0.578094,-0.545303,0.492737
1015,10.15,-0.5039640000000001,-0.859685,1.2308569999999999,-0.48648100000000005,-0.5346529999999999,0.487411
1016,10.16,-0.409625,-0.9429780000000001,1.197035,-0.33628800000000003,-0.511215,0.47143599999999997
1017,10.17,-0.364299,-0.912731,1.0709959999999998,-0.15945399999999998,-0.462204,0.44799799999999995
1018,10.18,-0.229404,-0.8848440000000001,0.779914,0.016327000000000008,-0.378052,0.42242399999999997
1019,10.19,0.0026349999999999985,-0.8200129999999999,0.455082,0.16758699999999999,-0.270462,0.39366100000000004
1020,10.2,0.232187,-0.677235,0.13885699999999998,0.278381,-0.113876,0.359573
1021,10.21,0.38287899999999997,-0.5834550000000001,-0.09438000000000002,0.342285,0.08213800000000003,0.324432
1022,10.22,0.48503900000000005,-0.507085,-0.343001,0.379578,0.24406399999999998,0.285019
1023,10.23,0.5205310000000001,-0.497701,-0.479612,0.367859,0.353775,0.240265
1024,10.24,0.448221,-0.479724,-0.574181,0.316727,0.426224,0.17955
1025,10.25,0.33311399999999997,-0.453459,-0.530984,0.23896799999999999,0.46670500000000004,0.120956
1026,10.26,0.15526500000000001,-0.410214,-0.400793,0.160126,0.49758900000000006,0.07728600000000001
1027,10.27,-0.061298000000000005,-0.392599,-0.221598,0.08876,0.525284,0.050658999999999996
1028,10.28,-0.276946,-0.37599499999999997,-0.004604999999999998,0.029099,0.548721,0.041061
1029,10.29,-0.476067,-0.27065,0.249619,-0.023087,0.587067,0.050658999999999996
1030,10.3,-0.635205,-0.25192800000000004,0.414714,-0.057175,0.628616,0.073029
1031,10.31,-0.774073,-0.290217,0.6279170000000001,-0.077423,0.655258,0.10285899999999999
1032,10.32,-0.806381,-0.32962199999999997,0.731003,-0.077423,0.644592,0.134811
1033,10.33,-0.8253450000000001,-0.328515,0.862466,-0.056122000000000005,0.57962,0.16037
1034,10.34,-0.7889430000000001,-0.429871,0.814692,-0.018829,0.48480200000000007,0.176361
1035,10.35,-0.73114,-0.49491599999999997,0.6278,0.026978,0.358047,0.175293
1036,10.36,-0.659508,-0.566908,0.363229,0.070648,0.20784,0.169968
1037,10.37,-0.523159,-0.578417,0.009763999999999995,0.091949,0.072556,0.15078699999999998
1038,10.38,-0.38669899999999996,-0.519131,-0.284163,0.074905,0.002243000000000002,0.126282
1039,10.39,-0.280358,-0.396348,-0.505117,0.03656,-0.011612,0.099655
1040,10.4,-0.198937,-0.33064899999999997,-0.528682,-0.00499,0.026749,0.068756
1041,10.41,-0.188276,-0.309363,-0.506987,-0.030548000000000002,0.076813,0.041061
1042,10.42,-0.23824,-0.327949,-0.404149,-0.028426999999999997,0.106644,0.018692
1043,10.43,-0.24741799999999997,-0.268059,-0.365771,0.0003359999999999995,0.131134,-0.0004729999999999994
1044,10.44,-0.261859,-0.25199099999999997,-0.426975,0.038696,0.146057,-0.018585
1045,10.45,-0.29625999999999997,-0.170155,-0.45924,0.070648,0.160965,-0.03244
1046,10.46,-0.333329,-0.14663900000000002,-0.633159,0.08876,0.140732,-0.033507999999999996
1047,10.47,-0.289063,-0.071841,-0.734108,0.071716,0.110901,-0.033507999999999996
1048,10.48,-0.22779899999999997,0.043697,-0.7715810000000001,0.019516,0.099182,-0.029236
1049,10.49,-0.14618599999999998,0.137428,-0.7869550000000001,-0.052917000000000006,0.092789,-0.030304
1050,10.5,-0.173782,0.165552,-0.667883,-0.133881,0.082138,-0.034561
1051,10.51,-0.22169,0.156685,-0.515918,-0.20951799999999998,0.057632,-0.033507999999999996
1052,10.52,-0.279634,0.10380199999999999,-0.377973,-0.260651,0.013962000000000002,-0.022841999999999998
1053,10.53,-0.357365,0.08414500000000001,-0.214836,-0.286209,-0.030777,-0.014328
1054,10.54,-0.398809,0.072689,-0.067879,-0.293671,-0.051025,-0.020721
1055,10.55,-0.47866800000000004,0.060771000000000006,0.063192,-0.28302,-0.057404,-0.034561
1056,10.56,-0.5642729999999999,0.054687,0.197374,-0.247864,-0.055283000000000006,-0.052673000000000005
1057,10.57,-0.631163,0.10720299999999999,0.283115,-0.19886800000000002,-0.036101999999999995,-0.071854
1058,10.58,-0.727641,0.154025,0.38592,-0.138138,-0.013733,-0.081436
1059,10.59,-0.7266560000000001,0.22461,0.319523,-0.058243,-0.022262999999999998,-0.078247
1060,10.6,-0.702101,0.24791999999999997,0.27061599999999997,0.009932999999999999,-0.022262999999999998,-0.076111
1061,10.61,-0.6325390000000001,0.310174,0.09299500000000001,0.057861,-0.011612,-0.072922
1062,10.62,-0.5885699999999999,0.304701,0.007035,0.08982799999999999,-0.012665000000000001,-0.075043
1063,10.63,-0.553876,0.34406,-0.09767299999999997,0.106873,-0.006271,-0.080368
1064,10.64,-0.562783,0.338073,-0.10728499999999999,0.11112999999999999,-0.007339,-0.08569299999999999
1065,10.65,-0.605568,0.340013,-0.0722,0.104736,-0.008408,-0.088898
1066,10.66,-0.630107,0.317164,-0.070879,0.10366800000000001,-0.024384,-0.08357200000000001
1067,10.67,-0.622664,0.34568499999999996,0.02142000000000001,0.09301799999999999,-0.048889,-0.073975
1068,10.68,-0.523648,0.35378000000000004,0.076002,0.085556,-0.073395,-0.066528
1069,10.69,-0.489451,0.36362300000000003,0.13358299999999998,0.079178,-0.10321,-0.057999
1070,10.7,-0.398855,0.27261799999999997,0.194024,0.077042,-0.13410899999999998,-0.057999
1071,10.71,-0.39163400000000004,0.279939,0.279996,0.075974,-0.15115399999999998,-0.070786
1072,10.72,-0.379209,0.278089,0.364116,0.079178,-0.16394,-0.08996599999999999
1073,10.73,-0.384355,0.220259,0.495774,0.097275,-0.16713,-0.102737
1074,10.74,-0.411004,0.174349,0.565336,0.11965899999999999,-0.176727,-0.118729
1075,10.75,-0.36559200000000003,0.18753599999999998,0.6255470000000001,0.14735399999999998,-0.193771,-0.135773
1076,10.76,-0.187606,0.215023,0.6609229999999999,0.17717,-0.21826199999999998,-0.157074
1077,10.77,-0.100326,0.275441,0.600946,0.21020500000000003,-0.259811,-0.19222999999999998
1078,10.78,0.069323,0.362104,0.43256400000000006,0.230438,-0.288574,-0.24015799999999998
1079,10.79,0.201066,0.5267430000000001,0.332022,0.228302,-0.272598,-0.283844
1080,10.8,0.297122,0.666447,0.222642,0.184631,-0.189499,-0.300888
1081,10.81,0.307081,0.722002,0.217984,0.136703,-0.14476,-0.301956
1082,10.82,0.302217,0.688488,0.191462,0.074905,-0.115997,-0.292358
1083,10.83,0.196222,0.516426,0.324284,-0.0017850000000000019,-0.097885,-0.276382
1084,10.84,0.099422,0.216734,0.424263,-0.112579,-0.082977,-0.232712
1085,10.85,0.145322,0.145016,0.569943,-0.171158,-0.038238999999999995,-0.208206
1086,10.86,0.042332,-0.035824000000000016,0.6707390000000001,-0.228683,0.009705,-0.195419
1087,10.87,-0.087014,-0.246569,0.794083,-0.271301,0.0022429999999999998,-0.178375
1088,10.88,-0.171599,-0.400816,0.9287,-0.298996,-0.06486499999999999,-0.16026300000000002
1089,10.89,-0.181179,-0.573976,0.954895,-0.309647,-0.184174,-0.151749
1090,10.9,-0.195793,-0.712517,0.882933,-0.319244,-0.33224499999999996,-0.143219
1091,10.91,-0.052802999999999996,-0.787293,0.772457,-0.327759,-0.49203500000000006,-0.1315
1092,10.92,0.128984,-0.841467,0.650027,-0.310715,-0.639038,-0.12831099999999998
1093,10.93,0.409724,-0.8431620000000001,0.426504,-0.276627,-0.742371,-0.130447
1094,10.94,0.734753,-0.782831,0.306608,-0.237213,-0.74025,-0.14535499999999998
1095,10.95,0.975561,-0.7242069999999999,0.140825,-0.196732,-0.6624760000000001,-0.18051099999999998
1096,10.96,1.082011,-0.657303,0.009320000000000007,-0.143463,-0.569809,-0.23057600000000003
1097,10.97,1.18598,-0.59305,0.05873099999999999,-0.083817,-0.422791,-0.29023699999999997
1098,10.98,1.046275,-0.47751099999999996,0.14699500000000001,-0.024155000000000003,-0.234238,-0.356277
1099,10.99,0.880707,-0.41105699999999995,0.166573,0.054672000000000005,-0.08404500000000001,-0.414871
1100,11.0,0.619819,-0.364419,0.172189,0.13456700000000002,0.026749000000000002,-0.45535299999999995
1101,11.01,0.37769,-0.295696,0.042753,0.191025,0.118362,-0.46386700000000003
1102,11.02,0.185446,-0.253327,-0.043686,0.21446199999999999,0.173752,-0.44682299999999997
1103,11.03,0.042235,-0.24709299999999998,-0.21131799999999998,0.202744,0.190796,-0.405273
1104,11.04,-0.072035,-0.223517,-0.274422,0.153748,0.18866,-0.345627
1105,11.05,-0.131053,-0.258994,-0.30841799999999997,0.07811,0.16735799999999998,-0.274246
1106,11.06,-0.18632200000000002,-0.26223,-0.288665,0.0014040000000000025,0.12901300000000002,-0.19755599999999998
1107,11.07,-0.129,-0.258695,-0.225248,-0.07103,0.095993,-0.118729
1108,11.08,-0.106145,-0.355756,-0.174569,-0.145599,0.043793,-0.040955
1109,11.09,-0.047673,-0.42153999999999997,-0.12228900000000001,-0.205261,-0.0457,0.025085
1110,11.1,0.052488,-0.43511099999999997,-0.12393299999999999,-0.252121,-0.159683,0.07196
1111,11.11,0.18046600000000002,-0.424436,-0.168523,-0.279816,-0.280045,0.098587
1112,11.12,0.363072,-0.39267399999999997,-0.178154,-0.297928,-0.355682,0.10497999999999999
1113,11.13,0.47520500000000004,-0.349684,-0.20721599999999998,-0.301132,-0.365265,0.09751900000000001
1114,11.14,0.535874,-0.305166,-0.21660500000000002,-0.280884,-0.35035700000000003,0.08367899999999999
1115,11.15,0.5428890000000001,-0.282113,-0.210321,-0.244675,-0.302429,0.063431
1116,11.16,0.509013,-0.269201,-0.163554,-0.19886800000000002,-0.225723,0.051712
1117,11.17,0.541507,-0.23967600000000003,-0.132803,-0.138138,-0.156479,0.043198
1118,11.18,0.5144890000000001,-0.23582899999999998,-0.121196,-0.064636,-0.096832,0.02829
1119,11.19,0.54423,-0.21804899999999997,-0.16712,0.0014040000000000025,-0.043564,0.010178
1120,11.2,0.579141,-0.172938,-0.231304,0.06318700000000001,0.003311000000000001,-0.007935
1121,11.21,0.6180359999999999,-0.082999,-0.282188,0.11112999999999999,0.042725,-0.031372000000000004
1122,11.22,0.654878,-0.009488999999999996,-0.401091,0.140961,0.075745,-0.06439199999999999
1123,11.23,0.5673199999999999,0.051377,-0.466764,0.153748,0.09385700000000001,-0.093155
1124,11.24,0.41489,0.135658,-0.501621,0.152679,0.123688,-0.10701
1125,11.25,0.252268,0.170227,-0.464974,0.142029,0.163101,-0.103806
1126,11.26,0.10794400000000001,0.21670799999999998,-0.45473100000000005,0.133499,0.181213,-0.082504
1127,11.27,-0.087809,0.179205,-0.42503900000000006,0.12178,0.178009,-0.039886000000000005
1128,11.28,-0.127055,0.175377,-0.478445,0.100479,0.168427,0.011246
1129,11.29,-0.076578,0.175208,-0.507137,0.075974,0.146057,0.066635
1130,11.3,-0.035017,0.180429,-0.513039,0.038696,0.126877,0.107117
1131,11.31,0.038758,0.1987,-0.559669,-0.006042000000000002,0.11303699999999998,0.129486
1132,11.32,0.093291,0.268374,-0.51388,-0.051849000000000006,0.09811399999999999,0.13694800000000001
1133,11.33,0.121246,0.2671,-0.491483,-0.092331,0.076813,0.15078699999999998
1134,11.34,0.16686800000000002,0.344332,-0.404375,-0.118973,0.06828300000000001,0.16250599999999998
1135,11.35,0.17981,0.377686,-0.312822,-0.143463,0.087463,0.180618
1136,11.36,0.197319,0.40741900000000003,-0.16127,-0.14666700000000002,0.11729400000000001,0.190201
1137,11.37,0.162027,0.43912799999999996,0.06424800000000004,-0.13707,0.156708,0.193405
1138,11.38,0.15326099999999998,0.421235,0.22231700000000001,-0.10298199999999999,0.17588800000000002,0.195526
1139,11.39,0.083084,0.364658,0.383198,-0.045471,0.180145,0.19233699999999998
1140,11.4,0.076964,0.397173,0.40266,0.022719999999999997,0.173752,0.191269
1141,11.41,0.11312,0.42009300000000005,0.383065,0.084503,0.193985,0.194458
1142,11.42,0.191071,0.43972100000000003,0.298892,0.129242,0.211029,0.194458
1143,11.43,0.22612600000000002,0.43843000000000004,0.248542,0.161194,0.218491,0.190201
1144,11.44,0.27021100000000003,0.466002,0.17738299999999999,0.171844,0.215302,0.17741400000000002
1145,11.45,0.32660700000000004,0.488353,0.14624600000000001,0.173981,0.211029,0.165695
1146,11.46,0.224708,0.46266999999999997,0.186997,0.164398,0.203583,0.147598
1147,11.47,0.201872,0.4226,0.159657,0.156937,0.195053,0.142273
1148,11.48,0.172299,0.416817,0.218979,0.158005,0.181213,0.15399200000000002
1149,11.49,0.198461,0.401382,0.24496199999999999,0.16333,0.17482,0.17208900000000002
1150,11.5,0.316322,0.43941199999999997,0.23975700000000003,0.170792,0.17482,0.189133
1151,11.51,0.46796800000000005,0.48143100000000005,0.294695,0.184631,0.165222,0.20724499999999998
1152,11.52,0.547604,0.508139,0.250693,0.197418,0.168427,0.206177
1153,11.53,0.56742,0.510574,0.284835,0.199554,0.191864,0.206177
1154,11.54,0.6409590000000001,0.599572,0.31711100000000003,0.192093,0.219559,0.215775
1155,11.55,0.712737,0.7000270000000001,0.339723,0.172913,0.265366,0.23068200000000003
1156,11.56,0.6954140000000001,0.775734,0.343244,0.132431,0.320755,0.24240100000000003
1157,11.57,0.5703630000000001,0.696944,0.39731500000000003,0.061065999999999995,0.395325,0.24559
1158,11.58,0.327844,0.6049800000000001,0.50447,-0.04759200000000001,0.48693800000000004,0.25198400000000004
1159,11.59,0.00572700000000001,0.42645900000000003,0.737696,-0.180756,0.5540470000000001,0.277557
1160,11.6,-0.44220699999999996,0.08371800000000001,1.121964,-0.308578,0.5625760000000001,0.32016
1161,11.61,-0.797435,-0.23871400000000004,1.477601,-0.402328,0.496521,0.370239
1162,11.62,-1.017144,-0.64268,1.830548,-0.43855299999999997,0.33779899999999996,0.41391000000000006
1163,11.63,-1.153867,-0.937743,2.000923,-0.40126,0.106644,0.429886
1164,11.64,-1.044058,-1.127683,1.923632,-0.28302,-0.173523,0.420303
1165,11.65,-0.5214340000000001,-1.0191860000000001,1.4322700000000002,0.006728999999999999,-0.4505,0.39366100000000004
1166,11.66,-0.09366100000000001,-0.8385530000000001,0.8331059999999999,0.209137,-0.474991,0.33934000000000003
1167,11.67,0.129183,-0.5947600000000001,0.201062,0.372116,-0.417465,0.277557
1168,11.68,0.39469499999999996,-0.321887,-0.317265,0.453079,-0.27366599999999996,0.246658
1169,11.69,0.559174,-0.108492,-0.695543,0.458405,-0.105347,0.232819
1170,11.7,0.629234,0.044462,-0.878142,0.401947,0.06190499999999999,0.220032
1171,11.71,0.632564,0.051372,-0.8304030000000001,0.31140100000000004,0.20144700000000001,0.20724499999999998
1172,11.72,0.49928100000000003,-0.0019390000000000032,-0.557712,0.205933,0.30159,0.202988
1173,11.73,0.343638,-0.076137,-0.23204800000000006,0.11645499999999999,0.34526100000000004,0.19766199999999998
1174,11.74,0.19331500000000001,-0.141282,0.053770000000000005,0.047211,0.346329,0.183807
1175,11.75,0.011798000000000005,-0.175483,0.341582,-0.0007169999999999988,0.332474,0.173157
1176,11.76,-0.20086099999999998,-0.219442,0.566491,-0.032684,0.31543000000000004,0.158249
1177,11.77,-0.432828,-0.270421,0.704598,-0.049727999999999994,0.30796799999999996,0.15504500000000002
1178,11.78,-0.6133930000000001,-0.26410100000000003,0.801847,-0.064636,0.304779,0.161438
1179,11.79,-0.799978,-0.268226,0.804756,-0.07635499999999999,0.302643,0.17955
1180,11.8,-0.900985,-0.377927,0.780281,-0.084885,0.272827,0.20724499999999998
1181,11.81,-0.945332,-0.533461,0.684314,-0.089142,0.202515,0.24240100000000003
1182,11.82,-0.871326,-0.586565,0.49273599999999995,-0.09021,0.10771199999999999,0.26902800000000004
1183,11.83,-0.721424,-0.649516,0.304164,-0.092331,-0.0009460000000000024,0.282883
1184,11.84,-0.5276390000000001,-0.714993,0.09441000000000001,-0.094467,-0.08616599999999999,0.277557
1185,11.85,-0.424908,-0.700449,-0.15641299999999994,-0.091263,-0.161804,0.261581
1186,11.86,-0.28294,-0.714141,-0.354596,-0.079559,-0.217194,0.23068200000000003
1187,11.87,-0.28456,-0.704758,-0.593083,-0.072098,-0.242767,0.195526
1188,11.88,-0.294593,-0.67123,-0.748393,-0.072098,-0.22998000000000002,0.16037
1189,11.89,-0.282051,-0.633618,-0.859504,-0.07421900000000001,-0.19056700000000001,0.13694800000000001
1190,11.9,-0.289687,-0.581331,-0.8538379999999999,-0.075287,-0.10641500000000001,0.116699
1191,11.91,-0.25904099999999997,-0.5249729999999999,-0.729345,-0.07421900000000001,0.032074,0.110306
1192,11.92,-0.262425,-0.512074,-0.526446,-0.044403,0.157776,0.111374
1193,11.93,-0.303965,-0.518145,-0.328942,0.0024719999999999985,0.237671,0.099655
1194,11.94,-0.269569,-0.5397529999999999,-0.25506799999999996,0.05574,0.261108,0.08367899999999999
1195,11.95,-0.27116999999999997,-0.501224,-0.24163600000000002,0.101547,0.24725300000000003,0.070892
1196,11.96,-0.22803600000000002,-0.44068100000000004,-0.334867,0.12071199999999999,0.21316500000000002,0.053848
1197,11.97,-0.185335,-0.38663400000000003,-0.436276,0.11538699999999999,0.17482,0.030411
1198,11.98,-0.185279,-0.297513,-0.562578,0.079178,0.142853,0.010178
1199,11.99,-0.20269,-0.230781,-0.595122,0.016327,0.130081,-0.0004729999999999999
1200,12.0,-0.181641,-0.202739,-0.546118,-0.05717499999999999,0.126877,-0.006866
1201,12.01,-0.24375,-0.176513,-0.478814,-0.131744,0.12901300000000002,-0.012192
1202,12.02,-0.340515,-0.21419699999999997,-0.22705100000000003,-0.192474,0.119431,-0.016464
1203,12.03,-0.42767700000000003,-0.20624,-0.015655000000000002,-0.22442600000000001,0.099182,-0.019653
1204,12.04,-0.504183,-0.27139,0.17664100000000002,-0.221237,0.054443,-0.026047000000000004
1205,12.05,-0.520063,-0.22611199999999998,0.33328800000000003,-0.1978,0.018219,-0.040955
1206,12.06,-0.48573599999999995,-0.24691799999999997,0.350373,-0.16583299999999998,-0.016937,-0.063324
1207,12.07,-0.409603,-0.21018299999999998,0.352879,-0.120026,-0.067001,-0.08357200000000001
1208,12.08,-0.39016999999999996,-0.131687,0.265615,-0.069962,-0.102158,-0.118729
1209,12.09,-0.36677600000000005,-0.052524,0.156885,-0.036942,-0.10321,-0.148544
1210,12.1,-0.377224,0.019465000000000003,0.08520499999999999,-0.006042,-0.090439,-0.171982
1211,12.11,-0.39652600000000005,0.08789,0.04396,0.025908999999999998,-0.08616599999999999,-0.191162
1212,12.12,-0.417662,0.188673,-0.009888,0.056808000000000004,-0.079788,-0.20181300000000002
1213,12.13,-0.399892,0.29146500000000003,-0.05805,0.085556,-0.067001,-0.203949
1214,12.14,-0.394962,0.368693,-0.08838,0.105804,-0.06486499999999999,-0.203949
1215,12.15,-0.416706,0.41126599999999996,-0.119769,0.11965899999999999,-0.087234,-0.20181300000000002
1216,12.16,-0.422675,0.545347,-0.182496,0.126038,-0.126648,-0.196487
1217,12.17,-0.370234,0.575908,-0.215631,0.12178,-0.162872,-0.183701
1218,12.18,-0.342881,0.666343,-0.220446,0.110062,-0.20015,-0.167725
1219,12.19,-0.321296,0.640965,-0.208671,0.094086,-0.23104899999999998,-0.151749
1220,12.2,-0.327571,0.668621,-0.18045799999999998,0.071716,-0.239578,-0.134705
1221,12.21,-0.332464,0.628318,-0.095851,0.052536,-0.24063099999999998,-0.125122
1222,12.22,-0.410355,0.5801109999999999,0.049556,0.040817,-0.239578,-0.12085
1223,12.23,-0.48570100000000005,0.522524,0.170275,0.042953,-0.253418,-0.113403
1224,12.24,-0.561579,0.479959,0.286195,0.056808000000000004,-0.26088,-0.103806
1225,12.25,-0.608626,0.44083500000000003,0.399925,0.072784,-0.259811,-0.096359
1226,12.26,-0.648447,0.43732200000000004,0.516332,0.098343,-0.272598,-0.095291
1227,12.27,-0.6064579999999999,0.439454,0.490492,0.132431,-0.307755,-0.10701
1228,12.28,-0.516139,0.473267,0.423371,0.165451,-0.33757,-0.129379
1229,12.29,-0.45034799999999997,0.495374,0.329219,0.179306,-0.335449,-0.165588
1230,12.3,-0.370698,0.568823,0.223702,0.184631,-0.316269,-0.202881
1231,12.31,-0.260151,0.767818,0.177498,0.18249500000000002,-0.287506,-0.23590100000000003
1232,12.32,-0.24549899999999997,0.916485,0.242565,0.170792,-0.21293600000000001,-0.265732
1233,12.33,-0.354117,0.9257200000000001,0.251432,0.155869,-0.126648,-0.282776
1234,12.34,-0.483318,0.861032,0.357402,0.14735399999999998,-0.049957000000000015,-0.285965
1235,12.35,-0.466041,0.831516,0.559579,0.14840699999999998,0.044861,-0.279572
1236,12.36,-0.491254,0.7938470000000001,0.681044,0.16758699999999999,0.159897,-0.265732
1237,12.37,-0.538596,0.598774,0.787137,0.18676800000000002,0.22169499999999998,-0.24868800000000002
1238,12.38,-0.58596,0.466372,0.903351,0.198486,0.232346,-0.23590100000000003
1239,12.39,-0.530578,0.32975,0.9108450000000001,0.201675,0.17694100000000001,-0.238037
1240,12.4,-0.532724,0.135329,0.932796,0.194214,0.085327,-0.238037
1241,12.41,-0.5543,0.040791,0.811525,0.16758699999999999,-0.012664999999999996,-0.24015799999999998
1242,12.42,-0.42682299999999995,-0.067358,0.7506729999999999,0.131363,-0.094696,-0.227386
1243,12.43,-0.297174,-0.18816300000000002,0.613008,0.07811,-0.141571,-0.208206
1244,12.44,-0.202761,-0.310252,0.549335,0.032303,-0.210815,-0.191162
1245,12.45,-0.115961,-0.48363599999999995,0.527259,-0.011383,-0.284317,-0.171982
1246,12.46,0.0029620000000000067,-0.675632,0.45432,-0.046524,-0.35675,-0.148544
1247,12.47,0.201772,-0.845053,0.384888,-0.069962,-0.443039,-0.130447
1248,12.48,0.46892799999999996,-0.8988959999999999,0.399119,-0.073166,-0.49736,-0.13789400000000002
1249,12.49,0.722001,-0.9552940000000001,0.355321,-0.056122000000000005,-0.513351,-0.178375
1250,12.5,0.9276200000000001,-0.919848,0.400499,0.00033600000000000296,-0.48671000000000003,-0.250809
1251,12.51,0.977734,-0.801236,0.41080500000000003,0.091949,-0.427063,-0.34988400000000003
1252,12.52,0.966253,-0.7532300000000001,0.381444,0.220856,-0.338638,-0.44043000000000004
1253,12.53,0.940745,-0.583803,0.33103499999999997,0.359329,-0.184174,-0.494766
1254,12.54,0.885232,-0.46231099999999997,0.153631,0.49781800000000004,-0.014800999999999996,-0.522461
1255,12.55,0.8567170000000001,-0.333982,-0.030342999999999995,0.600082,0.1418,-0.528854
1256,12.56,0.776383,-0.29046,-0.27607,0.635239,0.281342,-0.507538
1257,12.57,0.740475,-0.27423800000000004,-0.496399,0.606476,0.349518,-0.470261
1258,12.58,0.667153,-0.29241500000000004,-0.591279,0.521255,0.374023,-0.425522
1259,12.59,0.6002069999999999,-0.304742,-0.670077,0.405136,0.356979,-0.382904
1260,12.6,0.496354,-0.342157,-0.5739390000000001,0.271988,0.302643,-0.346695
1261,12.61,0.359311,-0.419335,-0.492609,0.142029,0.218491,-0.310471
1262,12.62,0.27450399999999997,-0.47628000000000004,-0.417588,0.03656,0.10876500000000001,-0.272125
1263,12.63,0.189077,-0.46938500000000005,-0.395332,-0.056122000000000005,-0.0052190000000000005,-0.233765
1264,12.64,0.166648,-0.46971899999999994,-0.342765,-0.144531,-0.093628,-0.19222999999999998
1265,12.65,0.131178,-0.454295,-0.30028499999999997,-0.22442600000000001,-0.150085,-0.15068099999999998
1266,12.66,0.12406800000000001,-0.43571800000000005,-0.206025,-0.292603,-0.17565899999999998,-0.097412
1267,12.67,0.082446,-0.469224,-0.138899,-0.330948,-0.184174,-0.039886000000000005
1268,12.68,0.135382,-0.539979,-0.059102,-0.346939,-0.184174,0.018692
1269,12.69,0.188236,-0.60444,0.049315999999999985,-0.341614,-0.17138699999999998,0.068756
1270,12.7,0.3067,-0.675673,0.17031,-0.317108,-0.172455,0.095398
1271,12.71,0.422908,-0.706763,0.188602,-0.270233,-0.201218,0.098587
1272,12.72,0.531883,-0.6991310000000001,0.13306700000000002,-0.202057,-0.24809299999999998,0.07728600000000001
1273,12.73,0.606508,-0.610911,0.060320000000000006,-0.136017,-0.278992,0.047455000000000004
1274,12.74,0.695643,-0.507545,-0.171815,-0.079559,-0.289642,0.002716
1275,12.75,0.767868,-0.319927,-0.351193,-0.042267,-0.267273,-0.042023000000000005
1276,12.76,0.7754810000000001,-0.116097,-0.426522,-0.016708,-0.199097,-0.081436
1277,12.77,0.675848,0.013106000000000008,-0.45874499999999996,0.001404,-0.089371,-0.102737
1278,12.78,0.5509689999999999,0.043679,-0.388646,0.014191,0.038467,-0.111267
1279,12.79,0.385398,0.158828,-0.299603,0.029099,0.149246,-0.102737
1280,12.8,0.26923800000000003,0.20701,-0.17211600000000002,0.04509,0.234467,-0.08357200000000001
1281,12.81,0.13161199999999998,0.19709000000000002,-0.05424400000000001,0.05574,0.272827,-0.055878
1282,12.82,0.024932,0.22198299999999999,-0.042217000000000005,0.06425499999999999,0.252579,-0.028183
1283,12.83,-0.019862000000000005,0.250316,-0.07295599999999998,0.06425499999999999,0.200378,-0.0026089999999999998
1284,12.84,-0.015059999999999999,0.312611,-0.173374,0.052536,0.136475,0.02829
1285,12.85,-0.008664,0.37861,-0.284137,0.024841,0.087463,0.057053
1286,12.86,0.006119000000000001,0.44243000000000005,-0.455251,-0.024155000000000003,0.052307000000000006,0.090073
1287,12.87,0.017361,0.46338199999999996,-0.493154,-0.07849099999999999,0.034194999999999996,0.12735
1288,12.88,0.02107,0.412312,-0.520727,-0.141342,0.02887,0.16676300000000002
1289,12.89,-3.300000000000001e-05,0.40254,-0.523726,-0.19354200000000002,0.008636,0.200851
1290,12.9,0.008322999999999999,0.31869200000000003,-0.501993,-0.225494,-0.019058000000000002,0.22535700000000003
1291,12.91,0.001504,0.28424699999999997,-0.457296,-0.24360700000000002,-0.040359,0.24453699999999998
1292,12.92,0.089904,0.26644,-0.42608900000000005,-0.240402,-0.048889,0.253052
1293,12.93,0.07953500000000001,0.292645,-0.43021000000000004,-0.22230500000000003,-0.047820999999999995,0.249863
1294,12.94,0.14790899999999998,0.304255,-0.33823400000000003,-0.177551,-0.006270999999999999,0.23494
1295,12.95,0.142334,0.285958,-0.298912,-0.134949,0.015029999999999996,0.22535700000000003
1296,12.96,0.163921,0.297795,-0.301603,-0.07635499999999999,0.019287000000000002,0.211502
1297,12.97,0.221848,0.292135,-0.34171599999999996,-0.020966,0.021422999999999998,0.190201
1298,12.98,0.287057,0.31712199999999996,-0.412386,0.022719999999999997,0.038467,0.173157
1299,12.99,0.324827,0.32444,-0.5140779999999999,0.048279,0.07041900000000001,0.152924
1300,13.0,0.408885,0.329579,-0.47352799999999995,0.061065999999999995,0.110901,0.132675
1301,13.01,0.418371,0.283694,-0.266944,0.073853,0.146057,0.11244200000000001
1302,13.02,0.403622,0.20893899999999999,-0.01791100000000001,0.101547,0.169495,0.099655
1303,13.03,0.467117,0.11261900000000001,0.20970300000000003,0.150543,0.165222,0.0858
1304,13.04,0.5166069999999999,0.128147,0.324849,0.219788,0.137527,0.057053
1305,13.05,0.615278,0.11878599999999999,0.306031,0.279434,0.119431,0.026154000000000004
1306,13.06,0.681551,0.176016,0.24396199999999998,0.317795,0.134338,-0.0004729999999999994
1307,13.07,0.637422,0.22021,0.117507,0.326309,0.146057,-0.02179
1308,13.08,0.5806060000000001,0.34074899999999997,0.067775,0.308197,0.1418,-0.03244
1309,13.09,0.5227470000000001,0.45953599999999994,0.01872,0.27092,0.131134,-0.028183
1310,13.1,0.49510200000000004,0.569021,-0.024827,0.22192399999999998,0.10025,-0.018585
1311,13.11,0.43428,0.651385,-0.032376,0.160126,0.043793,-0.007935
1312,13.12,0.369593,0.671798,-0.047168,0.091949,-0.007338999999999998,-0.0004730000000000001
1313,13.13,0.26334,0.741788,-0.041989,0.023773,-0.035033999999999996,0.00592
1314,13.14,0.11783099999999999,0.7502479999999999,0.06064300000000001,-0.035873,-0.040359,0.021896000000000002
1315,13.15,-0.012969999999999995,0.72847,0.220469,-0.084885,-0.025452000000000002,0.04213
1316,13.16,-0.176272,0.593982,0.389357,-0.107254,-0.0062710000000000005,0.073029
1317,13.17,-0.373233,0.45855,0.467746,-0.108322,0.001175,0.10391199999999999
1318,13.18,-0.442717,0.35735700000000004,0.594685,-0.10405,0.015030000000000003,0.142273
1319,13.19,-0.496198,0.219325,0.687483,-0.09765599999999999,0.042725,0.193405
1320,13.2,-0.543554,0.060372000000000016,0.674944,-0.089142,0.05658,0.23388699999999998
1321,13.21,-0.586633,-0.07726,0.694948,-0.09021,0.065094,0.27223200000000003
1322,13.22,-0.6022310000000001,-0.23695500000000003,0.7355520000000001,-0.100861,0.08107,0.31803899999999996
1323,13.23,-0.701146,-0.42471899999999996,0.8027350000000001,-0.109375,0.078949,0.35638400000000003
1324,13.24,-0.6890310000000001,-0.589408,0.81293,-0.109375,0.041656,0.391541
1325,13.25,-0.625211,-0.786867,0.772141,-0.09765599999999999,-0.024384000000000003,0.412842
1326,13.26,-0.519778,-0.8411770000000001,0.81307,-0.080612,-0.09149199999999999,0.421371
1327,13.27,-0.29597399999999996,-0.8517819999999999,0.763034,-0.042267,-0.16394,0.40538
1328,13.28,-0.14032999999999998,-0.818913,0.671404,0.009932999999999999,-0.225723,0.36491399999999996
1329,13.29,0.059901,-0.713993,0.477199,0.06957999999999999,-0.250229,0.316971
1330,13.3,0.222058,-0.526349,0.246538,0.12178,-0.22358699999999998,0.263702
1331,13.31,0.261765,-0.42195699999999997,0.062391999999999996,0.14415,-0.13092,0.21363800000000002
1332,13.32,0.24538600000000002,-0.31447800000000004,-0.04666,0.150543,-0.01799,0.175293
1333,13.33,0.20256500000000002,-0.177529,-0.054548,0.145218,0.13327,0.132675
1334,13.34,0.04407000000000001,-0.060917,-0.050751,0.132431,0.29092399999999996,0.10285899999999999
1335,13.35,-0.175804,-0.088019,-0.058497,0.110062,0.41769399999999995,0.0858
1336,13.36,-0.372444,-0.054233,-0.022633,0.065323,0.5071869999999999,0.079422
1337,13.37,-0.529058,-0.078083,0.019771,0.004608000000000001,0.573227,0.08154299999999999
1338,13.38,-0.602781,-0.06535099999999999,0.124892,-0.051849,0.6009220000000001,0.09219400000000001
1339,13.39,-0.702062,-0.028291000000000004,0.26169499999999996,-0.094467,0.5913390000000001,0.106049
1340,13.4,-0.825875,-0.041463,0.251688,-0.129623,0.5423279999999999,0.132675
1341,13.41,-0.889581,-0.078039,0.29170799999999997,-0.16477999999999998,0.46138,0.169968
1342,13.42,-0.902177,-0.130664,0.175587,-0.1978,0.35484299999999996,0.21684299999999998
1343,13.43,-0.854506,-0.210223,0.053259,-0.229752,0.254715,0.27116399999999996
1344,13.44,-0.812812,-0.281885,-0.053687,-0.262772,0.119431,0.293533
1345,13.45,-0.615809,-0.377307,-0.170495,-0.28302,0.017151,0.31910700000000003
1346,13.46,-0.471839,-0.45269499999999996,-0.310423,-0.286209,-0.033981,0.327621
1347,13.47,-0.365059,-0.467503,-0.417275,-0.270233,-0.063797,0.314835
1348,13.48,-0.24654299999999998,-0.44723900000000005,-0.451446,-0.23400900000000002,-0.065933,0.288208
1349,13.49,-0.153478,-0.434554,-0.5391229999999999,-0.177551,-0.043564,0.25411999999999996
1350,13.5,-0.086886,-0.368225,-0.59691,-0.110443,0.007568000000000002,0.206177
1351,13.51,0.0076050000000000015,-0.258759,-0.6144,-0.04866,0.099182,0.15078699999999998
1352,13.52,0.025083,-0.145782,-0.617589,0.011001999999999998,0.211029,0.10179099999999999
1353,13.53,-0.012506999999999999,-0.065352,-0.7244010000000001,0.068512,0.277084,0.057053
1354,13.54,-0.077556,0.000916,-0.806311,0.098343,0.314362,0.022964
1355,13.55,-0.159364,0.071487,-0.92738,0.091949,0.34419299999999997,0.012299
1356,13.56,-0.24366999999999997,0.179026,-1.018116,0.053604,0.346329,0.018692
1357,13.57,-0.339758,0.183928,-1.03245,-0.015640000000000005,0.323959,0.031479
1358,13.58,-0.39276700000000003,0.17011199999999999,-0.982034,-0.09979199999999999,0.281342,0.052779999999999994
1359,13.59,-0.380436,0.133761,-0.905516,-0.185013,0.21742199999999998,0.074097
1360,13.6,-0.382323,0.080359,-0.7113729999999999,-0.25851399999999997,0.143921,0.078354
1361,13.61,-0.393627,0.029355000000000003,-0.5941609999999999,-0.306458,0.059769,0.069824
1362,13.62,-0.412157,-0.058197000000000006,-0.412803,-0.320297,-0.015869,0.06131
1363,13.63,-0.363103,-0.031983,-0.299026,-0.308578,-0.052078,0.040008999999999996
1364,13.64,-0.32744,0.024741,-0.18476199999999998,-0.27769499999999997,-0.049957,0.011245999999999999
1365,13.65,-0.282715,0.080055,-0.112141,-0.215912,-0.029708999999999996,-0.019653
1366,13.66,-0.325884,0.113157,-0.10938699999999998,-0.143463,0.001174999999999999,-0.063324
1367,13.67,-0.331723,0.193245,-0.088291,-0.057175,0.034194999999999996,-0.097412
1368,13.68,-0.364092,0.22758699999999998,-0.10548800000000001,0.025908999999999998,0.072556,-0.126175
1369,13.69,-0.38813200000000003,0.303885,-0.219727,0.101547,0.10025,-0.143219
1370,13.7,-0.40053099999999997,0.343549,-0.378027,0.160126,0.119431,-0.157074
1371,13.71,-0.366292,0.408147,-0.536666,0.192093,0.12475599999999999,-0.15493800000000002
1372,13.72,-0.340675,0.506732,-0.677404,0.19528199999999998,0.115158,-0.149612
1373,13.73,-0.294157,0.54904,-0.688884,0.169724,0.10983299999999999,-0.138962
1374,13.74,-0.24494499999999997,0.668317,-0.638432,0.131363,0.09385700000000001,-0.13363599999999998
1375,13.75,-0.266952,0.73306,-0.522722,0.091949,0.064026,-0.134705
1376,13.76,-0.29936999999999997,0.7858,-0.291166,0.052536,0.042725,-0.130447
1377,13.77,-0.328989,0.8379340000000001,-0.07247,0.026978,0.02887,-0.125122
1378,13.78,-0.45770900000000003,0.84121,0.099915,0.018448,0.006499999999999999,-0.11766099999999999
1379,13.79,-0.531341,0.820688,0.25287800000000005,0.019516,-0.023315,-0.104874
1380,13.8,-0.617221,0.8516389999999999,0.401957,0.01738,-0.031845,-0.08569299999999999
1381,13.81,-0.615505,0.8645079999999999,0.55867,0.013123,-0.036101999999999995,-0.055878
1382,13.82,-0.606511,0.818926,0.6308159999999999,0.013123,-0.075516,-0.036697
1383,13.83,-0.491429,0.779694,0.716489,0.007797,-0.127716,-0.03244
1384,13.84,-0.362487,0.775476,0.771976,0.005676,-0.17991600000000002,-0.037766
1385,13.85,-0.211412,0.7959579999999999,0.7430770000000001,0.011002,-0.23744200000000001,-0.063324
1386,13.86,-0.009252999999999996,0.807416,0.774716,0.020584,-0.253418,-0.110199
1387,13.87,0.08706,0.853284,0.753677,0.039764,-0.20761100000000002,-0.161331
1388,13.88,0.150766,0.855192,0.699924,0.072784,-0.125595,-0.20713800000000002
