,ts,ax,ay,az,wx,wy,wz
0,0.0,-0.009326999999999995,0.050733999999999994,0.038568,0.01326,-0.000977,0.0038450000000000003
1,0.01,0.042273000000000005,0.060575,0.052172,0.019653,0.001144,0.0038450000000000003
2,0.02,-0.0030810000000000004,0.133444,0.006326999999999999,0.027114999999999997,0.010742,0.002777
3,0.03,-0.046617,0.11142300000000001,-0.017381999999999998,0.024978999999999998,0.013931,0.002777
4,0.04,-0.043382,0.03442,-0.0388,0.02179,0.013931,0.0038450000000000003
5,0.05,-0.008504000000000005,-0.014290999999999996,0.002732,0.019653,0.011795,0.001709
6,0.06,-0.005601,-0.087986,-0.03430699999999999,0.016464,0.00647,0.002777
7,0.07,0.026483,-0.13774,-0.032594,0.01326,0.009674,-0.000412
8,0.08,0.008498,-0.141994,-0.07082999999999999,0.009003,0.010742,-0.000412
9,0.09,0.022785,-0.098731,-0.09713300000000001,0.0015409999999999998,0.013931,-0.00148
10,0.1,-0.013151,-0.080665,-0.108662,-0.010178,0.014999,0.001709
11,0.11,-0.041026,0.025777999999999995,-0.11606500000000002,-0.016571000000000002,0.013931,0.001709
12,0.12,-0.036987,0.044959,-0.040373,-0.020828,0.0075379999999999996,0.0038450000000000003
13,0.13,-0.016128,0.07736699999999999,-0.017883999999999997,-0.022949,0.0022129999999999997,0.0038450000000000003
14,0.14,-0.002743000000000001,0.032317,0.016476000000000005,-0.021896000000000002,0.0022129999999999997,0.007034
15,0.15,-0.003998,-0.022758,0.041563,-0.025085,0.0075379999999999996,0.007034
16,0.16,-0.017986000000000002,-0.051864999999999994,0.037979,-0.022949,0.012863,0.0038450000000000003
17,0.17,-0.028256,-0.07936900000000001,-0.023703000000000002,-0.025085,0.013931,-0.00148
18,0.18,-0.069234,-0.10255999999999998,-0.019425,-0.037872,0.012863,0.002777
19,0.19,-0.031789,-0.077718,-0.020918,-0.046387,0.010742,0.0038450000000000003
20,0.2,-0.020866,-0.059635,-0.018966999999999998,-0.058105,0.010742,0.002777
21,0.21,-0.0009130000000000006,-0.048279,0.002489,-0.062377999999999996,0.005417,0.002777
22,0.22,0.026016,0.003281,0.021068,-0.063431,0.001144,0.002777
23,0.23,0.022627,0.06828300000000001,0.029457,-0.054916,-0.000977,0.005981
24,0.24,0.0004650000000000002,0.100279,0.033301,-0.044266,0.005417,0.004913
25,0.25,-0.005173,0.102897,0.02979,-0.035736000000000004,0.012863,0.001709
26,0.26,-0.015021000000000001,0.09060700000000001,0.008656,-0.034668,0.018188,-0.0025480000000000004
27,0.27,-0.033826999999999996,0.023585,-0.025833999999999996,-0.034668,0.022461000000000002,-0.003616
28,0.28,-0.047664,-0.068553,-0.019959,-0.04213,0.019257,-0.004684000000000001
29,0.29,-0.047131,-0.015466999999999998,-0.026463999999999998,-0.045334,0.016068,-0.003616
30,0.3,-0.051696000000000006,-0.029655,-0.007517000000000003,-0.049591,0.016068,0.001709
31,0.31,-0.053944000000000006,0.024163000000000004,-0.023196,-0.052779999999999994,0.014999,0.0006410000000000001
32,0.32,-0.054508,0.009634,-0.022373,-0.055984000000000006,0.013931,0.002777
33,0.33,-0.006770999999999999,0.033014999999999996,0.029598999999999986,-0.051712,0.014999,-0.000412
34,0.34,0.010162000000000001,0.028316,0.05924,-0.044266,0.019257,-0.003616
35,0.35,0.043555,0.041756000000000015,0.071122,-0.032547,0.022461000000000002,-0.002548
36,0.36,0.056445,-0.001912,0.04817,-0.024017,0.024582,-0.005737
37,0.37,0.030047000000000004,-0.031555,0.025203,-0.017624,0.020325,-0.003616
38,0.38,0.045029,0.0063,-0.000281,-0.015503,0.00647,-0.000412
39,0.39,0.046383,-0.012813000000000005,-0.0022870000000000013,-0.018692,7.599999999999968e-05,-0.00148
40,0.4,0.049354,0.031160000000000004,-0.028142,-0.01976,-0.004181,0.0006409999999999999
41,0.41,0.033672,0.025296000000000003,-0.015806,-0.018692,-0.006302,0.000641
42,0.42,0.038458,0.016737000000000002,-0.012561,-0.016571000000000002,-0.007370000000000001,0.0006409999999999999
43,0.43,-0.013378,-0.042104,-0.035835000000000006,-0.016571000000000002,-0.006302,-0.00148
44,0.44,-0.051222000000000004,-0.0056619999999999926,-0.07777200000000001,-0.020828,-0.006302,0.002777
45,0.45,-0.051632000000000004,-0.056364,-0.059774,-0.030411,-0.009506,0.001709
46,0.46,-0.04641,-0.082008,-0.045682,-0.036804,-0.011642,0.0038450000000000003
47,0.47,-0.029830000000000002,-0.050311,-0.0007889999999999997,-0.038939999999999995,-0.0159,0.008102
48,0.48,0.005738,0.005833999999999999,-0.015649,-0.039993,-0.019089,0.009170999999999999
49,0.49,0.027754,0.014766999999999999,-0.031844,-0.036804,-0.02655,0.011307
50,0.5,0.063876,0.124214,-0.041476,-0.032547,-0.036133,0.01236
51,0.51,0.07043200000000001,0.164168,0.017103,-0.025085,-0.046783,0.01236
52,0.52,0.046607,0.22528499999999999,0.11611199999999999,-0.018692,-0.04892,0.01236
53,0.53,0.015045,0.168575,0.13948,-0.012299,-0.047852,0.011307
54,0.54,-0.029133999999999997,0.12516300000000002,0.234206,-0.002716,-0.043594,0.005981
55,0.55,-0.008699,0.053942,0.21520999999999998,0.006866,-0.031876,0.007034
56,0.56,-0.060051,-0.042199,0.13458499999999998,0.017516999999999998,-0.016968,0.007034
57,0.57,0.007062000000000007,-0.10166499999999999,0.083039,0.02179,-0.004181,0.010239
58,0.58,0.049065,-0.066812,0.075181,0.019653,0.0032809999999999988,0.011307
59,0.59,0.118425,-0.003594,0.131716,0.015396,0.0075379999999999996,0.008102
60,0.6,0.089385,0.08180499999999999,0.224487,0.012192,0.018188,0.004913
61,0.61,0.073895,0.083551,0.30746,0.022858,0.032043,0.005981
62,0.62,-0.008424999999999998,0.058359000000000015,0.30036799999999997,0.038834,0.050156,0.002777
63,0.63,-0.120932,-0.017312999999999988,0.264443,0.053741,0.068253,0.002777
64,0.64,-0.19705899999999998,-0.127054,0.090377,0.056946000000000004,0.08743300000000001,0.005981
65,0.65,-0.293685,-0.186452,-0.012254,0.052673000000000005,0.098083,0.010239
66,0.66,-0.21114499999999997,-0.20754099999999998,-0.18763,0.037766,0.090637,0.014496
67,0.67,-0.184917,-0.188605,-0.29001,0.024978999999999998,0.06932100000000001,0.020888999999999998
68,0.68,-0.075438,-0.14163399999999998,-0.363352,0.009003,0.045883,0.026215
69,0.69,-0.042752,-0.038171,-0.22592800000000002,-0.010178,0.038437,0.026215
70,0.7,-0.13300399999999998,-0.011559,-0.219586,-0.020828,0.033112,0.026215
71,0.71,-0.146317,0.075373,-0.229954,-0.024017,0.024582,0.021957
72,0.72,-0.074647,0.16201,-0.297175,-0.011245999999999999,-0.006302000000000002,0.023025999999999998
73,0.73,0.051884000000000007,0.370255,-0.287501,0.007935,-0.055313,0.020888999999999998
74,0.74,0.120728,0.468567,-0.19181099999999998,0.028183,-0.08514400000000001,0.018753
75,0.75,0.138668,0.417249,-0.12141300000000001,0.04628,-0.096863,0.019821000000000002
76,0.76,0.099339,0.151515,-0.136629,0.06546,-0.08833300000000001,0.018753
77,0.77,-0.048166000000000014,-0.158955,-0.266662,0.080368,-0.077682,0.018753
78,0.78,-0.19203600000000004,-0.34738800000000003,-0.400802,0.081436,-0.0681,0.016632
79,0.79,-0.394863,-0.419433,-0.530143,0.061203,-0.061707000000000005,0.01236
80,0.8,-0.587166,-0.350794,-0.4916,0.03244,-0.057434000000000006,0.016632
81,0.81,-0.641556,-0.131063,-0.294508,-0.0016480000000000002,-0.055313,0.029404000000000003
82,0.82,-0.5689609999999999,0.099025,-0.07227900000000001,-0.030411,-0.037201,0.04007
83,0.83,-0.476156,0.216854,0.16908,-0.057037,-0.000976999999999999,0.042191
84,0.84,-0.403504,0.247792,0.314797,-0.068756,0.048019,0.037933
85,0.85,-0.334443,0.17943499999999998,0.352854,-0.064499,0.086365,0.029404000000000003
86,0.86,-0.23118899999999998,0.13031600000000002,0.349517,-0.047455000000000004,0.10661300000000001,0.023025999999999998
87,0.87,-0.083249,0.111677,0.21627,-0.026154000000000004,0.109802,0.023025999999999998
88,0.88,0.08059,0.11873399999999999,0.17056300000000002,-0.010178,0.098083,0.018753
89,0.89,0.220387,0.06365499999999999,0.102951,-0.008041,0.081039,0.018753
90,0.9,0.305371,0.015267,0.13530799999999998,-0.002716,0.06080599999999999,0.018753
91,0.91,0.30037800000000003,-0.095779,0.110196,0.0026089999999999998,0.048019,0.013428
92,0.92,0.18816,-0.247822,0.00508900000000001,0.006866,0.039505,0.008102
93,0.93,0.039044999999999996,-0.39237,-0.07371,0.010071,0.029907,0.004913
94,0.94,-0.138317,-0.376381,-0.118433,-0.0027160000000000005,0.023514,0.005981
95,0.95,-0.193485,-0.299423,-0.15546300000000002,-0.016571000000000002,0.019257,0.014496
96,0.96,-0.18116300000000002,-0.141325,-0.054251,-0.033615,0.010742,0.021957
97,0.97,-0.100643,0.018224000000000014,-0.0030279999999999994,-0.041061,-0.003112999999999999,0.024078
98,0.98,0.048783,0.200694,0.068382,-0.039993,-0.024413999999999998,0.027282999999999998
99,0.99,0.21170500000000003,0.36172600000000005,0.186055,-0.027222000000000003,-0.031876,0.023025999999999998
100,1.0,0.321073,0.390859,0.249169,-0.006973,-0.031876,0.015563999999999998
101,1.01,0.280445,0.336733,0.289436,0.011139,-0.016968,0.007034
102,1.02,0.174648,0.198477,0.220714,0.02179,7.599999999999968e-05,0.0038450000000000003
103,1.03,0.050118,0.00014999999999999736,0.112167,0.027114999999999997,0.012863,-0.002548
104,1.04,-0.062776,-0.17082200000000006,-0.020363999999999997,0.02179,0.019257,-0.006804999999999999
105,1.05,-0.181489,-0.326408,-0.020182,0.012192,0.022461000000000002,-0.005737
106,1.06,-0.294184,-0.357346,-0.057489,0.003677,0.027786,-0.01001
107,1.07,-0.273661,-0.316445,-0.10388299999999999,-0.005904999999999999,0.036301,-0.004684000000000001
108,1.08,-0.194734,-0.155522,-0.113408,-0.013366999999999999,0.04483,-0.003616
109,1.09,-0.06972,0.00021000000000000182,-0.098807,-0.021896000000000002,0.053345000000000004,-0.00148
110,1.1,0.05631,0.10896099999999999,0.03494400000000001,-0.024017,0.059738,-0.002548
111,1.11,0.139101,0.12482,0.160377,-0.016571000000000002,0.071457,-0.003616
112,1.12,0.12896300000000002,0.079695,0.16817200000000002,-0.004852,0.09169,-0.000412
113,1.13,0.09270700000000001,-0.094988,0.140042,0.0026089999999999998,0.127914,-0.003616
114,1.14,-0.045153000000000006,-0.300334,-0.003581000000000001,0.007935,0.150284,-0.006804999999999999
115,1.15,-0.27447,-0.34515999999999997,-0.22340700000000002,-0.008041,0.156677,-0.014266999999999998
116,1.16,-0.373172,-0.180674,-0.321367,-0.02829,0.148148,-0.019592
117,1.17,-0.42251400000000006,0.046132000000000006,-0.361265,-0.026154000000000004,0.12365699999999999,-0.019592
118,1.18,-0.252836,0.401337,-0.42815299999999995,-0.009109,0.082108,-0.016403
119,1.19,0.031463999999999985,0.663667,-0.47097,0.019653,0.022461000000000002,-0.008942
120,1.2,0.276996,0.776528,-0.456111,0.047348,-0.027618,-0.006804999999999999
121,1.21,0.46315500000000004,0.64831,-0.5020560000000001,0.066528,-0.074478,-0.005737
122,1.22,0.573542,0.34178000000000003,-0.509339,0.08569299999999999,-0.11283900000000001,0.001709
123,1.23,0.491883,0.0002649999999999875,-0.540567,0.100616,-0.12667799999999999,0.013428
124,1.24,0.24245,-0.22681300000000001,-0.58741,0.099548,-0.128815,0.019821000000000002
125,1.25,-0.086715,-0.366028,-0.589275,0.078247,-0.113907,0.023025999999999998
126,1.26,-0.484235,-0.44922399999999996,-0.54645,0.047348,-0.08833300000000001,0.019821000000000002
127,1.27,-0.8417129999999999,-0.37511300000000003,-0.615051,0.018585,-0.046783,0.011307
128,1.28,-0.9961180000000001,-0.309607,-0.629342,-0.013366999999999999,-0.002044999999999998,0.0027770000000000013
129,1.29,-1.0446469999999999,-0.25268,-0.480274,-0.047455000000000004,0.057602,-0.011078
130,1.3,-0.960829,-0.066216,-0.196657,-0.080475,0.122589,-0.016403
131,1.31,-0.877231,0.146767,-0.0003739999999999993,-0.102844,0.187576,-0.004684000000000001
132,1.32,-0.689107,0.329438,0.057791999999999996,-0.107117,0.23124699999999998,0.005981000000000001
133,1.33,-0.43997299999999995,0.47464399999999995,0.07725800000000001,-0.095398,0.247223,0.011307
134,1.34,-0.277953,0.45398599999999995,0.052441999999999996,-0.082611,0.26107800000000003,0.007034
135,1.35,-0.13303399999999999,0.33115,0.057740999999999994,-0.0858,0.24829099999999998,-0.005736999999999999
136,1.36,-0.051054,0.13691199999999998,0.195103,-0.10072300000000001,0.21846,-0.020659999999999998
137,1.37,-0.021244,0.008191000000000004,0.24370999999999998,-0.11456300000000001,0.18118299999999998,-0.033447000000000005
138,1.38,0.006552999999999996,-0.015712,0.26251599999999997,-0.110306,0.146027,-0.04303
139,1.39,-0.10904000000000001,0.049460999999999984,0.261259,-0.096466,0.099152,-0.040894
140,1.4,-0.156858,0.193899,0.24905700000000003,-0.07728600000000001,0.056549,-0.029175
141,1.41,-0.329844,0.25261,0.24096199999999998,-0.055984000000000006,0.023514,-0.01001
142,1.42,-0.388793,0.21270100000000003,0.09743499999999998,-0.041061,-0.006302000000000001,0.011307
143,1.43,-0.468713,0.045771999999999986,-0.0034649999999999998,-0.043198,-0.031876,0.020888999999999998
144,1.44,-0.476074,-0.082998,-0.180268,-0.065567,-0.053176999999999995,0.026215
145,1.45,-0.496409,-0.351717,-0.31656,-0.098587,-0.080872,0.029404000000000003
146,1.46,-0.33913499999999996,-0.722978,-0.48442299999999994,-0.142273,-0.11495999999999999,0.033676
147,1.47,-0.168016,-1.117475,-0.678635,-0.18701199999999998,-0.15118399999999999,0.057114
148,1.48,0.203705,-1.339697,-0.792454,-0.237076,-0.196991,0.081604
149,1.49,0.7159979999999999,-1.41814,-0.981275,-0.28927600000000003,-0.256653,0.102921
150,1.5,1.1169040000000001,-1.284557,-1.176879,-0.329758,-0.31311,0.110367
151,1.51,1.482224,-1.04472,-1.293525,-0.34573400000000004,-0.33548,0.110367
152,1.52,1.5283799999999998,-0.582052,-1.420356,-0.332947,-0.316299,0.099716
153,1.53,1.38974,-0.12246799999999995,-1.558817,-0.29885900000000004,-0.257706,0.09225499999999999
154,1.54,1.169446,0.430018,-1.7699470000000002,-0.238144,-0.17569,0.078415
155,1.55,0.9032870000000001,0.892323,-2.199538,-0.158249,-0.10751300000000001,0.077347
156,1.56,0.709244,1.21586,-2.6742169999999996,-0.111374,-0.045731,0.094391
157,1.57,0.657141,1.324876,-2.811398,-0.12309300000000001,0.009674000000000006,0.11675999999999999
158,1.58,0.6277050000000001,1.204035,-2.416861,-0.164642,0.021393000000000002,0.130615
159,1.59,0.844534,0.98995,-1.80755,-0.190201,-0.031876,0.137009
160,1.6,1.156892,0.5608810000000001,-1.3217889999999999,-0.18701199999999998,-0.113907,0.14765899999999998
161,1.61,1.36885,-0.036686,-1.168099,-0.17208900000000002,-0.199127,0.159378
162,1.62,1.4721950000000001,-0.664411,-1.273259,-0.14653,-0.279022,0.163635
163,1.63,1.384843,-1.233938,-1.4015790000000001,-0.126282,-0.329086,0.155106
164,1.64,1.009837,-1.774009,-1.575144,-0.12735,-0.352524,0.129547
165,1.65,0.704688,-1.8422880000000001,-1.546017,-0.133743,-0.33120700000000003,0.103973
166,1.66,0.23583600000000002,-1.481792,-1.581885,-0.12309300000000001,-0.283279,0.07309
167,1.67,-0.08441100000000001,-1.019261,-1.577834,-0.096466,-0.214035,0.035797
168,1.68,-0.375702,-0.572295,-1.7006459999999999,-0.065567,-0.135208,0.010239
169,1.69,-0.553242,-0.209229,-1.860228,-0.034668,-0.077682,-0.023849000000000002
170,1.7,-0.370938,-0.0036349999999999993,-1.882364,0.009003,-0.031876,-0.040894
171,1.71,-0.01865600000000001,0.193092,-1.909468,0.082504,-0.018021000000000002,-0.072861
172,1.72,0.48405600000000004,0.158525,-2.009896,0.15921,-0.007370000000000001,-0.102676
173,1.73,0.763223,0.167483,-2.253841,0.22418200000000002,0.010741999999999998,-0.146362
174,1.74,0.9687399999999999,-0.168962,-2.570178,0.264664,0.059738,-0.195358
175,1.75,0.962084,-0.592075,-2.78355,0.267868,0.12684600000000001,-0.226257
176,1.76,0.650285,-0.713391,-2.889141,0.23164400000000002,0.208878,-0.24009699999999998
177,1.77,0.549409,-0.733073,-2.661702,0.17518599999999998,0.290894,-0.212402
178,1.78,0.171676,-0.286076,-2.339994,0.1315,0.322861,-0.182571
179,1.79,0.30998200000000004,0.172208,-2.0419810000000003,0.115524,0.348419,-0.135712
180,1.8,0.467555,0.746798,-1.80657,0.12831099999999998,0.383575,-0.10588099999999999
181,1.81,0.7989470000000001,1.112587,-1.7194060000000002,0.177307,0.42831400000000003,-0.09629800000000001
182,1.82,1.108005,1.232319,-1.677471,0.249756,0.44963100000000006,-0.09523
183,1.83,1.491452,0.9513590000000001,-1.714849,0.322189,0.44642600000000005,-0.090958
184,1.84,1.6996220000000002,0.619781,-1.768303,0.369064,0.453888,-0.056870000000000004
185,1.85,2.101813,0.243571,-1.857393,0.390366,0.47200000000000003,-0.014267000000000004
186,1.86,2.450874,0.070776,-2.0083830000000003,0.39355500000000004,0.477325,0.036864999999999995
187,1.87,2.846979,0.13136,-2.038792,0.377579,0.44963100000000006,0.078415
188,1.88,2.9567360000000003,0.750237,-1.8491919999999997,0.36692800000000003,0.360138,0.09120199999999999
189,1.89,3.413707,1.614528,-1.511938,0.375458,0.246155,0.10929900000000001
190,1.9,3.603718,2.899785,-0.952564,0.37864699999999996,0.158813,0.12101700000000001
191,1.91,3.8180910000000003,4.102143,-0.34937499999999994,0.41806000000000004,0.10661300000000001,0.129547
192,1.92,3.728104,4.998776,-0.052277999999999984,0.5075529999999999,0.038436999999999985,0.141266
193,1.93,3.286307,5.23107,-0.165771,0.628983,-0.076614,0.154053
194,1.94,2.501264,4.563031,-0.30654000000000003,0.748291,-0.178879,0.16256700000000002
195,1.95,1.726378,3.270909,-0.446025,0.8495030000000001,-0.268356,0.171097
196,1.96,1.065896,1.888135,-0.257452,0.858017,-0.310974,0.181747
197,1.97,0.328963,0.675412,0.41585500000000003,0.7685390000000001,-0.205521,0.176422
198,1.98,-0.542507,-0.173401,1.153943,0.662003,0.008606000000000003,0.15830999999999998
199,1.99,-1.656092,-0.8538120000000001,1.528238,0.549088,0.200348,0.144455
200,2.0,-2.774245,-1.443697,1.6960110000000002,0.41061400000000003,0.291962,0.177475
201,2.01,-3.5262059999999997,-1.86537,1.6540150000000002,0.265732,0.283447,0.24778699999999998
202,2.02,-3.657929,-2.1736779999999998,1.3954309999999999,0.15068099999999998,0.175858,0.290405
203,2.03,-3.05348,-2.266512,0.769364,0.054810000000000005,0.007538000000000003,0.284012
204,2.04,-1.941918,-1.7675490000000003,0.034275,-0.06131,-0.132004,0.228607
205,2.05,-0.9160950000000001,-0.813416,-0.340796,-0.18701199999999998,-0.196991,0.12208599999999999
206,2.06,-0.25150900000000004,0.43909499999999996,-0.18118,-0.297791,-0.20977800000000002,0.0017090000000000024
207,2.07,-0.17311700000000002,1.7435049999999999,0.315734,-0.36277800000000004,-0.192734,-0.11972000000000001
208,2.08,-0.317252,2.589165,0.875174,-0.360641,-0.132004,-0.22412100000000001
209,2.09,-0.719921,2.977106,1.3356430000000001,-0.285004,-0.080872,-0.286972
210,2.1,-1.22281,2.637239,1.4504569999999999,-0.171021,-0.006302000000000002,-0.317871
211,2.11,-1.61543,1.894659,1.12352,-0.084747,0.071457,-0.33064299999999996
212,2.12,-1.662205,0.875958,0.476286,-0.029343,0.104477,-0.339172
213,2.13,-1.433846,-0.119859,-0.34467600000000004,-0.012299,0.09275800000000001,-0.365799
214,2.14,-1.113672,-0.9962780000000001,-0.9262969999999999,-0.039993,0.057602,-0.389236
215,2.15,-0.770257,-1.722595,-1.206286,-0.102844,0.033112,-0.41587799999999997
216,2.16,-0.574029,-2.2843310000000003,-1.12434,-0.171021,0.035233,-0.431854
217,2.17,-0.45514399999999994,-2.750855,-1.0821100000000001,-0.2211,0.052277,-0.439301
218,2.18,-0.43969300000000006,-3.1887659999999998,-1.024629,-0.26902800000000004,0.0672,-0.43824799999999997
219,2.19,-0.516609,-3.545813,-0.972555,-0.299927,0.0672,-0.419067
220,2.2,-0.748528,-3.649408,-1.07542,-0.334015,0.054412999999999996,-0.37645
221,2.21,-0.908949,-3.5516300000000003,-1.17798,-0.374496,0.035233,-0.33171100000000003
222,2.22,-0.917734,-3.4154709999999997,-1.153208,-0.421371,0.019257,-0.29443400000000003
223,2.23,-0.87985,-3.16157,-1.131248,-0.470367,-0.014832,-0.26460300000000003
224,2.24,-0.8863280000000001,-2.829646,-1.04558,-0.498062,-0.074478,-0.23690799999999998
225,2.25,-0.796856,-2.3690580000000003,-0.9179889999999999,-0.5001979999999999,-0.140533,-0.21347
226,2.26,-0.705036,-1.783266,-0.646438,-0.490601,-0.192734,-0.181519
227,2.27,-0.8307610000000001,-1.1207479999999999,-0.31795100000000004,-0.463974,-0.251312,-0.14743
228,2.28,-0.682567,-0.5866680000000001,0.12556300000000006,-0.404327,-0.277954,-0.097351
229,2.29,-0.543175,-0.09134,0.41003999999999996,-0.307388,-0.30351300000000003,-0.054749
230,2.3,-0.5430520000000001,0.266783,0.219178,-0.17741400000000002,-0.328018,-0.006804999999999995
231,2.31,-0.45256,0.273999,-0.08503099999999995,-0.039993,-0.358917,0.028350999999999998
232,2.32,-0.352693,0.04583300000000001,-0.5214300000000001,0.093155,-0.394058,0.046448
233,2.33,-0.347122,-0.352095,-1.012158,0.19222999999999998,-0.426025,0.052841
234,2.34,-0.348479,-0.755498,-1.324293,0.23590100000000003,-0.45371999999999996,0.054977
235,2.35,-0.306743,-0.9857360000000001,-1.6129719999999999,0.227386,-0.48673999999999995,0.058166999999999996
236,2.36,-0.220696,-0.918997,-1.794272,0.174118,-0.543198,0.054977
237,2.37,-0.203121,-0.455064,-1.8731779999999998,0.097412,-0.6049800000000001,0.072021
238,2.38,-0.470846,0.28020700000000004,-1.833135,-0.004852000000000002,-0.657181,0.09120199999999999
239,2.39,-0.947958,1.050142,-1.8366240000000003,-0.10818499999999999,-0.6912689999999999,0.10611
240,2.4,-1.685184,2.022479,-1.926481,-0.167831,-0.704056,0.102921
241,2.41,-2.5484459999999998,2.9665779999999997,-2.0386040000000003,-0.164642,-0.66571,0.079483
242,2.42,-3.359974,3.6373620000000004,-2.298334,-0.107117,-0.584747,0.021957000000000004
243,2.43,-3.795857,3.9847059999999996,-2.333761,-0.051712,-0.481415,-0.039825
244,2.44,-3.6896410000000004,4.1158529999999995,-2.256875,-0.003783999999999999,-0.364243,-0.09629800000000001
245,2.45,-3.177623,4.051133999999999,-2.148039,0.044159,-0.26197800000000004,-0.139969
246,2.46,-2.1979849999999996,4.138808999999999,-1.876,0.091034,-0.233215,-0.181519
247,2.47,-1.036448,4.4860940000000005,-1.424221,0.124054,-0.307785,-0.209213
248,2.48,-0.416017,4.860506,-0.7970440000000001,0.16026300000000002,-0.4207,-0.22837800000000003
249,2.49,-0.220842,4.71849,0.15810899999999994,0.227386,-0.47608900000000004,-0.229446
250,2.5,-0.065573,4.007169,1.053607,0.36586,-0.433487,-0.21347
251,2.51,-0.086668,2.826221,1.45367,0.523529,-0.355713,-0.191101
252,2.52,-0.210569,1.405623,1.871243,0.605545,-0.310974,-0.178314
253,2.53,-0.40171599999999996,-0.0019149999999999998,2.146673,0.6098180000000001,-0.283279,-0.163406
254,2.54,-0.55261,-1.269994,1.984662,0.565063,-0.308838,-0.148483
255,2.55,-0.539117,-2.1608709999999998,1.914634,0.480911,-0.385544,-0.123993
256,2.56,-0.113043,-2.886005,1.9233360000000002,0.325378,-0.43135100000000004,-0.07498200000000001
257,2.57,0.38421700000000003,-2.767488,1.586587,0.166656,-0.37808200000000003,-0.088837
258,2.58,0.812208,-2.52057,1.552892,-0.025085,-0.292862,-0.103745
259,2.59,1.1592360000000002,-2.080803,1.842639,-0.174225,-0.158646,-0.108017
260,2.6,1.144119,-1.353352,2.129265,-0.259445,0.021392999999999995,-0.09629800000000001
261,2.61,0.8897079999999999,-0.3488089999999999,2.072834,-0.322296,0.191833,-0.047287
262,2.62,0.527717,0.453718,1.9247189999999998,-0.360641,0.315399,0.021957
263,2.63,0.35034299999999996,1.105681,1.646559,-0.369171,0.41554300000000005,0.08480800000000001
264,2.64,0.062888,1.294557,1.356534,-0.346802,0.482651,0.127411
265,2.65,-0.151838,1.184007,1.132584,-0.286072,0.536972,0.17002899999999999
266,2.66,-0.343403,0.711468,0.8546440000000001,-0.238144,0.551895,0.20518499999999998
267,2.67,-0.42341899999999993,-0.08045799999999997,0.701204,-0.250916,0.5561520000000001,0.241394
268,2.68,-0.43114300000000005,-1.002793,0.7022229999999999,-0.281815,0.541245,0.27015700000000004
269,2.69,-0.287146,-1.907688,0.6630199999999999,-0.286072,0.5135350000000001,0.302124
270,2.7,0.016100000000000003,-2.681477,0.49608900000000006,-0.27223200000000003,0.467728,0.325546
271,2.71,0.353792,-3.167558,0.166767,-0.256256,0.42726099999999995,0.337265
272,2.72,0.66296,-3.444339,-0.15749100000000002,-0.246658,0.418732,0.338333
273,2.73,0.8938809999999999,-3.5601510000000003,-0.47971800000000003,-0.25411999999999996,0.43363999999999997,0.32768200000000003
274,2.74,0.9528530000000001,-3.4449730000000005,-0.734961,-0.283951,0.46240200000000004,0.29891999999999996
275,2.75,0.864456,-3.020702,-0.899791,-0.332947,0.506088,0.260574
276,2.76,0.82431,-2.4558720000000003,-0.8935190000000001,-0.374496,0.543365,0.22435
277,2.77,0.6832199999999999,-1.790919,-0.7423029999999999,-0.40219099999999997,0.572128,0.201981
278,2.78,0.60888,-1.120866,-0.5448270000000001,-0.40325900000000003,0.596634,0.19558699999999998
279,2.79,0.666644,-0.5587270000000001,-0.310711,-0.381943,0.588104,0.174286
280,2.8,0.6811649999999999,-0.327349,-0.10303,-0.340408,0.552948,0.145523
281,2.81,0.617005,-0.389472,0.079929,-0.27967800000000004,0.5039520000000001,0.114624
282,2.82,0.8346399999999999,-0.546107,0.120189,-0.20512399999999997,0.454956,0.087997
283,2.83,0.9768129999999999,-0.633448,-0.059335,-0.11988800000000001,0.41447399999999995,0.067764
284,2.84,1.233382,-0.576286,-0.254171,-0.041061000000000014,0.362274,0.047516
285,2.85,1.411384,-0.52688,-0.485023,0.033507999999999996,0.31433099999999997,0.030472000000000003
286,2.86,1.445506,-0.394967,-0.7006859999999999,0.10594200000000001,0.26107800000000003,0.011307
287,2.87,1.367632,-0.319259,-0.9574739999999999,0.17518599999999998,0.213135,-0.015335
288,2.88,1.289401,-0.428084,-1.240997,0.23164400000000002,0.177979,-0.044098000000000005
289,2.89,1.237062,-0.6241260000000001,-1.378244,0.269989,0.14389000000000002,-0.067535
290,2.9,0.903588,-0.811473,-1.388011,0.295563,0.128983,-0.0867
291,2.91,0.45150500000000005,-0.851999,-1.36673,0.293427,0.150284,-0.10588099999999999
292,2.92,-0.147235,-0.5423600000000001,-1.208534,0.26040599999999997,0.21633899999999998,-0.134644
293,2.93,-0.488063,0.3067730000000001,-1.082849,0.20606999999999998,0.324982,-0.142105
294,2.94,-0.419378,1.373728,-1.107106,0.158142,0.453888,-0.130386
295,2.95,0.228393,2.324607,-1.3021969999999998,0.12191800000000001,0.536972,-0.11334200000000001
296,2.96,1.273723,2.9530380000000003,-1.2995459999999999,0.10594200000000001,0.51886,-0.098419
297,2.97,2.199528,3.407404,-1.2983719999999999,0.127243,0.432587,-0.07498200000000001
298,2.98,2.854899,3.6414779999999998,-1.4198469999999999,0.209274,0.348419,-0.054749
299,2.99,2.8854029999999997,3.590097,-1.668494,0.353088,0.242966,-0.035568
300,3.0,2.469675,3.382057,-2.006927,0.50116,0.13963299999999998,0.0027770000000000017
301,3.01,1.6804599999999998,3.225318,-2.249603,0.5970310000000001,0.062927,0.051773
302,3.02,0.592584,3.339832,-2.140113,0.636444,0.076782,0.103973
303,3.03,0.186323,4.160266,-1.2566,0.635376,0.156677,0.13913
304,3.04,0.711745,4.425683,0.3379249999999999,0.540573,0.256805,0.159378
305,3.05,1.214014,3.133368,2.192297,0.41061400000000003,0.265335,0.143387
306,3.06,1.336147,1.0579459999999998,3.698437,0.401016,0.177979,0.094391
307,3.07,1.0303149999999999,-0.938499,4.210307,0.486237,0.10022,0.081604
308,3.08,0.46237799999999996,-2.3708869999999997,3.9635199999999995,0.5075529999999999,0.083176,0.102921
309,3.09,-0.025326999999999992,-2.979781,3.071577,0.397827,0.086365,0.143387
310,3.1,-0.46183599999999997,-2.575187,1.942443,0.24015799999999998,0.076782,0.214767
311,3.11,-0.904882,-1.8918810000000001,1.101764,0.15068099999999998,-0.006302000000000009,0.312775
312,3.12,-1.6953060000000002,-1.124659,0.542107,0.17944300000000002,-0.12455699999999999,0.3703
313,3.13,-2.468166,-0.24009299999999997,0.115029,0.21885700000000002,-0.185272,0.358582
314,3.14,-2.880773,0.6925979999999999,-0.321423,0.166656,-0.22789,0.29891999999999996
315,3.15,-2.794853,1.435152,-0.297013,0.012192000000000008,-0.27475,0.20518499999999998
316,3.16,-2.117377,1.917144,0.212778,-0.194458,-0.283279,0.11250299999999999
317,3.17,-0.8306619999999999,1.837564,0.747687,-0.37342800000000004,-0.271561,0.025146
318,3.18,0.859909,1.5192459999999999,0.9682149999999999,-0.467178,-0.279022,-0.067535
319,3.19,2.216173,1.0921530000000002,0.8672479999999999,-0.47995,-0.268356,-0.171921
320,3.2,2.9651650000000003,0.383467,0.727119,-0.47143599999999997,-0.254517,-0.27739
321,3.21,2.956918,-0.559937,0.749812,-0.463974,-0.236404,-0.35408
322,3.22,2.37406,-1.5875780000000002,0.829443,-0.429886,-0.232147,-0.403091
323,3.23,1.4247,-2.296967,0.749721,-0.357452,-0.24705500000000002,-0.421204
324,3.24,0.429303,-2.843409,0.5599310000000001,-0.270096,-0.294998,-0.41481
325,3.25,-0.571645,-3.196154,0.10405599999999998,-0.20192000000000002,-0.342926,-0.392441
326,3.26,-1.396196,-3.4293099999999996,-0.266268,-0.169968,-0.407913,-0.365799
327,3.27,-1.9821509999999998,-3.476974,-0.44635699999999995,-0.174225,-0.435608,-0.342361
328,3.28,-2.3871439999999997,-3.5016580000000004,-0.44753699999999996,-0.19659400000000002,-0.42921400000000004,-0.349823
329,3.29,-2.6417650000000004,-3.391785,-0.526696,-0.217896,-0.398331,-0.359406
330,3.3,-2.591564,-3.0186,-0.567411,-0.240265,-0.357849,-0.359406
331,3.31,-2.5480270000000003,-2.6747669999999997,-0.542624,-0.265839,-0.29074099999999997,-0.32959
332,3.32,-2.135455,-2.425148,-0.456855,-0.28714,-0.20764200000000002,-0.265671
333,3.33,-1.51716,-2.072416,-0.364844,-0.29246500000000003,-0.133072,-0.195358
334,3.34,-1.083904,-1.629265,-0.395096,-0.275421,-0.08194,-0.111206
335,3.35,-0.784493,-1.2668780000000002,-0.499301,-0.23494,-0.06915299999999999,-0.035568
336,3.36,-0.723507,-0.8602719999999999,-0.573296,-0.1689,-0.105377,0.026215
337,3.37,-0.736539,-0.295112,-0.6676890000000001,-0.091125,-0.149048,0.060302999999999995
338,3.38,-0.817364,0.18379500000000001,-0.770829,0.0015410000000000007,-0.204453,0.061371
339,3.39,-0.89076,0.5503170000000001,-0.885193,0.12191800000000001,-0.253448,0.052841
340,3.4,-0.834764,0.6870649999999999,-1.082975,0.238037,-0.282211,0.045395
341,3.41,-0.686589,0.696186,-1.345212,0.313675,-0.259842,0.046448
342,3.42,-0.578067,0.76885,-1.652596,0.33284,-0.21722399999999997,0.056046000000000006
343,3.43,-0.37551100000000004,0.928765,-1.978064,0.306213,-0.23854099999999998,0.075211
344,3.44,-0.104163,1.2665,-2.044079,0.25614899999999996,-0.330154,0.11250299999999999
345,3.45,-0.15642799999999998,1.700257,-1.778125,0.20713800000000002,-0.402588,0.145523
346,3.46,-0.9976440000000001,2.0278810000000003,-1.311892,0.151749,-0.361038,0.13913
347,3.47,-1.93398,2.224886,-1.196728,0.10913099999999999,-0.22894299999999998,0.078415
348,3.48,-2.718378,2.685003,-1.430509,0.102753,-0.145859,0.005981
349,3.49,-2.892026,3.4091839999999998,-1.5337379999999998,0.157074,-0.171417,-0.022781
350,3.5,-1.797669,4.31577,-1.248634,0.22843899999999998,-0.250259,-0.021729
351,3.51,-0.474477,5.4382269999999995,-0.4094019999999999,0.23590100000000003,-0.341873,-0.0345
352,3.52,0.506495,6.412465,1.3951930000000001,0.22311399999999998,-0.407913,-0.072861
353,3.53,1.203546,6.61106,3.504164,0.285965,-0.338669,-0.13250699999999999
354,3.54,1.06098,5.875532,4.243793,0.445755,-0.09258999999999999,-0.252884
355,3.55,0.335449,4.2185,3.710204,0.578918,0.121521,-0.381775
356,3.56,0.059233,2.128177,3.450674,0.606613,0.172653,-0.419067
357,3.57,0.102834,0.16652900000000004,3.1214619999999997,0.521393,0.104477,-0.37751799999999996
358,3.58,0.332803,-1.55841,2.894417,0.38504,-0.130951,-0.260345
359,3.59,1.264139,-2.7282330000000004,2.877845,0.300888,-0.361038,-0.10481300000000003
360,3.6,2.20403,-3.286883,2.369132,0.26040599999999997,-0.44732700000000003,-0.017456
361,3.61,2.532156,-3.018773,1.497654,0.15921,-0.467575,-0.008942
362,3.62,2.175525,-1.9386580000000002,0.8648389999999999,-0.020828,-0.404724,-0.017456
363,3.63,1.403178,-0.4189769999999999,0.43371499999999996,-0.183807,-0.242798,-0.012131
364,3.64,0.454672,0.754352,0.092696,-0.321228,0.03097499999999999,0.025146
365,3.65,-0.6687350000000001,1.007223,0.044711,-0.45546000000000003,0.330322,0.066696
366,3.66,-1.7387029999999999,0.725827,0.432042,-0.575821,0.565735,0.130615
367,3.67,-2.250354,0.13588699999999998,0.886049,-0.642944,0.707413,0.181747
368,3.68,-2.508393,-0.349296,1.250867,-0.636551,0.740448,0.233948
369,3.69,-2.229342,-0.852284,1.331603,-0.5854189999999999,0.680786,0.297852
370,3.7,-1.5102520000000001,-1.533658,1.378462,-0.502319,0.5689390000000001,0.339401
371,3.71,-0.6865939999999999,-2.407422,1.277983,-0.39260900000000004,0.45282,0.364975
372,3.72,0.08269700000000002,-3.19367,0.838924,-0.293533,0.343094,0.382019
373,3.73,0.9267350000000001,-3.693865,0.13637,-0.233871,0.275986,0.38414
374,3.74,1.505045,-3.92199,-0.406519,-0.22749299999999997,0.246155,0.3703
375,3.75,1.818193,-3.845338,-0.716047,-0.246658,0.25148000000000004,0.347931
376,3.76,1.8995380000000002,-3.499933,-0.9330620000000001,-0.257309,0.267471,0.322357
377,3.77,1.929557,-2.886521,-1.0213139999999998,-0.264771,0.27066,0.294662
378,3.78,1.737782,-2.1875150000000003,-1.0265819999999999,-0.27116399999999996,0.28024299999999996,0.266968
379,3.79,1.398614,-1.732832,-0.7905800000000001,-0.26902800000000004,0.300491,0.24353000000000002
380,3.8,1.0703280000000002,-1.476565,-0.6194529999999999,-0.236008,0.323929,0.212631
381,3.81,0.5837140000000001,-1.538987,-0.556344,-0.182739,0.332443,0.179611
382,3.82,0.31254899999999997,-1.638426,-0.566969,-0.118835,0.318604,0.137009
383,3.83,0.236125,-1.8222759999999998,-0.703136,-0.046387,0.309006,0.09225499999999999
384,3.84,0.193605,-1.979787,-0.8915559999999999,0.016464,0.279175,0.060302999999999995
385,3.85,0.376722,-2.010193,-1.327491,0.08569299999999999,0.230179,0.025146
386,3.86,0.520332,-1.7549029999999999,-1.4261409999999999,0.092087,0.22378499999999998,-0.003616
387,3.87,0.724437,-1.249501,-1.316862,0.081436,0.240829,-0.036636
388,3.88,0.8660700000000001,-0.5246609999999999,-1.064494,0.081436,0.284515,-0.07498200000000001
389,3.89,0.8599700000000001,0.15087599999999995,-0.887231,0.079315,0.330322,-0.111206
390,3.9,0.752725,0.648343,-0.7228140000000001,0.079315,0.35801700000000003,-0.136765
391,3.91,0.629228,0.99874,-0.7386689999999999,0.097412,0.389969,-0.14315799999999998
392,3.92,0.5312560000000001,1.27647,-0.785623,0.138962,0.48583999999999994,-0.160202
393,3.93,0.617599,1.59933,-0.954674,0.213531,0.634979,-0.192169
394,3.94,0.8368110000000001,1.813047,-1.292087,0.282776,0.666931,-0.21986399999999998
395,3.95,1.4456209999999998,2.148342,-1.455817,0.289169,0.535904,-0.18364
396,3.96,2.588949,2.603561,-1.394898,0.261475,0.32711799999999996,-0.090958
397,3.97,3.600547,3.300323,-1.52336,0.268921,0.135376,0.019821000000000002
398,3.98,4.139946,3.886676,-1.932911,0.34137,0.009674000000000002,0.102921
399,3.99,3.7786230000000005,4.156703,-2.2715650000000003,0.44470200000000004,-0.072357,0.143387
400,4.0,2.427167,4.180441,-2.098388,0.521393,-0.08514400000000001,0.15830999999999998
401,4.01,0.540112,4.348706,-0.927999,0.553345,-0.009506,0.163635
402,4.02,-0.410308,5.260135,0.727507,0.561874,0.17690999999999998,0.167892
403,4.03,-0.18716,5.378161,2.240268,0.522461,0.346298,0.159378
404,4.04,0.11509200000000001,3.9111260000000003,3.501447,0.505417,0.253616,0.17002899999999999
405,4.05,0.51751,1.760859,4.475344000000001,0.520325,0.065063,0.211563
406,4.06,0.5942609999999999,-0.07411100000000004,4.971707,0.479843,-0.009506,0.240326
407,4.07,0.325982,-1.41815,4.147482,0.328583,-0.0009770000000000004,0.28294400000000003
408,4.08,0.04058700000000001,-1.6951759999999998,2.8506709999999997,0.151749,-0.011642,0.32661399999999996
409,4.09,-0.44615,-1.512081,1.572439,0.13789400000000002,-0.108582,0.361771
410,4.1,-1.532134,-1.069954,0.543921,0.252945,-0.265167,0.375626
411,4.11,-2.862371,-0.357666,0.084753,0.312607,-0.319504,0.3703
412,4.12,-3.7556199999999995,0.6757579999999999,0.19697,0.238037,-0.281143,0.34686300000000003
413,4.13,-3.775528,1.734778,0.6842,0.092087,-0.214035,0.302124
414,4.14,-2.9318299999999997,2.312333,1.082873,-0.066635,-0.141602,0.241394
415,4.15,-1.552806,2.2635970000000003,1.022066,-0.21363800000000002,-0.049988,0.160431
416,4.16,-0.014889999999999959,1.844241,0.8366709999999999,-0.331879,0.019257000000000003,0.060302999999999995
417,4.17,1.105173,1.141173,0.610063,-0.420303,0.07359299999999999,-0.064331
418,4.18,1.703407,0.215569,0.481861,-0.48422200000000004,0.09596299999999999,-0.18470799999999998
419,4.19,1.953877,-0.785061,0.45319799999999993,-0.530029,0.084244,-0.262466
420,4.2,1.652282,-2.019028,0.43725699999999995,-0.55452,0.048019,-0.319992
421,4.21,1.171574,-3.041764,0.302728,-0.552399,-0.0159,-0.33064299999999996
422,4.22,0.821636,-3.791383,0.087011,-0.5342859999999999,-0.10112,-0.324265
423,4.23,0.554427,-4.247212,-0.163684,-0.526825,-0.196991,-0.315735
424,4.24,0.589276,-4.576633,-0.318085,-0.541733,-0.314163,-0.315735
425,4.25,0.353283,-4.554873000000001,-0.349858,-0.5715640000000001,-0.46650699999999995,-0.32959
426,4.26,0.040255,-4.280231,-0.26584800000000003,-0.610977,-0.61351,-0.34343
427,4.27,-0.813126,-3.320119,-0.22455,-0.640808,-0.7733,-0.359406
428,4.28,-1.380187,-2.599462,-0.045170999999999996,-0.634415,-0.829758,-0.344498
429,4.29,-1.874581,-2.044283,0.079959,-0.597137,-0.83934,-0.298691
430,4.3,-2.4690369999999997,-1.701815,0.145022,-0.5385439999999999,-0.813782,-0.23477199999999998
431,4.31,-2.587091,-1.636824,0.267406,-0.443741,-0.751999,-0.155945
432,4.32,-2.7540270000000002,-1.561975,0.40073400000000003,-0.32869,-0.669968,-0.070724
433,4.33,-2.682289,-1.3830870000000002,0.37093400000000004,-0.194458,-0.577286,-0.0036160000000000007
434,4.34,-2.43978,-0.982355,0.10293599999999999,-0.059174,-0.501663,0.056046000000000006
435,4.35,-2.108674,-0.493717,-0.5338390000000001,0.059066999999999995,-0.438812,0.090134
436,4.36,-1.544881,0.184193,-1.588525,0.19755599999999998,-0.375961,0.09758
437,4.37,-1.142831,0.522321,-1.8562400000000001,0.276382,-0.37915,0.072021
438,4.38,-0.725287,0.7881600000000001,-1.686462,0.358414,-0.386612,0.030472000000000003
439,4.39,-0.387371,0.9933799999999999,-1.3441969999999999,0.404221,-0.391937,-0.021729
440,4.4,-0.12687400000000001,0.987136,-1.097777,0.39569099999999996,-0.422821,-0.057937999999999996
441,4.41,-0.100152,0.843649,-0.816077,0.345627,-0.483551,-0.048355
442,4.42,-0.346389,0.737438,-0.46388599999999997,0.278519,-0.467575,0.0006409999999999992
443,4.43,-1.026891,0.944802,-0.480429,0.234833,-0.336548,0.01236
444,4.44,-1.6997400000000003,1.473507,-1.019017,0.220993,-0.17569,-0.035568
445,4.45,-2.243024,2.1797,-1.6632209999999998,0.268921,-0.08514400000000001,-0.103745
446,4.46,-2.310398,2.827307,-2.123363,0.36692800000000003,-0.096863,-0.157013
447,4.47,-1.6353870000000001,3.402832,-2.001137,0.45428500000000005,-0.172485,-0.19961500000000001
448,4.48,-0.300079,4.198102,-1.486804,0.481979,-0.328018,-0.233704
449,4.49,0.8359270000000001,5.000437000000001,-0.25876199999999994,0.45002700000000007,-0.524033,-0.24969499999999997
450,4.5,1.155785,5.279153,1.538601,0.343491,-0.59433,-0.252884
451,4.51,0.722201,5.019222,3.372904,0.239105,-0.454788,-0.27313200000000004
452,4.52,0.375956,4.2557,4.752279,0.259338,-0.264099,-0.318939
453,4.53,0.166435,2.927304,5.412071,0.34988400000000003,-0.12455699999999999,-0.374329
454,4.54,0.263449,1.293132,5.187398,0.397827,-0.11283900000000001,-0.396698
455,4.55,0.252551,-0.10602500000000004,4.7770019999999995,0.41061400000000003,-0.22149699999999997,-0.391373
456,4.56,0.699116,-1.1791200000000002,3.980929,0.45002700000000007,-0.28646900000000003,-0.356216
457,4.57,1.418607,-1.717911,2.617844,0.46386700000000003,-0.301392,-0.30722
458,4.58,1.830157,-1.7390759999999998,1.260082,0.360535,-0.24386599999999997,-0.242233
459,4.59,1.69638,-0.766139,0.522835,0.16026300000000002,-0.121353,-0.18364
460,4.6,0.9233690000000001,0.534257,0.329381,-0.05810499999999999,0.008606000000000003,-0.141037
461,4.61,-0.08367599999999997,1.5753979999999999,0.6692819999999999,-0.22961400000000004,0.12684600000000001,-0.081375
462,4.62,-0.9141799999999999,2.047201,1.294475,-0.33615100000000003,0.257874,0.013428
463,4.63,-1.420685,2.036395,1.915916,-0.38621500000000003,0.40808099999999997,0.133804
464,4.64,-1.6677119999999999,1.6274540000000002,2.2795810000000003,-0.404327,0.59343,0.241394
465,4.65,-1.684404,0.9432709999999999,2.408475,-0.401123,0.759613,0.292526
466,4.66,-1.5094290000000001,-0.05111100000000002,2.342114,-0.348923,0.860809,0.302124
467,4.67,-1.225267,-1.0020149999999999,1.9401400000000002,-0.250916,0.865082,0.289337
468,4.68,-0.687713,-1.8235279999999998,1.46031,-0.164642,0.793701,0.2659
469,4.69,-0.011703999999999992,-2.405643,0.976418,-0.10923800000000002,0.660553,0.24246199999999998
470,4.7,0.685712,-2.633157,0.47956400000000005,-0.096466,0.525253,0.23288000000000003
471,4.71,1.246567,-2.732736,0.09463400000000001,-0.102844,0.43363999999999997,0.23820500000000003
472,4.72,1.737827,-2.8129049999999998,-0.283163,-0.130554,0.389969,0.261642
473,4.73,2.072749,-2.809073,-0.623581,-0.169968,0.36441,0.27973899999999996
474,4.74,2.204504,-2.8564950000000002,-0.701642,-0.206177,0.333511,0.303177
475,4.75,2.0378279999999998,-2.7672939999999997,-0.762602,-0.22961399999999998,0.317535,0.324493
476,4.76,1.561022,-2.6942720000000002,-0.6216550000000001,-0.249863,0.32072399999999995,0.33300799999999997
477,4.77,0.803135,-2.871053,-0.562076,-0.275421,0.342026,0.319168
478,4.78,-0.03228900000000001,-2.954864,-0.47626899999999994,-0.297791,0.372925,0.290405
479,4.79,-0.696447,-3.025889,-0.40694400000000003,-0.29567,0.410217,0.24992399999999998
480,4.8,-1.0495889999999999,-3.05023,-0.464816,-0.261581,0.432587,0.203049
481,4.81,-0.914183,-3.04493,-0.48997299999999994,-0.214706,0.43896499999999994,0.160431
482,4.82,-0.543315,-2.881624,-0.555833,-0.176361,0.425125,0.10824600000000001
483,4.83,0.132776,-2.536196,-0.652262,-0.144394,0.396362,0.054977
484,4.84,0.795229,-1.9453779999999998,-0.816337,-0.11350999999999999,0.389969,0.0070339999999999995
485,4.85,1.14309,-1.380787,-0.999023,-0.096466,0.41766400000000004,-0.033447000000000005
486,4.86,1.208416,-0.853678,-1.19477,-0.089005,0.44642600000000005,-0.054749
487,4.87,1.260924,-0.532241,-1.300143,-0.065567,0.46134899999999995,-0.054749
488,4.88,1.020741,-0.60716,-1.360716,-0.024017,0.432587,-0.052612
489,4.89,0.676127,-0.8347760000000001,-1.401086,-0.021896000000000002,0.323929,-0.041962
490,4.9,0.40856,-1.066331,-1.250672,-0.065567,0.171585,-0.005736999999999999
491,4.91,0.445313,-0.921132,-0.8770540000000001,-0.115631,0.050155999999999985,0.026214999999999995
492,4.92,0.584992,-0.239669,-0.450003,-0.116699,-0.0009770000000000004,0.034729
493,4.93,0.792848,0.69323,-0.320154,-0.046387,0.052277,0.026215
494,4.94,1.042514,1.727542,-0.740125,0.04309099999999999,0.169464,0.016632
495,4.95,1.328606,2.817209,-1.386503,0.08782999999999999,0.285568,0.034729
496,4.96,1.8059630000000002,3.877564,-2.07849,0.09848,0.31433099999999997,0.08374
497,4.97,2.398468,4.698485,-2.693189,0.092087,0.23338299999999998,0.143387
498,4.98,2.813399,5.11335,-3.033117,0.060135,0.094894,0.192398
499,4.99,2.8328279999999997,5.1278120000000005,-2.992357,0.037766,-0.016967999999999997,0.214767
500,5.0,2.178144,5.049218,-2.993735,0.079315,-0.075546,0.217957
501,5.01,1.232718,4.978623000000001,-3.218457,0.174118,-0.058502,0.22009299999999998
502,5.02,0.314727,4.847180000000001,-3.4375139999999997,0.269989,0.029907000000000006,0.206238
503,5.03,-0.171324,4.820725,-3.349161,0.326447,0.19076500000000002,0.203049
504,5.04,0.708508,4.541569,-2.318804,0.364807,0.321793,0.192398
505,5.05,1.401486,3.4315900000000004,0.1184400000000001,0.360535,0.37825,0.171097
506,5.06,1.585377,2.105952,2.768885,0.360535,0.468796,0.096527
507,5.07,1.8874220000000002,0.6630389999999999,5.046933999999999,0.361603,0.547623,-0.04728700000000001
508,5.08,1.559341,-1.0441559999999999,6.509784,0.342422,0.609421,-0.196426
509,5.09,0.552712,-2.613589,6.611109,0.345627,0.5614779999999999,-0.304016
510,5.1,-0.636512,-3.182081,5.439078,0.39355500000000004,0.28024299999999996,-0.319992
511,5.11,-1.519794,-2.359868,3.063059,0.424454,-0.127747,-0.121857
512,5.12,-1.278767,-1.395936,1.1538760000000001,0.43084700000000004,-0.43986499999999995,0.141266
513,5.13,-1.560144,-1.314425,0.04823299999999997,0.460678,-0.677429,0.292526
514,5.14,-2.2210520000000002,-1.860279,-0.416695,0.45961,-0.8691709999999999,0.35644499999999996
515,5.15,-2.524499,-2.018048,-0.815481,0.33284,-0.9213709999999999,0.368164
516,5.16,-1.91113,-1.887111,-1.310297,0.057999,-0.78714,0.361771
517,5.17,-0.649073,-1.3576350000000001,-1.29302,-0.246658,-0.5517270000000001,0.310638
518,5.18,0.647745,-0.49346,-1.218028,-0.44693,-0.336548,0.15830999999999998
519,5.19,1.297097,0.441175,-0.985555,-0.5854189999999999,-0.233215,-0.07498200000000001
520,5.2,1.216149,0.9839969999999999,-0.467283,-0.711121,-0.177811,-0.296555
521,5.21,0.8972680000000001,1.090333,0.3126390000000001,-0.78569,-0.138397,-0.44357299999999994
522,5.22,0.42466499999999996,0.498616,1.0789360000000001,-0.7441409999999999,-0.13414,-0.505356
523,5.23,0.11721600000000001,-0.551388,1.313545,-0.588608,-0.178879,-0.49682600000000005
524,5.24,0.135191,-1.464613,1.1233469999999999,-0.40538,-0.275818,-0.4702
525,5.25,0.14721800000000002,-2.366634,0.749286,-0.241333,-0.374893,-0.439301
526,5.26,0.07046799999999999,-3.196589,0.08911199999999997,-0.124161,-0.492065,-0.398819
527,5.27,0.21886599999999998,-3.7084989999999998,-0.6842619999999999,-0.07196,-0.617767,-0.35728499999999996
528,5.28,0.185579,-3.846624,-1.236737,-0.089005,-0.713638,-0.33171100000000003
529,5.29,-0.105298,-3.4954440000000004,-1.5604120000000001,-0.134811,-0.757324,-0.306152
530,5.3,-0.464237,-2.947741,-1.968236,-0.181686,-0.753052,-0.278458
531,5.31,-1.051366,-2.472728,-2.26592,-0.224289,-0.739212,-0.23797600000000002
532,5.32,-1.59956,-2.220857,-2.232745,-0.255188,-0.704056,-0.19856300000000002
533,5.33,-2.300226,-2.161034,-1.929296,-0.265839,-0.631622,-0.158081
534,5.34,-2.615462,-2.0718919999999996,-1.769584,-0.24772600000000003,-0.532547,-0.13250699999999999
535,5.35,-2.705978,-1.6954630000000002,-1.575137,-0.19659400000000002,-0.43135100000000004,-0.122925
536,5.36,-2.565891,-0.855823,-1.604863,-0.124161,-0.340805,-0.12078900000000001
537,5.37,-2.3767669999999996,0.0007349999999999858,-1.855261,-0.038939999999999995,-0.266235,-0.126114
538,5.38,-1.931756,0.662593,-2.2769619999999997,0.034561,-0.20977800000000002,-0.134644
539,5.39,-1.6657259999999998,1.00963,-2.421708,0.10913099999999999,-0.174622,-0.145294
540,5.4,-1.37878,1.115605,-2.426644,0.186905,-0.16076700000000002,-0.153809
541,5.41,-0.9078510000000001,1.055923,-2.250642,0.22843899999999998,-0.158646,-0.158081
542,5.42,-0.557329,1.088531,-2.2995400000000004,0.20713800000000002,-0.20764200000000002,-0.131439
543,5.43,-0.13021700000000005,1.601696,-2.235991,0.1315,-0.33334400000000003,-0.071793
544,5.44,0.182726,2.464547,-1.954906,0.079315,-0.438812,0.014496000000000004
545,5.45,-0.08620900000000001,3.255633,-1.895271,0.084641,-0.44306899999999994,0.08480800000000001
546,5.46,-1.170013,3.8888559999999996,-1.586641,0.156006,-0.361038,0.072021
547,5.47,-2.4631529999999997,4.149794,-1.418251,0.263596,-0.237473,-0.022781
548,5.48,-3.2169060000000003,3.812564,-1.432597,0.360535,-0.191666,-0.10055499999999999
549,5.49,-2.0037119999999997,3.630778,-0.722028,0.41593900000000006,-0.347198,-0.080307
550,5.5,0.795502,4.712769000000001,1.059258,0.44149799999999995,-0.6550600000000001,-0.037704
551,5.51,2.195466,5.407068,3.246429,0.382904,-0.810577,-0.048355
552,5.52,2.3053220000000003,4.107551,4.776075,0.321121,-0.503784,-0.098419
553,5.53,1.315723,2.466339,4.938549,0.44149799999999995,-0.027618000000000004,-0.19856300000000002
554,5.54,0.290417,1.4232049999999998,3.849746,0.513931,0.202484,-0.339172
555,5.55,0.043930000000000004,0.370343,2.9235189999999998,0.371185,0.127914,-0.398819
556,5.56,-0.18371600000000002,-0.405053,2.616335,0.138962,0.032043,-0.426529
557,5.57,-0.239301,-0.6179640000000001,2.499355,0.015396,0.0011439999999999992,-0.43718
558,5.58,0.326367,-0.48204600000000003,2.020918,-0.04213,-0.035065,-0.405212
559,5.59,0.825364,0.06675099999999998,1.699741,-0.176361,-0.045731,-0.34343
560,5.6,1.290931,0.9071440000000001,1.664841,-0.369171,0.004349,-0.26886
561,5.61,1.092323,1.959126,1.5896569999999999,-0.485275,0.113007,-0.17938199999999999
562,5.62,0.567725,2.625607,1.350084,-0.501266,0.244034,-0.054749000000000006
563,5.63,0.05179700000000001,2.517681,1.027777,-0.490601,0.380386,0.067764
564,5.64,-0.584041,1.615848,0.908435,-0.477829,0.487976,0.180679
565,5.65,-0.8939090000000001,0.5171279999999999,0.826118,-0.43414300000000006,0.535904,0.294662
566,5.66,-0.9561879999999999,-1.094044,0.803029,-0.371292,0.535904,0.377747
567,5.67,-1.055,-2.81372,0.701017,-0.30632,0.48477200000000004,0.41503900000000005
568,5.68,-1.120034,-4.669129,0.41738800000000004,-0.263702,0.42619300000000004,0.44380200000000003
569,5.69,-1.1976639999999998,-6.1498099999999996,-0.07635700000000001,-0.24772600000000003,0.39103699999999997,0.455521
570,5.7,-1.199324,-7.054769,-0.733468,-0.27116399999999996,0.388901,0.45657299999999995
571,5.71,-1.0808200000000001,-7.239006,-1.268767,-0.323364,0.41233800000000004,0.457642
572,5.72,-0.830033,-6.839351,-1.749391,-0.383011,0.435776,0.453384
573,5.73,-0.431453,-5.832123,-2.033872,-0.44479399999999997,0.45707700000000007,0.43633999999999995
574,5.74,0.04885999999999999,-4.564296,-2.0483849999999997,-0.49487299999999995,0.48477200000000004,0.402252
575,5.75,0.5544140000000001,-3.458903,-1.8458759999999999,-0.511917,0.526321,0.361771
576,5.76,1.0269059999999999,-2.491197,-1.482033,-0.49699399999999994,0.575333,0.319168
577,5.77,1.510392,-1.607777,-0.8905540000000001,-0.440536,0.606216,0.2659
578,5.78,1.7391459999999999,-0.8740100000000001,-0.48462,-0.335083,0.6211399999999999,0.22009299999999998
579,5.79,1.763524,-0.41455299999999995,-0.307463,-0.200851,0.625397,0.184937
580,5.8,1.548438,-0.454618,-0.384422,-0.05278,0.640305,0.165756
581,5.81,1.315507,-0.690457,-0.629667,0.08569299999999999,0.6552279999999999,0.151917
582,5.82,1.119666,-0.9514729999999999,-0.9275100000000001,0.195419,0.647766,0.129547
583,5.83,0.856276,-0.74024,-1.3245129999999998,0.26040599999999997,0.59343,0.099716
584,5.84,0.8296479999999999,0.07772400000000003,-1.95019,0.30300900000000003,0.512482,0.079483
585,5.85,1.083863,1.068554,-2.459625,0.336044,0.410217,0.078415
586,5.86,1.3942649999999999,2.036626,-2.629706,0.34137,0.32711799999999996,0.080536
587,5.87,1.6966009999999998,2.864479,-2.386644,0.32005300000000003,0.288773,0.067764
588,5.88,2.0024759999999997,3.7183059999999997,-2.015911,0.296631,0.34416199999999997,0.036864999999999995
589,5.89,2.379985,4.52027,-1.8929740000000002,0.297684,0.456009,0.0006409999999999992
590,5.9,2.9423169999999996,4.89228,-1.966578,0.298752,0.5348510000000001,-0.035568
591,5.91,3.7213239999999996,4.832634,-1.8401759999999998,0.269989,0.519928,-0.049423
592,5.92,4.361318,4.432637000000001,-1.477502,0.278519,0.39743,-0.047287
593,5.93,4.256501999999999,3.5360139999999998,-0.841609,0.37864699999999996,0.224854,-0.046219
594,5.94,3.173635,2.484083,-0.28298500000000004,0.526718,0.06080599999999999,-0.025986000000000002
595,5.95,1.162836,2.18363,0.560986,0.634308,-0.006302000000000001,0.04007
596,5.96,0.09293400000000003,2.659384,2.062202,0.6321869999999999,0.108734,0.099716
597,5.97,-0.589465,2.4679159999999998,4.0976300000000005,0.457474,0.339905,0.090134
598,5.98,-1.331309,1.446515,5.791196,0.277451,0.38250700000000004,-0.017456
599,5.99,-1.9009900000000002,0.496118,6.474945,0.236969,0.130051,-0.025986000000000002
600,6.0,-2.375479,-0.13658000000000006,6.358178,0.292358,-0.22042800000000004,0.05072
601,6.01,-2.339296,-0.06942699999999999,4.235811,0.324326,-0.5187069999999999,0.297852
602,6.02,-1.0246469999999999,0.496159,2.0051080000000003,0.319,-0.6518550000000001,0.569504
603,6.03,-0.512791,0.8253229999999999,0.436292,0.370132,-0.653992,0.666443
604,6.04,-0.362313,1.020376,-0.495259,0.394623,-0.58049,0.603592
605,6.05,-0.8183239999999999,1.5066700000000002,-0.377255,0.259338,-0.5144350000000001,0.44592299999999996
606,6.06,-1.214234,2.463087,0.043795999999999995,-0.032546999999999986,-0.362106,0.259506
607,6.07,-1.31685,3.3599620000000003,0.687843,-0.357452,-0.14585899999999996,0.08480800000000001
608,6.08,-0.509141,3.5989489999999997,1.5241049999999998,-0.617371,0.083176,-0.196426
609,6.09,-0.04027,2.6810400000000003,1.9430509999999999,-0.646133,0.156677,-0.37751799999999996
610,6.1,0.078206,1.116195,2.1221240000000003,-0.607788,0.141769,-0.46380600000000005
611,6.11,0.220214,-0.5414800000000001,1.795608,-0.520432,0.072525,-0.444626
612,6.12,0.329418,-2.17557,1.397529,-0.384079,0.004349,-0.38816799999999996
613,6.13,0.580488,-3.932071,0.8656159999999999,-0.228546,-0.10324100000000001,-0.317871
614,6.14,0.978352,-5.135084,0.24151,-0.102844,-0.23426799999999998,-0.25501999999999997
615,6.15,1.3192709999999999,-5.81506,-0.448941,-0.053848,-0.372757,-0.226257
616,6.16,1.593721,-6.152851999999999,-0.954709,-0.065567,-0.490997,-0.24116500000000002
617,6.17,1.360487,-6.176226,-1.22108,-0.115631,-0.591141,-0.278458
618,6.18,0.718637,-5.766654,-1.34924,-0.181686,-0.659317,-0.33171100000000003
619,6.19,-0.27150100000000005,-4.929853,-1.3468639999999998,-0.258377,-0.711517,-0.372192
620,6.2,-1.21272,-3.838138,-1.219598,-0.329758,-0.758392,-0.386047
621,6.21,-2.104746,-2.836071,-0.965902,-0.374496,-0.794601,-0.359406
622,6.22,-2.6650549999999997,-2.089229,-0.8478540000000001,-0.383011,-0.811646,-0.289108
623,6.23,-2.676182,-1.771369,-0.460056,-0.367035,-0.7850189999999999,-0.203888
624,6.24,-2.4968220000000003,-1.6677400000000002,-0.23057199999999997,-0.311646,-0.718964,-0.126114
625,6.25,-1.9724380000000001,-1.6764009999999998,-0.142617,-0.220032,-0.6561130000000001,-0.059005999999999996
626,6.26,-1.345412,-1.454415,-0.368229,-0.10497999999999999,-0.624161,-0.017456
627,6.27,-1.064469,-0.7630779999999999,-0.8657389999999999,0.019653000000000004,-0.59433,0.011306999999999998
628,6.28,-0.7359859999999999,-0.258346,-1.3494389999999998,0.141098,-0.545334,-0.0004119999999999992
629,6.29,-0.5736020000000001,0.199347,-1.5985120000000002,0.2146,-0.48567200000000005,-0.0345
630,6.3,-0.522516,0.662116,-1.444014,0.25827,-0.44413800000000003,-0.101624
631,6.31,-0.20872399999999997,1.209455,-1.288641,0.32005300000000003,-0.468628,-0.17938199999999999
632,6.32,-0.031201999999999997,1.712745,-1.175484,0.382904,-0.603928,-0.21666
633,6.33,-0.032846000000000014,1.8560130000000001,-1.014812,0.422318,-0.73175,-0.168732
634,6.34,-0.493159,1.7682810000000002,-0.8370340000000001,0.387177,-0.704056,-0.066467
635,6.35,-1.446625,1.7685799999999998,-1.03197,0.334976,-0.513382,-0.004684000000000001
636,6.36,-2.5701970000000003,2.365212,-1.1949239999999999,0.345627,-0.316299,-0.059005999999999996
637,6.37,-3.6264819999999998,3.5023690000000003,-1.9047889999999998,0.42658999999999997,-0.222565,-0.21133400000000002
638,6.38,-3.7749879999999996,3.9530089999999998,-2.447322,0.518204,-0.336548,-0.33064299999999996
639,6.39,-2.2068060000000003,3.826147,-1.447907,0.6321869999999999,-0.687012,-0.31359899999999996
640,6.4,0.6885479999999998,4.076415,0.901274,0.751495,-1.041748,-0.22093200000000002
641,6.41,2.7547900000000003,3.896491,3.3691980000000004,0.702484,-1.1844940000000002,-0.134644
642,6.42,3.933066,2.936153,5.2544319999999995,0.49902299999999994,-0.9714360000000001,-0.117599
643,6.43,4.24557,1.899558,5.615702,0.42126499999999995,-0.70192,-0.21772800000000003
644,6.44,4.452306,1.042076,4.698047,0.47772200000000004,-0.647598,-0.261414
645,6.45,4.379125,0.612794,3.2813190000000003,0.42871099999999995,-0.586884,-0.33064299999999996
646,6.46,3.2789599999999997,1.139774,2.1119790000000003,0.276382,-0.470764,-0.5255890000000001
647,6.47,2.009998,1.651705,1.526957,0.20606999999999998,-0.40684499999999996,-0.7003020000000001
648,6.48,0.961973,1.869839,0.7412979999999999,0.14003,-0.342926,-0.747162
649,6.49,0.16820000000000002,2.030222,0.17335699999999998,-0.068756,-0.289673,-0.670471
650,6.5,-0.272497,2.352934,0.034945,-0.32655300000000004,-0.232147,-0.49789399999999995
651,6.51,-0.41114399999999995,2.9032299999999998,0.11024500000000001,-0.505524,-0.179947,-0.292297
652,6.52,-0.746373,3.0196259999999997,0.361773,-0.599258,-0.11923199999999999,-0.101624
653,6.53,-1.174525,2.375022,0.889483,-0.642944,-0.047852,0.075211
654,6.54,-1.016219,1.134831,1.166663,-0.621628,0.00647,0.22009299999999998
655,6.55,-0.586687,-0.540284,1.244284,-0.512985,0.016068,0.291458
656,6.56,-0.321211,-2.437554,1.1326049999999999,-0.33827199999999996,-0.013763,0.312775
657,6.57,-0.122511,-4.334291,0.769227,-0.194458,-0.060638,0.319168
658,6.58,0.093747,-5.96139,0.167657,-0.132675,-0.079819,0.29891999999999996
659,6.59,0.11483299999999999,-7.313021000000001,-0.4516490000000001,-0.14546199999999998,-0.061707000000000005,0.275482
660,6.6,0.191412,-7.932931,-1.089656,-0.202988,-0.051056,0.259506
661,6.61,0.116625,-7.7990770000000005,-1.620362,-0.28714,-0.044662,0.258438
662,6.62,0.168737,-6.753914,-1.9819330000000002,-0.384079,0.0011439999999999992,0.272293
663,6.63,0.18062,-5.534427,-1.8519599999999998,-0.46929899999999997,0.076782,0.27015700000000004
664,6.64,0.156844,-4.061437000000001,-1.449324,-0.519363,0.187576,0.250992
665,6.65,0.310213,-2.728589,-0.9513959999999999,-0.514038,0.266403,0.231812
666,6.66,0.535168,-1.5417370000000001,-0.49524399999999996,-0.46929899999999997,0.324982,0.211563
667,6.67,0.676036,-0.528608,-0.03403600000000001,-0.39366100000000004,0.39210500000000004,0.196655
668,6.68,0.844817,0.059594999999999974,0.188527,-0.264771,0.444305,0.167892
669,6.69,1.031937,0.293491,-0.019947999999999997,-0.091125,0.466675,0.128479
670,6.7,1.1954879999999999,0.10222599999999997,-0.4852030000000001,0.084641,0.441101,0.08374
671,6.71,1.3808770000000001,-0.146751,-0.905668,0.21778899999999998,0.38678,0.033676
672,6.72,1.6823439999999998,-0.19636199999999998,-1.377743,0.292358,0.362274,-0.0014800000000000006
673,6.73,2.100055,0.11681400000000002,-1.88054,0.306213,0.36546300000000004,-0.002548
674,6.74,2.497217,0.7017979999999999,-2.3394939999999997,0.254013,0.371857,-0.0014800000000000006
675,6.75,2.709991,1.244102,-2.520331,0.156006,0.39743,-0.029175
676,6.76,2.7326200000000003,1.9098810000000002,-2.353327,0.04628,0.466675,-0.108017
677,6.77,2.713275,2.551674,-1.9640830000000002,-0.02829,0.566803,-0.225189
678,6.78,2.727164,3.406729,-1.59104,-0.02829,0.61261,-0.339172
679,6.79,3.150301,4.439426,-1.174142,0.037766,0.54657,-0.382843
680,6.8,3.816072,5.1540610000000004,-0.592487,0.163467,0.377182,-0.333847
681,6.81,4.218485,5.160983,-0.13654900000000006,0.340302,0.163071,-0.229446
682,6.82,4.095885,4.32765,0.10835499999999999,0.545898,-0.056381000000000014,-0.10588099999999999
683,6.83,3.040096,3.450019,0.621365,0.699295,-0.20764200000000002,0.0027769999999999948
684,6.84,2.16617,3.4085919999999996,2.055552,0.7344510000000001,-0.19805899999999999,0.103973
685,6.85,1.757434,3.053727,3.676315,0.540573,-0.084076,0.161499
686,6.86,1.197676,1.4798360000000002,5.416617,0.196487,-0.039337000000000004,0.079483
687,6.87,0.545585,0.14415599999999995,5.980057,0.007934999999999998,-0.20977800000000002,0.005981
688,6.88,-0.600391,-0.57009,5.685561,0.034561,-0.483551,0.032608
689,6.89,-1.567114,-1.0388190000000002,3.854636,0.097412,-0.683823,0.193466
690,6.9,-1.105437,-0.456661,1.6855759999999997,0.08996599999999999,-0.7711640000000001,0.49279799999999996
691,6.91,-0.9050530000000001,0.241285,0.234324,0.12085,-0.786087,0.702652
692,6.92,-0.90175,0.512433,-0.545871,0.156006,-0.79567,0.749527
693,6.93,-0.991758,0.940775,-0.6037939999999999,0.016464000000000006,-0.780762,0.68988
694,6.94,-1.0028549999999998,1.5436239999999999,0.015658000000000002,-0.257309,-0.722168,0.578018
695,6.95,-0.21371300000000001,2.198987,0.534127,-0.523636,-0.618835,0.46936000000000005
696,6.96,1.1414030000000002,2.80253,1.162965,-0.674896,-0.557053,0.34259
697,6.97,2.162111,2.765979,1.573204,-0.70047,-0.51976,0.159378
698,6.98,2.265277,2.131993,1.558178,-0.645065,-0.529358,-0.025985999999999995
699,6.99,1.994905,0.950232,1.267242,-0.5332180000000001,-0.591141,-0.12931800000000002
700,7.0,1.886996,-0.4310820000000001,0.937608,-0.375565,-0.709381,-0.164474
701,7.01,1.986637,-1.901084,0.753861,-0.188065,-0.8904719999999999,-0.17938199999999999
702,7.02,2.2809779999999997,-3.183591,0.263411,-0.048523000000000004,-1.103531,-0.195358
703,7.03,2.58176,-4.329749,-0.085832,-0.010178,-1.317642,-0.212402
704,7.04,2.89647,-5.248047,-0.401119,-0.036804,-1.525375,-0.260345
705,7.05,2.803907,-5.809372,-0.502369,-0.074081,-1.701141,-0.324265
706,7.06,2.238584,-5.908264,-0.677022,-0.131607,-1.785294,-0.384979
707,7.07,1.397967,-5.548675,-0.942494,-0.20192000000000002,-1.8012849999999998,-0.42865
708,7.08,0.236945,-4.772234,-0.9691700000000001,-0.294601,-1.783173,-0.433975
709,7.09,-0.962882,-3.7876410000000003,-0.897483,-0.375565,-1.728836,-0.410538
710,7.1,-2.304418,-2.542273,-0.719625,-0.41391000000000006,-1.667053,-0.37112399999999995
711,7.11,-3.026736,-1.500918,-0.506416,-0.390472,-1.614853,-0.327454
712,7.12,-3.3845650000000003,-0.733897,-0.353592,-0.29246500000000003,-1.528564,-0.297623
713,7.13,-3.4811989999999997,-0.38046399999999997,-0.427501,-0.16250599999999998,-1.391159,-0.270996
714,7.14,-3.168684,-0.326096,-0.81904,-0.025085,-1.223907,-0.242233
715,7.15,-2.878264,0.08578400000000001,-1.283158,0.097412,-1.072632,-0.204956
716,7.16,-2.234739,0.348352,-1.754376,0.205017,-0.950134,-0.18470799999999998
717,7.17,-1.331069,0.555789,-1.9282990000000002,0.29982,-0.8968659999999999,-0.193237
718,7.18,-0.35278200000000004,0.860139,-1.914133,0.37651100000000004,-0.881958,-0.21453899999999998
719,7.19,0.306199,1.378919,-1.9134470000000001,0.402084,-0.8990020000000001,-0.197495
720,7.2,0.592992,2.290311,-1.634303,0.34881599999999996,-0.883026,-0.108017
721,7.21,0.040690999999999984,2.669854,-1.684767,0.314728,-0.7818149999999999,-0.033447000000000005
722,7.22,-0.49960200000000005,2.989447,-1.6554919999999997,0.329651,-0.669968,-0.00148
723,7.23,-1.20015,3.6846629999999996,-1.8667169999999997,0.37651100000000004,-0.5964659999999999,-0.066467
724,7.24,-1.9190040000000002,3.628448,-2.109083,0.398895,-0.618835,-0.165527
725,7.25,-1.407568,3.149184,-1.7313479999999999,0.44256599999999996,-0.816971,-0.191101
726,7.26,0.759549,3.0325450000000003,-0.503663,0.49263,-1.103531,-0.134644
727,7.27,2.745925,3.187379,1.360143,0.44682299999999997,-1.344284,-0.059005999999999996
728,7.28,3.754208,2.7368330000000003,3.8326239999999996,0.22843899999999998,-1.399673,-0.01001
729,7.29,3.8051510000000004,2.1227869999999998,5.72411,0.104874,-1.218582,-0.055817
730,7.3,3.597352,1.608902,6.306645,0.144287,-1.054535,-0.163406
731,7.31,3.604602,1.5374700000000001,6.08355,0.220993,-1.110992,-0.21666
732,7.32,3.338508,1.595387,4.974883999999999,0.274246,-1.0385440000000001,-0.31040999999999996
733,7.33,2.514983,1.468256,3.151345,0.287033,-0.757324,-0.481918
734,7.34,1.57677,0.87324,1.7050550000000002,0.219925,-0.533615,-0.5735319999999999
735,7.35,0.8255430000000001,0.230132,0.8659959999999999,0.051605,-0.438812,-0.55542
736,7.36,0.11831899999999995,0.448349,0.451733,-0.19233699999999998,-0.408981,-0.44036899999999995
737,7.37,-0.643728,1.182909,0.07884,-0.40219099999999997,-0.363174,-0.26886
738,7.38,-1.155732,1.841407,-0.026424,-0.548126,-0.277954,-0.06965600000000001
739,7.39,-1.792328,2.313745,0.35019,-0.640808,-0.174622,0.135941
740,7.4,-2.0519369999999997,2.361053,0.8228850000000001,-0.7089840000000001,-0.06170700000000001,0.34259
741,7.41,-1.702722,1.457355,1.5128139999999999,-0.721771,0.055480999999999996,0.49279799999999996
742,7.42,-1.242074,-0.20823699999999998,2.168615,-0.634415,0.146027,0.540741
743,7.43,-0.845791,-2.056004,2.205876,-0.44906599999999997,0.170532,0.516235
744,7.44,-0.186041,-3.771007,1.432092,-0.246658,0.11833199999999999,0.457642
745,7.45,0.4561890000000001,-5.1535459999999995,0.36401999999999995,-0.099655,0.036301,0.389465
746,7.46,0.9936969999999999,-6.101864,-0.7777720000000001,-0.027222000000000003,-0.02655,0.350052
747,7.47,1.55627,-6.616317,-1.6250850000000001,-0.024017,-0.02655,0.324493
748,7.48,1.6854770000000001,-6.450698,-2.169419,-0.078354,0.019257,0.308502
749,7.49,1.765912,-5.721265,-2.3253909999999998,-0.190201,0.09169,0.306381
750,7.5,1.82264,-4.705972,-2.112376,-0.32548499999999997,0.17690999999999998,0.320221
751,7.51,1.824511,-3.778857,-1.5712620000000002,-0.443741,0.23764000000000002,0.322357
752,7.52,1.694209,-2.637278,-0.918276,-0.511917,0.257874,0.29891999999999996
753,7.53,1.459762,-1.5454940000000001,-0.2631089999999999,-0.5342859999999999,0.23124699999999998,0.25311300000000003
754,7.54,1.1463020000000002,-0.696445,0.269307,-0.493805,0.19076500000000002,0.207306
755,7.55,0.915085,-0.208196,0.476022,-0.38621500000000003,0.153488,0.15298499999999998
756,7.56,0.574096,-0.119717,0.402325,-0.223221,0.148148,0.10504200000000001
757,7.57,0.328764,-0.276532,0.025865,-0.044266,0.179047,0.085861
758,7.58,0.345492,-0.46230299999999996,-0.648593,0.119797,0.22378499999999998,0.079483
759,7.59,0.49523599999999995,-0.697063,-1.398565,0.226318,0.267471,0.087997
760,7.6,0.885426,-0.736009,-1.9311060000000002,0.263596,0.32072399999999995,0.107178
761,7.61,1.112895,-0.658792,-2.1615599999999997,0.234833,0.376114,0.10824600000000001
762,7.62,1.099868,-0.3425579999999999,-2.0893330000000003,0.17518599999999998,0.42619300000000004,0.096527
763,7.63,1.10837,0.223321,-1.9826549999999998,0.119797,0.476257,0.06881699999999999
764,7.64,1.3103069999999999,1.024961,-1.858263,0.077179,0.572128,0.008101999999999998
765,7.65,1.717428,1.856645,-1.495012,0.043091000000000004,0.661606,-0.07498200000000001
766,7.66,2.173618,2.785172,-1.0820290000000001,0.055878,0.691437,-0.152756
767,7.67,2.891282,3.5324940000000002,-0.7884939999999999,0.12085,0.662674,-0.153809
768,7.68,3.956006,3.716874,-0.78123,0.23590100000000003,0.549759,-0.080307
769,7.69,4.611837,3.360206,-0.8239559999999999,0.39355500000000004,0.395294,0.030472000000000003
770,7.7,4.321594,2.367707,-0.8789469999999999,0.558685,0.22699,0.12529
771,7.71,2.9284830000000004,1.317402,-0.557305,0.696091,0.086365,0.19985999999999998
772,7.72,1.556477,1.389859,0.732804,0.756821,0.026718000000000002,0.231812
773,7.73,1.0224010000000001,1.531942,2.0865560000000003,0.6332399999999999,-0.006302000000000001,0.236069
774,7.74,1.1439139999999999,1.137248,4.195191,0.216736,-0.021225,0.193466
775,7.75,0.9530350000000001,0.993783,6.197826999999999,-0.19659400000000002,-0.154373,0.140198
776,7.76,0.23673900000000006,1.559018,6.847861,-0.305252,-0.45158400000000004,0.14871199999999998
777,7.77,-0.627762,2.6771830000000003,5.561047,-0.21256999999999998,-0.75412,0.245651
778,7.78,-0.52578,4.042473,3.859285,-0.063431,-0.9149780000000001,0.434204
779,7.79,-0.897166,4.238247,2.95349,0.194351,-0.963974,0.533279
780,7.8,-1.544168,3.618588,2.0706729999999998,0.389297,-0.9107209999999999,0.536469
781,7.81,-2.1682330000000003,3.209682,1.4388100000000001,0.35202,-0.780762,0.47468599999999994
782,7.82,-2.490122,3.19287,0.9876959999999999,0.18158,-0.601791,0.399063
783,7.83,-2.205597,3.3959550000000003,0.64172,-0.0016479999999999967,-0.41963199999999995,0.313843
784,7.84,-1.447302,3.321648,0.49419300000000005,-0.147598,-0.300323,0.20091199999999998
785,7.85,-0.6350640000000001,2.5736830000000004,0.6337470000000001,-0.2733,-0.205521,0.056046000000000006
786,7.86,-0.31431,1.277608,0.983274,-0.376617,-0.128815,-0.073914
787,7.87,-0.136201,-0.204461,1.224695,-0.429886,-0.08514400000000001,-0.146362
788,7.88,0.20465999999999998,-1.546605,1.171518,-0.416046,-0.117096,-0.157013
789,7.89,0.875909,-3.307009,0.690526,-0.32548499999999997,-0.280075,-0.123993
790,7.9,1.296189,-4.242430000000001,0.282658,-0.276489,-0.408981,-0.117599
791,7.91,1.600374,-4.821807,-0.132363,-0.253052,-0.51976,-0.12506099999999998
792,7.92,1.672262,-5.036633,-0.336537,-0.25198400000000004,-0.624161,-0.145294
793,7.93,1.500542,-4.927164,-0.484592,-0.256256,-0.732819,-0.17619300000000002
794,7.94,1.042397,-4.589376000000001,-0.409017,-0.261581,-0.820175,-0.20814499999999997
795,7.95,0.13553400000000004,-4.263332,-0.24605900000000003,-0.260513,-0.893677,-0.24009699999999998
796,7.96,-0.778526,-3.721249,-0.15018800000000002,-0.253052,-0.956528,-0.24436999999999998
797,7.97,-1.6221809999999999,-3.1404240000000003,-0.11778699999999999,-0.23921199999999998,-0.979965,-0.23265100000000002
798,7.98,-2.333112,-2.575132,-0.291267,-0.216827,-0.9309540000000001,-0.19856300000000002
799,7.99,-2.777327,-2.209969,-0.646717,-0.185944,-0.8276209999999999,-0.148483
800,8.0,-2.900643,-2.135221,-0.967708,-0.157181,-0.6902010000000001,-0.089905
801,8.01,-2.998652,-2.035933,-1.21413,-0.11776700000000001,-0.536804,-0.037704
802,8.02,-2.789333,-1.9892849999999997,-1.380922,-0.060242,-0.415375,0.005981000000000002
803,8.03,-2.460628,-1.700259,-1.602017,0.019653000000000004,-0.340805,0.056046000000000006
804,8.04,-2.036532,-1.342116,-2.0126779999999997,0.088898,-0.301392,0.09120199999999999
805,8.05,-1.450933,-0.8971,-2.268041,0.134705,-0.27369699999999997,0.103973
806,8.06,-1.00529,-0.881804,-2.025452,0.176254,-0.249191,0.070953
807,8.07,-0.775937,-0.7169949999999999,-1.7303419999999998,0.227386,-0.236404,0.009171
808,8.08,-0.6185229999999999,-0.379166,-1.504184,0.25827,-0.23001100000000002,-0.070724
809,8.09,-0.42315600000000003,0.11585900000000003,-1.609162,0.24443099999999998,-0.264099,-0.121857
810,8.1,-0.023411999999999992,0.722704,-1.7571560000000002,0.205017,-0.38340799999999997,-0.103745
811,8.11,0.35641799999999996,1.3398290000000002,-1.6689669999999999,0.167725,-0.524033,-0.02066
812,8.12,0.37701399999999996,2.044461,-1.4032850000000001,0.163467,-0.590073,0.090134
813,8.13,-0.197925,2.419259,-1.184712,0.196487,-0.5751649999999999,0.155106
814,8.14,-1.2347549999999998,2.7591919999999996,-1.1598110000000001,0.262527,-0.50592,0.156174
815,8.15,-2.101384,2.937316,-1.268381,0.36692800000000003,-0.469696,0.123154
816,8.16,-2.282255,3.086302,-1.010191,0.479843,-0.5144350000000001,0.069885
817,8.17,-0.911158,3.7563839999999997,-0.424687,0.578918,-0.722168,0.005981
818,8.18,1.0948069999999999,4.791884,1.4305910000000002,0.628983,-0.985291,-0.015335
819,8.19,1.732545,5.089716,3.884008,0.5160680000000001,-1.003403,-0.054749
820,8.2,0.9711719999999999,4.490247,5.962562999999999,0.34988400000000003,-0.600723,-0.14743
821,8.21,-0.04857499999999998,3.82763,6.861642,0.340302,-0.104309,-0.325317
822,8.22,-0.49,3.486222,6.255443,0.364807,0.254684,-0.48085
823,8.23,-0.9752559999999999,2.9618189999999998,4.923178,0.29982,0.385712,-0.571396
824,8.24,-1.356213,2.2417540000000002,4.167232,0.274246,0.372925,-0.576721
825,8.25,-0.519808,1.54629,3.073603,0.373322,0.323929,-0.514938
826,8.26,0.492583,0.7048840000000001,1.592373,0.438309,0.245087,-0.38816799999999996
827,8.27,1.084703,0.7521329999999999,0.5777679999999998,0.329651,0.217392,-0.265671
828,8.28,1.023565,1.616084,0.622422,0.099548,0.347366,-0.181519
829,8.29,0.102472,2.5339400000000003,0.8929010000000001,-0.08580000000000003,0.540176,-0.09629800000000001
830,8.3,-0.8526290000000001,2.859667,1.248358,-0.176361,0.725525,0.012359999999999996
831,8.31,-1.5513569999999999,2.497763,1.4984629999999999,-0.191269,0.8544309999999999,0.135941
832,8.32,-2.125473,1.5189190000000001,1.503595,-0.17741400000000002,0.922607,0.24992399999999998
833,8.33,-2.318362,0.453375,1.347709,-0.147598,0.9822540000000001,0.341537
834,8.34,-2.022495,-0.9299360000000001,1.1066770000000001,-0.106049,1.011017,0.390533
835,8.35,-1.572234,-2.746191,0.8799809999999999,-0.06131,0.95137,0.41503900000000005
836,8.36,-1.0288549999999999,-4.4295230000000005,0.5280729999999999,-0.04213,0.86615,0.45019499999999996
837,8.37,-0.474513,-5.855053,0.21535300000000002,-0.078354,0.8320620000000001,0.478958
838,8.38,-0.013750000000000012,-6.7462919999999995,-0.275356,-0.151855,0.85762,0.499191
839,8.39,0.367544,-7.077064999999999,-0.816121,-0.26263400000000003,0.8735959999999999,0.517303
840,8.4,0.49740200000000007,-6.681589999999999,-1.185556,-0.40325900000000003,0.859756,0.513046
841,8.41,0.6123,-5.828112,-0.90615,-0.544937,0.875732,0.504517
842,8.42,0.613214,-4.891066,-0.07362800000000003,-0.6195069999999999,0.972672,0.48321499999999995
843,8.43,0.588817,-3.825187,0.506525,-0.61525,1.094116,0.44059799999999993
844,8.44,0.45905,-2.821581,0.626396,-0.5587770000000001,1.172943,0.376678
845,8.45,0.266324,-1.8673349999999997,0.482336,-0.487411,1.219818,0.292526
846,8.46,0.12926600000000002,-1.318706,0.366413,-0.395798,1.240051,0.207306
847,8.47,0.041443,-1.0421340000000001,-0.02667800000000001,-0.296722,1.229401,0.133804
848,8.48,0.219783,-0.8215819999999999,-0.420547,-0.20192000000000002,1.187851,0.102921
849,8.49,0.603288,-0.560754,-0.70544,-0.10923800000000002,1.126068,0.096527
850,8.5,0.999058,-0.289569,-0.9474389999999999,0.0004730000000000012,1.036591,0.115692
851,8.51,1.429059,-0.192971,-1.2912,0.099548,0.9151459999999999,0.134872
852,8.52,1.777177,-0.46956400000000004,-1.4311909999999999,0.156006,0.7755890000000001,0.13913
853,8.53,1.862844,-0.97793,-1.402871,0.18051099999999998,0.640305,0.128479
854,8.54,1.6580240000000002,-1.342442,-1.428931,0.20713800000000002,0.5604100000000001,0.099716
855,8.55,1.1363889999999999,-1.4106459999999998,-1.637465,0.239105,0.548691,0.060302999999999995
856,8.56,0.414137,-0.777617,-2.06493,0.239105,0.632843,0.017685
857,8.57,-0.331402,0.287067,-2.496083,0.208206,0.768143,-0.037704
858,8.58,-0.691908,1.246542,-2.685457,0.141098,0.89064,-0.083511
859,8.59,-0.43135500000000004,1.873127,-2.382499,0.04628,0.921539,-0.11439500000000001
860,8.6,0.346515,2.41405,-1.7771119999999998,0.0004729999999999994,0.797974,-0.099487
861,8.61,1.743995,3.180597,-1.290966,0.04415899999999999,0.591309,-0.030243
862,8.62,3.002375,3.9272419999999997,-1.182597,0.167725,0.388901,0.06456
863,8.63,3.586364,4.049427,-1.276789,0.339233,0.27279699999999996,0.15298499999999998
864,8.64,3.3127269999999998,3.43514,-1.342275,0.518204,0.224854,0.19985999999999998
865,8.65,1.530162,2.427882,-1.238413,0.6566770000000001,0.252548,0.188141
866,8.66,-0.5464339999999999,2.459272,0.11748299999999999,0.7323149999999999,0.38678,0.138062
867,8.67,-1.7563950000000002,3.097438,1.69625,0.664139,0.627518,0.113571
868,8.68,-2.271957,2.882982,3.996428,0.39569099999999996,0.8672030000000001,0.080536
869,8.69,-2.663465,1.875684,6.144474,0.232712,0.818207,0.015564
870,8.7,-3.3448010000000004,1.376144,6.7909820000000005,0.321121,0.589172,0.002777
871,8.71,-4.1193800000000005,0.844093,5.84549,0.386108,0.295166,0.048583999999999995
872,8.72,-3.860911,1.0553569999999999,3.8326519999999995,0.276382,-0.02229300000000001,0.324493
873,8.73,-1.8535979999999999,2.004069,1.911901,0.156006,-0.158646,0.713303
874,8.74,-0.620483,2.571993,0.31742399999999993,0.17518599999999998,-0.185272,0.924225
875,8.75,-0.11698,2.541216,-0.833852,0.17518599999999998,-0.182083,0.86351
876,8.76,-0.5336489999999999,2.554152,-0.8954709999999999,-0.009109000000000006,-0.140533,0.647263
877,8.77,-1.181698,2.869239,-0.44808400000000004,-0.304184,0.02565000000000001,0.428879
878,8.78,-1.705948,3.2007849999999998,0.126303,-0.5843510000000001,0.24829099999999998,0.233948
879,8.79,-1.478907,3.169321,0.8834220000000002,-0.771835,0.486908,0.029404000000000003
880,8.8,-1.0911879999999998,2.645665,1.644206,-0.838943,0.693573,-0.17724600000000001
881,8.81,-0.962467,1.344083,1.960366,-0.79953,0.818207,-0.322128
882,8.82,-0.659313,-0.123116,1.8091270000000002,-0.690872,0.8352510000000001,-0.389236
883,8.83,-0.27124699999999996,-1.380232,1.197725,-0.553452,0.7660060000000001,-0.37858600000000003
884,8.84,0.1848,-3.0381270000000002,0.385971,-0.42456099999999997,0.624329,-0.332779
885,8.85,0.500388,-4.634412,-0.313506,-0.332947,0.473053,-0.270996
886,8.86,0.695297,-5.9625010000000005,-0.8660909999999999,-0.283951,0.323929,-0.218796
887,8.87,0.744121,-6.681622999999999,-1.173234,-0.270096,0.179047,-0.181519
888,8.88,0.540602,-6.848299000000001,-1.426128,-0.276489,0.038437,-0.160202
889,8.89,0.12686,-6.2291419999999995,-1.4842309999999999,-0.312714,-0.100052,-0.145294
890,8.9,-0.4949629999999999,-5.054386,-1.379075,-0.351059,-0.201248,-0.142105
891,8.91,-1.353798,-3.77538,-1.132001,-0.37235999999999997,-0.27369699999999997,-0.13783299999999998
892,8.92,-2.1509,-2.432464,-0.8937370000000001,-0.360641,-0.315231,-0.123993
893,8.93,-3.084964,-1.427956,-0.6657420000000001,-0.296722,-0.29393,-0.090958
894,8.94,-3.543539,-0.641098,-0.606019,-0.199783,-0.20018,-0.047287
895,8.95,-3.717507,-0.10975600000000002,-0.783015,-0.076218,-0.06703200000000001,-0.007874000000000003
896,8.96,-3.5697919999999996,-0.024602000000000002,-1.096243,0.051605000000000005,0.07785,0.023025999999999998
897,8.97,-3.221162,-0.29986399999999996,-1.5727280000000001,0.177307,0.175858,0.04007
898,8.98,-2.9777970000000002,-0.328968,-1.840616,0.277451,0.21099899999999996,0.029404000000000003
899,8.99,-2.552225,0.07889199999999999,-2.2163060000000003,0.34988400000000003,0.215271,0.015563999999999998
900,9.0,-1.956877,0.632977,-2.431347,0.404221,0.167328,0.010239
901,9.01,-1.3257780000000001,1.0594379999999999,-2.305866,0.458542,0.115128,0.002777
902,9.02,-0.779094,1.411813,-2.292729,0.5160680000000001,0.076782,-0.01001
903,9.03,-0.38708899999999996,1.674434,-2.422034,0.533112,0.009674000000000002,-0.011078
904,9.04,-0.385049,1.93982,-2.511474,0.49369799999999997,-0.122421,0.002777
905,9.05,-0.763444,2.2221130000000002,-2.521582,0.429779,-0.258774,0.05072
906,9.06,-1.27284,2.500474,-2.395357,0.36586,-0.332275,0.098648
907,9.07,-1.939189,2.91355,-2.0464900000000004,0.315796,-0.332275,0.094391
908,9.08,-3.147179,3.492239,-1.6282459999999999,0.33284,-0.26197800000000004,0.015564
909,9.09,-4.08734,3.290179,-1.171791,0.44256599999999996,-0.157578,-0.061141999999999995
910,9.1,-3.992854,2.7180720000000003,-0.839226,0.604492,-0.086197,-0.10481300000000002
911,9.11,-2.233407,2.848918,-0.18784500000000004,0.717407,-0.145859,-0.146362
912,9.12,-0.4774000000000001,3.309093,1.502406,0.717407,-0.28646900000000003,-0.203888
913,9.13,0.21333400000000002,2.8593919999999997,3.107143,0.557617,-0.24173000000000003,-0.269928
914,9.14,-0.047543,1.45434,4.8203629999999995,0.360535,-0.006302000000000002,-0.281647
915,9.15,-0.33457,0.291101,5.596393,0.300888,0.258942,-0.305084
916,9.16,0.056141,-0.211538,5.451725,0.250824,0.36120599999999997,-0.297623
917,9.17,0.540723,0.16479500000000002,4.843334,0.14216600000000001,0.40808099999999997,-0.296555
918,9.18,0.413574,1.621412,4.291737,0.118729,0.42831400000000003,-0.396698
919,9.19,0.550391,2.900867,3.238172,0.251877,0.5636140000000001,-0.5287930000000001
920,9.2,0.669909,3.058408,1.557137,0.338165,0.759613,-0.6481020000000001
921,9.21,0.30641,2.422743,0.511375,0.216736,0.850159,-0.691772
922,9.22,0.037048000000000005,1.858828,0.334488,-0.025085,0.875732,-0.615082
923,9.23,-0.561738,1.9960900000000001,0.327864,-0.23494,0.907684,-0.511749
924,9.24,-1.4062780000000001,1.99973,0.19598800000000002,-0.374496,0.95137,-0.37112399999999995
925,9.25,-1.936229,1.544677,0.288166,-0.453323,0.958817,-0.19003299999999998
926,9.26,-1.9241119999999998,0.8528,0.468438,-0.47355699999999995,0.9620209999999999,-0.007874000000000006
927,9.27,-1.55988,-0.313759,0.6586270000000001,-0.45013400000000003,0.9716030000000001,0.126343
928,9.28,-1.0396610000000002,-1.511953,0.705558,-0.398987,0.995041,0.212631
929,9.29,-0.49576800000000004,-3.674099,0.685294,-0.334015,1.066406,0.303177
930,9.3,-0.517781,-4.779604,0.329492,-0.330811,1.134583,0.367096
931,9.31,-0.742843,-5.701282,-0.037985999999999985,-0.353195,1.227264,0.41503900000000005
932,9.32,-1.157159,-6.210896,-0.421558,-0.390472,1.32634,0.44912700000000005
933,9.33,-1.467484,-6.278899,-0.862593,-0.430954,1.395584,0.46191400000000005
934,9.34,-1.6710900000000002,-5.926933999999999,-1.096206,-0.476761,1.421143,0.44912700000000005
935,9.35,-1.7757610000000001,-5.118558,-1.142924,-0.504456,1.434998,0.42355299999999996
936,9.36,-1.720854,-4.194878,-0.9869959999999999,-0.502319,1.457367,0.393723
937,9.37,-1.324703,-3.3965019999999995,-0.7100810000000001,-0.458649,1.480804,0.375626
938,9.38,-0.74645,-2.562557,-0.6382399999999999,-0.37342800000000004,1.464828,0.36390700000000004
939,9.39,0.05483300000000002,-1.7542490000000002,-0.647533,-0.26902800000000004,1.424347,0.359634
940,9.4,0.983085,-1.093683,-0.5766180000000001,-0.144394,1.398773,0.348984
941,9.41,1.93798,-0.577828,-0.8427520000000001,-0.004851999999999995,1.384933,0.31703200000000004
942,9.42,2.5204590000000002,-0.480612,-1.23285,0.108078,1.345505,0.275482
943,9.43,2.733416,-0.549182,-1.339776,0.165588,1.2656100000000001,0.22648600000000002
944,9.44,2.433904,-0.392326,-1.4745700000000002,0.17305,1.181458,0.15830999999999998
945,9.45,1.9006310000000002,0.09332200000000003,-1.712002,0.16026300000000002,1.057892,0.090134
946,9.46,1.284334,0.619157,-2.1677779999999998,0.165588,0.894913,0.06349199999999999
947,9.47,0.7595,1.11694,-2.3385580000000004,0.161331,0.7660060000000001,0.079483
948,9.48,0.446402,1.698639,-2.214396,0.13789400000000002,0.7191310000000001,0.095459
949,9.49,0.423461,2.3727560000000003,-1.8875919999999997,0.116592,0.7425689999999999,0.08480800000000001
950,9.5,1.006694,3.034051,-1.8526529999999999,0.13363599999999998,0.7457729999999999,0.044326999999999984
951,9.51,1.928325,3.4913230000000004,-1.8651349999999998,0.15493800000000002,0.648834,0.005981
952,9.52,2.738162,3.855744,-1.6866310000000002,0.19222999999999998,0.481583,-0.0025479999999999995
953,9.53,3.1451729999999998,3.991375,-1.671191,0.277451,0.350555,0.008102
954,9.54,2.7981119999999997,3.8300699999999996,-1.645863,0.405273,0.265335,0.016632
955,9.55,1.7797669999999999,3.5160120000000004,-1.6359350000000001,0.51181,0.24829099999999998,0.019821000000000002
956,9.56,0.07110300000000003,2.919489,-0.877251,0.54483,0.288773,-0.01001
957,9.57,-1.399515,3.509147,0.42729,0.552292,0.445358,-0.060074
958,9.58,-1.621426,4.228463,1.8417880000000002,0.453217,0.690369,-0.084579
959,9.59,-1.5285790000000001,3.6455800000000003,4.716536,0.24443099999999998,0.750031,-0.131439
960,9.6,-2.053618,2.808505,7.679278999999999,0.22311399999999998,0.5572199999999999,-0.133575
961,9.61,-2.261273,1.7896619999999999,8.077266,0.379715,0.352692,-0.011078000000000005
962,9.62,-1.838352,1.492581,4.542468,0.424454,-0.008438000000000001,0.274414
963,9.63,-0.12483,1.540259,1.25421,0.353088,-0.305649,0.647263
964,9.64,1.4235950000000002,0.920916,-0.5176770000000002,0.39355500000000004,-0.506989,0.790009
965,9.65,1.613998,0.347506,-1.042542,0.372253,-0.57196,0.6057130000000001
966,9.66,0.643894,0.737931,0.2791710000000001,0.12191800000000001,-0.448395,0.328751
967,9.67,-0.7857609999999999,2.256526,1.8269240000000002,-0.17741400000000002,-0.15332,0.077347
968,9.68,-1.853577,3.8845400000000003,3.033189,-0.343597,0.07464600000000003,-0.131439
969,9.69,-2.588647,4.977633,3.954428,-0.35638400000000003,0.20462,-0.315735
970,9.7,-2.625445,4.955235,4.122237999999999,-0.250916,0.230179,-0.45101899999999995
971,9.71,-2.389957,3.6328089999999995,3.3913279999999997,-0.07515,0.135376,-0.495758
972,9.72,-1.508915,1.627604,2.229188,0.045226999999999996,0.026718000000000002,-0.46273800000000004
973,9.73,-0.552004,-0.6902390000000002,1.261895,0.056946000000000004,-0.030807,-0.39456199999999997
974,9.74,0.316159,-2.854996,0.627433,0.020721,-0.075546,-0.318939
975,9.75,0.8371149999999999,-4.640644,0.340552,-0.022949000000000004,-0.11923199999999999,-0.24542199999999997
976,9.76,1.058783,-5.627675,0.128494,-0.050658999999999996,-0.108582,-0.187897
977,9.77,1.028384,-5.65722,-0.042308000000000005,-0.084747,-0.074478,-0.154877
978,9.78,0.859984,-5.300035,-0.193384,-0.11776700000000001,-0.079819,-0.160202
979,9.79,0.372297,-4.594977,-0.259447,-0.156113,-0.14267,-0.186844
980,9.8,-0.456896,-3.6992879999999997,-0.398468,-0.19766199999999998,-0.24705500000000002,-0.191101
981,9.81,-1.4055549999999999,-2.937019,-0.47054300000000004,-0.241333,-0.370636,-0.165527
982,9.82,-2.189579,-2.3798619999999997,-0.32701399999999997,-0.270096,-0.46330299999999996,-0.116531
983,9.83,-2.7629029999999997,-2.128919,-0.310892,-0.277557,-0.48673999999999995,-0.067535
984,9.84,-2.919077,-2.0842080000000003,-0.23543899999999998,-0.261581,-0.459045,-0.012131
985,9.85,-2.886765,-2.28733,-0.208218,-0.215775,-0.38021900000000003,0.029404000000000003
986,9.86,-2.54773,-2.599683,-0.353575,-0.14546199999999998,-0.263031,0.062439
987,9.87,-2.198645,-2.942936,-0.606895,-0.062377999999999996,-0.149048,0.087997
988,9.88,-1.853441,-3.060197,-1.053102,0.017516999999999998,-0.060638,0.115692
989,9.89,-1.587699,-2.8301990000000004,-1.504797,0.076111,0.007537999999999999,0.11250299999999999
990,9.9,-1.244105,-2.435582,-1.8701619999999999,0.10913099999999999,0.038437,0.080536
991,9.91,-0.910668,-1.995116,-2.0532939999999997,0.13363599999999998,0.004349,0.039001
992,9.92,-0.400976,-1.727011,-2.0551470000000003,0.148544,-0.072357,0.0006409999999999992
993,9.93,-0.03329099999999999,-1.379154,-1.9170099999999999,0.143219,-0.149048,-0.027054
994,9.94,0.26414,-1.1182729999999999,-1.8365810000000002,0.116592,-0.191666,-0.051544000000000006
995,9.95,0.537299,-0.850297,-1.757437,0.08357200000000001,-0.23533600000000002,-0.065399
996,9.96,0.7146100000000001,-0.459312,-1.764309,0.056946000000000004,-0.32055700000000004,-0.066467
997,9.97,0.719982,0.007421000000000011,-1.6896630000000001,0.034561,-0.428146,-0.03344699999999999
998,9.98,0.373015,0.34617600000000004,-1.504572,0.043091000000000004,-0.512314,0.028350999999999998
999,9.99,-0.32982100000000003,0.641418,-1.1891909999999999,0.066528,-0.525085,0.07309
1000,10.0,-1.372662,1.024297,-0.9004969999999999,0.102753,-0.46330299999999996,0.047516
1001,10.01,-2.4386400000000004,1.497009,-0.87805,0.156006,-0.361038,-0.033447000000000005
1002,10.02,-3.5261970000000002,1.8058560000000001,-1.058382,0.242294,-0.280075,-0.11972000000000001
1003,10.03,-3.7173,1.702359,-1.074017,0.380783,-0.275818,-0.19003299999999998
1004,10.04,-2.999069,1.460348,-0.851198,0.5480189999999999,-0.341873,-0.225189
1005,10.05,-1.5401040000000001,1.276551,-0.07495600000000008,0.6716,-0.450531,-0.253952
1006,10.06,0.2601939999999999,1.23165,1.281899,0.682251,-0.627365,-0.259277
1007,10.07,1.585518,0.920667,2.767777,0.512878,-0.736008,-0.26460300000000003
1008,10.08,2.2423900000000003,0.754748,4.49785,0.210342,-0.68808,-0.295502
1009,10.09,3.07737,1.205335,6.242666000000001,-0.01976,-0.43135100000000004,-0.319992
1010,10.1,3.184659,2.6142529999999997,6.359811,-0.115631,-0.005249000000000004,-0.411606
1011,10.11,2.080704,4.255863,5.273993,-0.237076,0.41340600000000005,-0.6065520000000001
1012,10.12,0.440148,5.554447,4.617223,-0.32869,0.705292,-0.7929689999999999
1013,10.13,-0.6440779999999999,5.9224120000000005,3.541553,-0.27223200000000003,0.8533629999999999,-0.806824
1014,10.14,-1.004797,5.554064,2.2391959999999997,-0.152924,0.784119,-0.652359
1015,10.15,-0.527105,4.651134,1.451018,-0.0858,0.620071,-0.43824799999999997
1016,10.16,-0.104768,3.983541,1.054953,-0.084747,0.46347,-0.270996
1017,10.17,-0.43137299999999995,3.567603,1.2021030000000001,-0.091125,0.360138,-0.153809
1018,10.18,-1.135783,3.304728,1.229276,-0.086868,0.351624,-0.036636
1019,10.19,-1.5486389999999999,2.929722,1.062155,-0.115631,0.43896499999999994,0.067764
1020,10.2,-1.424423,1.99958,0.9497260000000001,-0.171021,0.580658,0.145523
1021,10.21,-0.866323,0.713521,0.617853,-0.19233699999999998,0.699966,0.181747
1022,10.22,-0.236566,-0.6647810000000001,0.181404,-0.178482,0.71701,0.183868
1023,10.23,0.300398,-1.926104,-0.23731700000000006,-0.156113,0.674393,0.184937
1024,10.24,0.834096,-3.168686,-0.681678,-0.14653,0.622192,0.180679
1025,10.25,1.231492,-4.130178,-1.094424,-0.163574,0.567871,0.188141
1026,10.26,1.425163,-4.556236,-1.489818,-0.19766199999999998,0.49116499999999996,0.20518499999999998
1027,10.27,1.62304,-4.85018,-1.6718689999999998,-0.248795,0.398499,0.229675
1028,10.28,1.625059,-4.901725,-1.558862,-0.314835,0.332443,0.255249
1029,10.29,1.481488,-4.756194,-1.281283,-0.397934,0.28984099999999996,0.256317
1030,10.3,1.174243,-4.420030000000001,-0.921977,-0.48101800000000006,0.282379,0.24778699999999998
1031,10.31,0.827829,-3.9808739999999996,-0.43983999999999995,-0.548126,0.295166,0.245651
1032,10.32,0.26164899999999996,-3.471249,-0.043434,-0.564117,0.30688499999999996,0.237137
1033,10.33,-0.281483,-2.963874,0.27563699999999997,-0.5374760000000001,0.332443,0.23288000000000003
1034,10.34,-0.706025,-2.500814,0.526501,-0.467178,0.360138,0.21051
1035,10.35,-0.9248930000000001,-2.0339959999999997,0.635473,-0.36277800000000004,0.398499,0.181747
1036,10.36,-0.866793,-1.6329770000000001,0.45275200000000004,-0.24240100000000003,0.42726099999999995,0.142334
1037,10.37,-0.506454,-1.309561,0.22716599999999998,-0.13588,0.448563,0.10824600000000001
1038,10.38,0.022997000000000014,-1.175233,0.064182,-0.041061,0.473053,0.08480800000000001
1039,10.39,0.61078,-1.135151,-0.171425,0.075043,0.495438,0.069885
1040,10.4,1.058133,-1.058856,-0.746548,0.195419,0.49116499999999996,0.06562799999999999
1041,10.41,1.4031069999999999,-0.997001,-1.242587,0.28064,0.47518900000000003,0.076279
1042,10.42,1.616009,-0.91985,-1.625046,0.315796,0.442169,0.087997
1043,10.43,1.591577,-0.734063,-1.737485,0.30728099999999997,0.4198,0.090134
1044,10.44,1.4212870000000002,-0.428972,-1.656885,0.265732,0.39955100000000005,0.079483
1045,10.45,1.222628,0.15698999999999996,-1.667357,0.198624,0.40382399999999996,0.059235
1046,10.46,0.9586600000000001,0.9358799999999999,-1.70238,0.12831099999999998,0.445358,0.037933
1047,10.47,0.8257530000000001,1.902812,-1.7408119999999998,0.095291,0.517807,0.0027769999999999987
1048,10.48,0.853741,2.708734,-1.967705,0.101685,0.573196,-0.044098000000000005
1049,10.49,1.13362,3.204668,-1.9513169999999997,0.125122,0.559341,-0.072861
1050,10.5,1.6885279999999998,3.344323,-1.716113,0.15068099999999998,0.474121,-0.090958
1051,10.51,2.139569,3.221167,-1.581803,0.22311399999999998,0.332443,-0.087769
1052,10.52,2.204116,3.022916,-1.761238,0.327515,0.201416,-0.065399
1053,10.53,1.8415569999999999,2.868134,-2.007894,0.409546,0.130051,-0.032379000000000005
1054,10.54,0.6076379999999999,2.864649,-1.877634,0.45640600000000003,0.12365699999999999,0.013428
1055,10.55,-0.231541,3.729822,-0.9880899999999999,0.472397,0.157745,0.067764
1056,10.56,-0.09076800000000003,4.979622,0.6641050000000001,0.394623,0.275986,0.11675999999999999
1057,10.57,0.591855,4.959512,2.793718,0.178375,0.304749,0.12208599999999999
1058,10.58,0.978825,3.6995150000000003,4.968769,0.044159,0.16626,0.099716
1059,10.59,1.204628,2.441538,5.9062019999999995,0.10594200000000001,0.023514,0.100784
1060,10.6,1.051044,1.112495,5.53336,0.17518599999999998,-0.008438,0.110367
1061,10.61,0.682904,-0.3803560000000001,4.092116000000001,0.199692,0.0022129999999999997,0.134872
1062,10.62,0.25619400000000003,-1.68222,2.35745,0.259338,-0.010574,0.166824
1063,10.63,-0.409518,-2.50157,0.6229130000000002,0.409546,-0.0681,0.179611
1064,10.64,-1.436499,-2.533032,-0.74142,0.5501560000000001,-0.169296,0.201981
1065,10.65,-2.1274189999999997,-1.663043,-1.306223,0.5160680000000001,-0.22789,0.22009299999999998
1066,10.66,-2.310116,-0.237633,-0.760234,0.297684,-0.244934,0.214767
1067,10.67,-1.9794770000000002,1.231092,0.168219,0.03244,-0.23533600000000002,0.190262
1068,10.68,-1.481895,2.417936,1.141129,-0.169968,-0.237473,0.140198
1069,10.69,-0.9222379999999999,3.018655,1.772266,-0.286072,-0.20338399999999998,0.061371
1070,10.7,-0.269949,2.870012,1.905721,-0.30632,-0.174622,-0.019592
1071,10.71,0.16387100000000002,2.130998,1.891246,-0.265839,-0.14267,-0.101624
1072,10.72,0.410567,1.054604,1.730432,-0.183807,-0.098984,-0.170853
1073,10.73,0.364016,-0.07077900000000004,1.421809,-0.10923800000000002,-0.041458,-0.21666
1074,10.74,0.11776,-1.219243,1.13173,-0.058105,0.022461,-0.24330100000000002
1075,10.75,0.024789,-2.254327,0.79691,-0.043198,0.035233,-0.247559
1076,10.76,0.12701800000000002,-2.922841,0.403462,-0.06131,-0.005248999999999997,-0.24969499999999997
1077,10.77,0.381744,-3.173755,0.06181700000000001,-0.110306,-0.09046900000000001,-0.24009699999999998
1078,10.78,0.564012,-3.262686,-0.176085,-0.167831,-0.17036400000000002,-0.24542199999999997
1079,10.79,0.583017,-3.241389,-0.320727,-0.218964,-0.24705500000000002,-0.26353499999999996
1080,10.8,0.396175,-3.111455,-0.409124,-0.253052,-0.35996999999999996,-0.299759
1081,10.81,-0.014520000000000003,-2.949007,-0.36422899999999997,-0.281815,-0.47395299999999996,-0.32959
1082,10.82,-0.5100020000000001,-2.584805,-0.29026,-0.28927600000000003,-0.586884,-0.327454
1083,10.83,-0.9742850000000001,-2.259429,-0.15257299999999996,-0.29139699999999996,-0.653992,-0.297623
1084,10.84,-1.495753,-1.998605,-0.12224000000000002,-0.280746,-0.6678310000000001,-0.24542199999999997
1085,10.85,-1.830848,-1.913152,-0.180092,-0.26263400000000003,-0.631622,-0.192169
1086,10.86,-1.9831,-1.919081,-0.347494,-0.24240100000000003,-0.553848,-0.149551
1087,10.87,-2.0762810000000003,-1.879951,-0.5530649999999999,-0.232819,-0.46330299999999996,-0.121857
1088,10.88,-1.939207,-1.841352,-0.607576,-0.23175,-0.373825,-0.089905
1089,10.89,-1.745421,-1.402415,-0.693808,-0.21044899999999997,-0.306717,-0.051544000000000006
1090,10.9,-1.375306,-0.8253879999999999,-0.698986,-0.164642,-0.255585,-0.0036160000000000007
1091,10.91,-1.0187030000000001,-0.35325700000000004,-0.854289,-0.091125,-0.220428,0.029404000000000003
1092,10.92,-0.753845,-0.039106999999999996,-1.088593,0.007934999999999998,-0.194855,0.05072
1093,10.93,-0.46821499999999994,0.030119999999999997,-1.422827,0.12085,-0.185272,0.059235
1094,10.94,-0.312863,-0.253146,-1.6637099999999998,0.22525,-0.19805899999999999,0.05072
1095,10.95,-0.295175,-0.481488,-1.8412580000000003,0.283844,-0.23426799999999998,0.041122000000000006
1096,10.96,-0.24952800000000003,-0.46120900000000004,-2.131743,0.278519,-0.292862,0.037933
1097,10.97,-0.016288999999999998,-0.34277399999999997,-2.180086,0.23164400000000002,-0.382339,0.033676
1098,10.98,0.08168099999999999,0.13920000000000002,-2.113988,0.18051099999999998,-0.48994399999999994,0.033676
1099,10.99,-0.11468199999999999,0.667449,-1.9427889999999999,0.13684100000000002,-0.5517270000000001,0.042191
1100,11.0,-0.800175,1.2219790000000001,-1.745744,0.08996599999999999,-0.5027159999999999,0.049651999999999995
1101,11.01,-1.581575,1.848061,-1.629406,0.072922,-0.356781,0.020888999999999998
1102,11.02,-2.358809,2.329479,-1.8426779999999998,0.127243,-0.191666,-0.032379000000000005
1103,11.03,-2.435218,2.609321,-2.0443540000000002,0.24443099999999998,-0.11283900000000001,-0.072861
1104,11.04,-2.0767279999999997,2.903826,-2.139019,0.382904,-0.14799500000000002,-0.0867
1105,11.05,-0.938783,3.3147910000000005,-1.96347,0.48837299999999995,-0.319504,-0.11334200000000001
1106,11.06,0.682563,4.16223,-1.24098,0.532043,-0.583679,-0.11866800000000001
1107,11.07,1.47753,4.824841999999999,0.13764500000000002,0.480911,-0.75412,-0.123993
1108,11.08,1.358298,4.540037,1.8611939999999998,0.359467,-0.599655,-0.167664
1109,11.09,0.36630300000000005,3.0407029999999997,3.2873919999999996,0.313675,-0.275818,-0.257141
1110,11.1,-0.09042699999999998,1.536778,3.9502589999999995,0.34988400000000003,-0.100052,-0.335983
1111,11.11,-0.161607,0.355702,3.805962,0.343491,-0.063828,-0.383911
1112,11.12,-0.202013,-0.493134,3.3501230000000004,0.257202,-0.11602799999999999,-0.39456199999999997
1113,11.13,-0.240945,-0.811003,3.070398,0.18158,-0.179947,-0.36154200000000003
1114,11.14,0.444075,-0.465429,2.494614,0.168793,-0.17355299999999999,-0.323196
1115,11.15,1.382744,0.219388,1.8199299999999998,0.185837,-0.144791,-0.300827
1116,11.16,2.1107150000000003,1.003419,1.309809,0.146423,-0.11495999999999999,-0.269928
1117,11.17,2.3685400000000003,1.691604,1.1837870000000001,0.038834,-0.046783,-0.24116500000000002
1118,11.18,1.9746,2.233852,1.17557,-0.070892,0.06932100000000001,-0.191101
1119,11.19,0.82694,2.534394,1.0129139999999999,-0.138,0.20674099999999998,-0.117599
1120,11.2,-0.30284,2.2683240000000002,0.843101,-0.194458,0.31433099999999997,-0.0004119999999999957
1121,11.21,-0.887659,1.6433229999999999,0.890049,-0.22961399999999998,0.37825,0.110367
1122,11.22,-1.393201,0.9333110000000001,1.134963,-0.228546,0.409149,0.193466
1123,11.23,-1.575404,0.20967800000000006,1.280459,-0.208313,0.429382,0.263763
1124,11.24,-1.33384,-1.198596,1.166764,-0.151855,0.43363999999999997,0.320221
1125,11.25,-0.971793,-2.247388,0.786499,-0.10179099999999999,0.40382399999999996,0.336212
1126,11.26,-0.540676,-3.1619330000000003,0.421996,-0.064499,0.342026,0.34579499999999996
1127,11.27,0.127838,-3.929494,-0.116471,-0.052779999999999994,0.283447,0.359634
1128,11.28,0.7146399999999999,-4.337732,-0.508614,-0.082611,0.277054,0.36390700000000004
1129,11.29,1.016907,-4.525002,-0.803814,-0.144394,0.317535,0.361771
1130,11.3,1.0670600000000001,-4.496614,-1.0229469999999998,-0.214706,0.37506100000000003,0.350052
1131,11.31,1.162843,-4.232768,-1.0052290000000002,-0.27967800000000004,0.42405699999999996,0.33407600000000004
1132,11.32,1.175461,-3.814818,-0.759731,-0.330811,0.45921300000000004,0.301056
1133,11.33,1.1289770000000001,-3.207853,-0.49358199999999997,-0.35531599999999997,0.489044,0.274414
1134,11.34,0.9985120000000001,-2.568853,-0.291145,-0.349991,0.502884,0.24246199999999998
1135,11.35,0.9936719999999999,-1.936864,-0.211943,-0.321228,0.49330100000000005,0.201981
1136,11.36,1.040354,-1.501937,-0.22292800000000002,-0.26902800000000004,0.46453900000000004,0.141266
1137,11.37,1.067684,-1.3928479999999999,-0.39519099999999996,-0.202988,0.41340600000000005,0.07309
1138,11.38,1.212544,-1.392508,-0.6683520000000001,-0.152924,0.351624,0.027282999999999998
1139,11.39,1.291555,-1.472523,-0.945349,-0.122025,0.282379,-0.008941999999999999
1140,11.4,1.376032,-1.463334,-1.090661,-0.091125,0.221664,-0.029175
1141,11.41,1.5345600000000001,-1.299477,-1.096657,-0.050658999999999996,0.168396,-0.0345
1142,11.42,1.56975,-0.9725600000000001,-1.1475469999999999,-0.0048519999999999995,0.125778,-0.036636
1143,11.43,1.569151,-0.498409,-1.2401959999999999,0.051605,0.097015,-0.038773
1144,11.44,1.419095,-0.191088,-1.417951,0.11233499999999999,0.076782,-0.036636
1145,11.45,1.197678,0.006645999999999999,-1.583269,0.162399,0.051208000000000004,-0.030243
1146,11.46,0.907066,0.042633,-1.693366,0.17518599999999998,0.050156,-0.018524000000000002
1147,11.47,0.480721,0.040445,-1.7343389999999999,0.14216600000000001,0.094894,-0.017456
1148,11.48,0.135754,0.299439,-1.6815650000000002,0.086761,0.197159,-0.030243
1149,11.49,-0.146636,0.8755700000000001,-1.559859,0.040955,0.35801700000000003,-0.066467
1150,11.5,-0.16331600000000002,1.758902,-1.507883,0.031372000000000004,0.48583999999999994,-0.102676
1151,11.51,0.191838,2.543146,-1.477955,0.04628,0.5135350000000001,-0.10588099999999999
1152,11.52,0.9900979999999999,3.117607,-1.4345219999999999,0.084641,0.45175200000000004,-0.069656
1153,11.53,1.876997,3.448319,-1.501846,0.157074,0.338837,-0.007873999999999999
1154,11.54,2.660066,3.5245370000000005,-1.65068,0.262527,0.215271,0.06456
1155,11.55,3.1044,3.436608,-1.924033,0.388229,0.117264,0.123154
1156,11.56,2.7294709999999998,3.199422,-2.03072,0.491562,0.054412999999999996,0.173218
1157,11.57,1.606674,3.211925,-1.521595,0.54483,0.049088,0.197723
1158,11.58,0.579435,4.090566,-0.26109299999999996,0.557617,0.13856500000000002,0.21690399999999999
1159,11.59,0.41871800000000003,4.81658,1.117753,0.49795500000000004,0.274918,0.23500100000000002
1160,11.6,0.7925409999999999,4.16856,2.585296,0.39569099999999996,0.205673,0.254181
1161,11.61,1.058786,2.577445,4.262464,0.343491,0.005417000000000004,0.2659
1162,11.62,1.046145,1.263521,4.836932,0.337097,-0.06489600000000001,0.28294400000000003
1163,11.63,0.596478,0.222348,4.28637,0.269989,-0.06915299999999999,0.281876
1164,11.64,-0.009840999999999987,-0.598831,3.136514,0.170929,-0.0159,0.291458
1165,11.65,-0.632016,-1.198683,2.1400349999999997,0.174118,-0.000977,0.292526
1166,11.66,-1.679281,-1.571333,1.106853,0.29982,-0.032944,0.29891999999999996
1167,11.67,-2.895266,-1.335876,0.065307,0.39569099999999996,-0.034012,0.320221
1168,11.68,-3.5444370000000003,-0.32710799999999995,-0.388945,0.324326,0.022461,0.337265
1169,11.69,-3.461907,0.9916379999999999,-0.073488,0.14535499999999998,0.065063,0.33300799999999997
1170,11.7,-2.646903,2.230101,0.39097600000000005,-0.051712000000000015,0.050156,0.293594
1171,11.71,-1.361002,2.9509369999999997,0.9895370000000001,-0.240265,0.010741999999999998,0.201981
1172,11.72,-0.215067,3.043972,1.303277,-0.37235999999999997,-0.004181,0.06456
1173,11.73,1.2563790000000001,2.0777330000000003,1.536723,-0.398987,-0.022293,-0.12825
1174,11.74,1.6570630000000002,1.150302,1.4343299999999999,-0.344666,-0.020156999999999998,-0.22837800000000003
1175,11.75,1.661675,0.093943,1.08778,-0.29567,-0.022293,-0.298691
1176,11.76,1.320648,-1.1384730000000003,0.759945,-0.27116399999999996,-0.029738999999999998,-0.333847
1177,11.77,0.8858309999999999,-2.283462,0.550251,-0.275421,-0.028687,-0.333847
1178,11.78,0.5019060000000001,-3.091916,0.353771,-0.281815,-0.046783,-0.325317
1179,11.79,0.13120499999999996,-3.53131,0.099979,-0.297791,-0.080872,-0.31359899999999996
1180,11.8,-0.16131700000000002,-3.8428120000000003,-0.086565,-0.331879,-0.130951,-0.306152
1181,11.81,-0.298518,-4.116215,-0.239526,-0.36277800000000004,-0.20338399999999998,-0.29017600000000005
1182,11.82,-0.604715,-4.127596,-0.367097,-0.384079,-0.298187,-0.292297
1183,11.83,-0.9923059999999999,-3.8244540000000002,-0.468236,-0.387283,-0.398331,-0.29017600000000005
1184,11.84,-1.369237,-3.254788,-0.47847399999999995,-0.369171,-0.49527,-0.276321
1185,11.85,-1.7227700000000001,-2.681457,-0.417335,-0.344666,-0.558121,-0.247559
1186,11.86,-2.0647849999999996,-2.321939,-0.37549499999999997,-0.332947,-0.578354,-0.201752
1187,11.87,-2.297187,-2.102045,-0.37052399999999996,-0.31803899999999996,-0.553848,-0.14743
1188,11.88,-2.214429,-1.941516,-0.421544,-0.29139699999999996,-0.469696,-0.085632
1189,11.89,-2.2294549999999997,-1.7650029999999999,-0.506872,-0.256256,-0.353592,-0.032379000000000005
1190,11.9,-2.251889,-1.6274950000000001,-0.70706,-0.20724499999999998,-0.21722399999999997,0.020889000000000005
1191,11.91,-2.215881,-1.450156,-0.9017069999999999,-0.14013699999999998,-0.077682,0.06349199999999999
1192,11.92,-2.3309159999999998,-1.123253,-1.150352,-0.055984000000000006,0.054412999999999996,0.09120199999999999
1193,11.93,-2.260842,-0.689195,-1.557985,0.026047000000000008,0.14921600000000002,0.103973
1194,11.94,-2.106262,-0.306621,-1.9239099999999998,0.099548,0.197159,0.10824600000000001
1195,11.95,-1.854011,-0.152143,-2.0670580000000003,0.158142,0.20462,0.095459
1196,11.96,-1.4383569999999999,-0.14097,-1.930637,0.17518599999999998,0.189697,0.06881699999999999
1197,11.97,-0.959517,-0.338381,-1.568685,0.141098,0.154541,0.034729
1198,11.98,-0.445712,-0.339345,-1.430517,0.07078599999999999,0.088501,0.016632
1199,11.99,0.08718299999999997,-0.07307899999999998,-1.475747,-0.012299,-0.029738999999999998,0.030472000000000003
1200,12.0,0.608544,0.4497180000000001,-1.592303,-0.076218,-0.16076700000000002,0.077347
1201,12.01,0.727924,1.096977,-1.573525,-0.102844,-0.24705500000000002,0.145523
1202,12.02,0.325761,1.758513,-1.453184,-0.09433,-0.22894299999999998,0.194519
1203,12.03,-0.518303,2.299499,-1.363228,-0.051712,-0.109634,0.181747
1204,12.04,-1.597457,2.734794,-1.511197,0.024978999999999998,0.013931,0.12101700000000001
1205,12.05,-2.341368,2.941463,-1.7395779999999998,0.149612,0.072525,0.060302999999999995
1206,12.06,-2.497583,2.923854,-1.939439,0.292358,0.094894,0.027282999999999998
1207,12.07,-1.685872,3.227614,-2.352336,0.38504,0.046951,-0.012130999999999998
1208,12.08,-0.66675,3.6300779999999997,-2.375012,0.39675900000000003,-0.121353,-0.065399
1209,12.09,0.46325299999999997,3.939047,-1.040145,0.372253,-0.330154,-0.078186
1210,12.1,0.650496,3.6712589999999996,0.8333979999999999,0.324326,-0.438812,-0.089905
1211,12.11,0.08110299999999998,2.658525,2.7474979999999998,0.222061,-0.364243,-0.117599
1212,12.12,-0.52457,1.587281,4.519826999999999,0.161331,-0.178879,-0.154877
1213,12.13,-0.7923479999999999,0.647638,5.885007,0.183701,-0.030807,-0.18470799999999998
1214,12.14,-0.694655,-0.348333,5.893592,0.195419,0.056549,-0.23477199999999998
1215,12.15,-1.01854,-0.8180029999999999,5.11412,0.158142,0.11833199999999999,-0.295502
1216,12.16,-1.26144,-0.717378,4.156083,0.15921,0.287704,-0.350891
1217,12.17,-0.8458829999999999,-0.203061,2.6539759999999997,0.208206,0.552948,-0.421204
1218,12.18,-0.18842899999999999,0.250154,1.132523,0.196487,0.740448,-0.47659300000000004
1219,12.19,0.437191,0.522016,0.398932,0.086761,0.8096770000000001,-0.45101899999999995
1220,12.2,0.810128,0.934893,0.318558,-0.060241999999999976,0.836319,-0.383911
1221,12.21,0.560968,1.269757,0.460521,-0.22216799999999998,0.8586879999999999,-0.30189499999999997
1222,12.22,-0.17432200000000006,1.6464310000000002,0.714733,-0.360641,0.871475,-0.204956
1223,12.23,-0.8946720000000001,2.127599,1.13049,-0.441605,0.902359,-0.087769
1224,12.24,-1.418654,2.285288,1.528349,-0.442673,0.969467,0.02514600000000001
1225,12.25,-1.77,1.8533,1.843375,-0.383011,1.045105,0.127411
1226,12.26,-1.742361,0.9810770000000001,1.919497,-0.296722,1.120743,0.217957
1227,12.27,-1.471741,-0.277593,1.782773,-0.195526,1.179337,0.273361
1228,12.28,-1.316233,-1.7230450000000002,1.429068,-0.11456300000000001,1.2379149999999999,0.307449
1229,12.29,-1.1275600000000001,-2.864241,0.755768,-0.050658999999999996,1.294373,0.33407600000000004
1230,12.3,-0.9611799999999999,-3.7767160000000004,-0.09229399999999993,-0.013366999999999999,1.338058,0.34686300000000003
1231,12.31,-0.8491540000000001,-4.281156,-0.8919869999999999,-0.017624,1.362549,0.347931
1232,12.32,-0.750396,-4.435812,-1.498039,-0.068756,1.372147,0.355377
1233,12.33,-0.524838,-4.146517,-1.785405,-0.157181,1.377472,0.366028
1234,12.34,-0.19378800000000002,-3.592939,-1.661946,-0.24559,1.379593,0.372421
1235,12.35,0.07914299999999999,-2.9543150000000002,-1.434265,-0.305252,1.3753360000000001,0.3703
1236,12.36,0.42985500000000004,-2.250763,-1.0856709999999998,-0.33615100000000003,1.3668209999999998,0.35112
1237,12.37,0.6527109999999999,-1.746077,-0.730822,-0.343597,1.368942,0.320221
1238,12.38,1.0475860000000001,-1.255887,-0.399626,-0.32016,1.367889,0.28294400000000003
1239,12.39,1.324754,-1.02883,-0.263806,-0.250916,1.344452,0.233948
1240,12.4,1.578777,-0.8242370000000001,-0.26992,-0.157181,1.327408,0.189194
1241,12.41,1.42593,-0.556838,-0.43139099999999997,-0.066635,1.3316649999999999,0.144455
1242,12.42,1.050821,-0.280594,-0.8306520000000001,0.012191999999999998,1.340179,0.103973
1243,12.43,0.308827,-0.214894,-1.155612,0.071854,1.325272,0.052841
1244,12.44,-0.194874,-0.375823,-1.138693,0.082504,1.2730709999999998,0.027282999999999998
1245,12.45,-0.347938,-0.458808,-1.119816,0.093155,1.1953120000000002,0.021957
1246,12.46,-0.166267,-0.45972399999999997,-1.138431,0.118729,1.08345,0.04007
1247,12.47,0.33934899999999996,-0.294439,-1.321744,0.157074,0.949234,0.079483
1248,12.48,0.8972469999999999,0.03378299999999998,-1.577282,0.174118,0.818207,0.141266
1249,12.49,1.36689,0.43740500000000004,-1.4879790000000002,0.156006,0.755356,0.186005
1250,12.5,1.508924,0.794787,-0.9502299999999999,0.14535499999999998,0.773468,0.179611
1251,12.51,1.180393,1.2204270000000002,-0.477029,0.163467,0.8128810000000001,0.144455
1252,12.52,0.877431,1.782114,-0.268971,0.183701,0.822464,0.115692
1253,12.53,0.8650959999999999,2.372773,-0.302101,0.187973,0.80542,0.107178
1254,12.54,1.148064,2.834702,-0.615444,0.210342,0.783051,0.119965
1255,12.55,1.502143,2.9071599999999997,-1.029931,0.279572,0.7425689999999999,0.140198
1256,12.56,1.5340799999999999,2.719476,-1.4281409999999999,0.412735,0.694641,0.14765899999999998
1257,12.57,1.1693959999999999,2.4555540000000002,-1.743675,0.568268,0.674393,0.132736
1258,12.58,0.09567100000000006,2.436732,-1.379135,0.6747890000000001,0.707413,0.11250299999999999
1259,12.59,-0.730705,3.3657480000000004,-0.213669,0.7355189999999999,0.848038,0.10504200000000001
1260,12.6,-0.923636,4.373425,1.020461,0.711014,0.986511,0.110367
1261,12.61,-0.8334440000000001,4.561202,2.157595,0.659882,0.974792,0.13913
1262,12.62,-0.9687549999999999,3.6349480000000005,3.099288,0.691833,0.816071,0.17002899999999999
1263,12.63,-1.5583360000000002,2.283498,3.772368,0.755753,0.726593,0.201981
1264,12.64,-2.3574889999999997,0.953451,3.850904,0.722733,0.7724,0.23288000000000003
1265,12.65,-2.978272,-0.20456699999999994,2.869091,0.587433,0.8352510000000001,0.323425
1266,12.66,-2.623536,-1.47821,1.7508720000000002,0.46707200000000004,0.878922,0.45977799999999996
1267,12.67,-2.229572,-2.843116,0.8017310000000001,0.471329,0.8586879999999999,0.526886
1268,12.68,-2.498027,-3.412864,-0.253182,0.50116,0.8267209999999999,0.513046
1269,12.69,-2.644994,-2.941966,-0.8692770000000001,0.414871,0.83844,0.457642
1270,12.7,-2.221444,-1.550874,-0.822476,0.20606999999999998,0.8704069999999999,0.390533
1271,12.71,-1.601379,0.2976869999999999,-0.099709,-0.053848000000000014,0.933258,0.289337
1272,12.72,-1.0104799999999998,1.9601540000000002,0.920581,-0.26796,0.99823,0.156174
1273,12.73,-0.5897060000000001,3.2658009999999997,1.7548,-0.387283,1.036591,0.012359999999999996
1274,12.74,-0.39199,3.8449230000000005,2.101559,-0.425629,1.0355219999999998,-0.121857
1275,12.75,-0.264323,3.6206150000000004,2.094125,-0.38089,0.995041,-0.20814499999999997
1276,12.76,-0.220896,2.597402,1.9024130000000001,-0.26263400000000003,0.9566959999999999,-0.258209
1277,12.77,-0.355566,1.328251,1.290972,-0.143326,0.939651,-0.295502
1278,12.78,-0.598969,-0.14150600000000002,0.9527629999999999,-0.066635,0.9407040000000001,-0.319992
1279,12.79,-0.867872,-1.466489,0.501182,-0.012298999999999996,0.9662780000000001,-0.332779
1280,12.8,-1.2165219999999999,-2.555698,-0.041708,0.018585,0.9833219999999999,-0.338104
1281,12.81,-1.314977,-3.155608,-0.498849,0.019653,0.9577479999999999,-0.33064299999999996
1282,12.82,-1.410317,-3.447863,-0.8872059999999999,-0.026154,0.8352510000000001,-0.289108
1283,12.83,-1.5670030000000001,-3.177233,-0.778924,-0.125229,0.7787930000000001,-0.248627
1284,12.84,-1.725308,-2.7691220000000003,-0.709098,-0.175293,0.752167,-0.21666
1285,12.85,-1.9493630000000002,-2.405237,-0.536112,-0.191269,0.71701,-0.171921
1286,12.86,-2.053722,-2.195295,-0.537216,-0.189133,0.6978300000000001,-0.106949
1287,12.87,-2.2038349999999998,-2.21411,-0.586248,-0.17741400000000002,0.708481,-0.028122
1288,12.88,-2.027549,-2.481938,-0.760436,-0.165695,0.735123,0.043259
1289,12.89,-1.7308430000000001,-2.674602,-0.979914,-0.14971900000000002,0.760681,0.09120199999999999
1290,12.9,-1.429605,-2.6908119999999998,-1.2830190000000001,-0.129486,0.767075,0.131668
1291,12.91,-1.105689,-2.5489669999999998,-1.515787,-0.11776700000000001,0.725525,0.15724200000000002
1292,12.92,-0.821716,-2.1140209999999997,-1.549711,-0.11456300000000001,0.637115,0.17002899999999999
1293,12.93,-0.62766,-1.500865,-1.428165,-0.115631,0.530579,0.165756
1294,12.94,-0.5671970000000001,-0.801541,-1.368765,-0.093262,0.43045,0.160431
1295,12.95,-0.5526840000000001,-0.03945600000000005,-1.36084,-0.054916,0.346298,0.15724200000000002
1296,12.96,-0.673546,0.51625,-1.400104,-0.004852000000000002,0.316467,0.156174
1297,12.97,-0.797567,0.8130609999999999,-1.5076120000000002,0.052673000000000005,0.291962,0.143387
1298,12.98,-1.060245,0.803082,-1.678023,0.110199,0.301559,0.137009
1299,12.99,-1.27252,0.644927,-1.916161,0.162399,0.291962,0.137009
1300,13.0,-1.682353,0.570969,-1.9598360000000001,0.185837,0.252548,0.14978
1301,13.01,-1.9963650000000002,0.8416129999999999,-1.937703,0.187973,0.18650799999999998,0.179611
1302,13.02,-2.344934,1.438134,-1.7984419999999999,0.198624,0.136444,0.217957
1303,13.03,-2.723607,2.226458,-1.861934,0.219925,0.171585,0.241394
1304,13.04,-3.11923,2.9786799999999998,-2.007703,0.246552,0.300491,0.22116100000000002
1305,13.05,-3.346076,3.280676,-2.206516,0.283844,0.48371899999999995,0.173218
1306,13.06,-3.272793,3.231289,-2.431693,0.35202,0.638184,0.10611
1307,13.07,-2.558657,3.037188,-2.6554330000000004,0.45214799999999994,0.665878,0.043259
1308,13.08,-1.180821,3.056079,-2.722068,0.541641,0.50502,-0.011077999999999998
1309,13.09,-0.479584,3.2332240000000003,-1.7324509999999997,0.583176,0.294098,-0.045166000000000005
1310,13.1,-0.113345,2.840783,-0.4378690000000001,0.5512239999999999,0.18223599999999998,-0.11866800000000001
1311,13.11,-0.797837,1.130847,1.305888,0.435104,0.188629,-0.14315799999999998
1312,13.12,-1.249817,-0.7927010000000001,2.992179,0.326447,0.255753,-0.05368
1313,13.13,-1.364079,-2.0472810000000004,3.9200239999999997,0.227386,0.35694899999999996,0.017685
1314,13.14,-1.301685,-2.386687,4.200198,0.100616,0.453888,0.007034000000000002
1315,13.15,-1.494042,-1.728604,3.9094870000000004,-0.044266,0.533783,-0.066467
1316,13.16,-1.832173,0.390846,3.8894279999999997,-0.144394,0.653091,-0.182571
1317,13.17,-2.1406490000000002,2.277438,4.011955,-0.15078699999999998,0.918335,-0.355148
1318,13.18,-1.8126900000000001,3.216343,3.716897,-0.064499,1.327408,-0.48831199999999997
1319,13.19,-1.051298,3.118681,3.1372419999999996,-0.003783999999999999,1.668289,-0.530914
1320,13.2,-0.452561,2.422755,2.4813330000000002,-0.006973,1.825943,-0.46487399999999995
1321,13.21,-0.144121,2.0346040000000003,1.760388,-0.06131,1.846191,-0.372192
1322,13.22,-0.102394,1.763902,0.97616,-0.122025,1.7780150000000001,-0.286972
1323,13.23,-0.341831,1.615694,0.31522,-0.130554,1.6618959999999998,-0.207077
1324,13.24,-0.8198409999999999,1.474422,0.0012120000000000047,-0.106049,1.561768,-0.11546300000000001
1325,13.25,-1.197646,1.061728,0.184416,-0.090073,1.548981,-0.010010000000000005
1326,13.26,-1.336267,0.424252,0.55486,-0.10818499999999999,1.655502,0.093323
1327,13.27,-1.489363,-0.637054,0.792303,-0.126282,1.8216860000000001,0.16256700000000002
1328,13.28,-1.762788,-1.8740689999999998,0.655787,-0.16037,1.9878689999999999,0.203049
1329,13.29,-2.185157,-3.258829,0.4539,-0.19766199999999998,2.1167599999999998,0.228607
1330,13.3,-2.452625,-4.286686,0.082427,-0.236008,2.176422,0.25311300000000003
1331,13.31,-2.460673,-4.846264,-0.22544099999999997,-0.276489,2.1849369999999997,0.266968
1332,13.32,-2.044537,-4.8091040000000005,-0.537367,-0.311646,2.178543,0.27655
1333,13.33,-1.56768,-4.10508,-0.709655,-0.359573,2.161499,0.28508
1334,13.34,-0.867877,-3.054741,-0.752236,-0.395798,2.124222,0.304245
1335,13.35,-0.08666999999999997,-1.997102,-0.570417,-0.407516,2.077347,0.3181
1336,13.36,0.8381940000000001,-0.985347,-0.42302,-0.379822,1.9995880000000001,0.32768200000000003
1337,13.37,1.6984720000000002,-0.292817,-0.38305700000000004,-0.31910700000000003,1.9026490000000003,0.3181
1338,13.38,2.5170939999999997,-0.0006309999999999928,-0.417983,-0.256256,1.8067779999999998,0.297852
1339,13.39,3.077913,-0.069833,-0.396683,-0.185944,1.701309,0.250992
1340,13.4,3.329879,-0.35333600000000004,-0.630401,-0.099655,1.588394,0.20518499999999998
1341,13.41,3.319866,-0.600479,-1.1322290000000002,-0.016570999999999995,1.450974,0.15724200000000002
1342,13.42,2.7004799999999998,-0.614097,-1.593545,0.051605,1.313553,0.119965
1343,13.43,2.012338,-0.6808,-1.917073,0.099548,1.171875,0.09225499999999999
1344,13.44,1.0847229999999999,-0.658596,-1.964306,0.126175,1.041916,0.085861
1345,13.45,0.339494,-0.47358900000000004,-1.9402840000000001,0.15493800000000002,0.933258,0.06562799999999999
1346,13.46,-0.24712199999999998,-0.330511,-1.8738830000000002,0.19222999999999998,0.855484,0.052841
1347,13.47,-0.627628,-0.371368,-1.6866990000000002,0.226318,0.735123,0.054977
1348,13.48,-0.713536,-0.13111,-1.411983,0.239105,0.600891,0.08906599999999999
1349,13.49,-0.54564,0.178982,-1.278908,0.23164400000000002,0.598755,0.141266
1350,13.5,-0.13383699999999998,0.66496,-1.571877,0.213531,0.7457729999999999,0.15724200000000002
1351,13.51,0.178521,1.1955959999999999,-1.9879369999999998,0.200745,0.907684,0.132736
1352,13.52,0.598833,1.818385,-2.223855,0.20181300000000002,0.9779969999999999,0.090134
1353,13.53,1.11516,2.355102,-2.26262,0.209274,0.892776,0.06881699999999999
1354,13.54,1.751227,2.756681,-2.1629490000000002,0.209274,0.7297819999999999,0.06562799999999999
1355,13.55,2.3492900000000003,2.974976,-2.03376,0.22418200000000002,0.580658,0.06349199999999999
1356,13.56,2.474574,2.877038,-2.102305,0.289169,0.47093199999999996,0.039001
1357,13.57,1.983354,2.705278,-2.199399,0.383972,0.404877,-0.01001
1358,13.58,0.819082,2.459977,-2.1553400000000003,0.46279899999999996,0.405945,-0.054749
1359,13.59,-0.9702629999999999,2.7248360000000003,-1.588555,0.48944099999999996,0.5103449999999999,-0.0867
1360,13.6,-1.956732,3.9054050000000005,-0.591975,0.49369799999999997,0.75322,-0.102676
1361,13.61,-1.8709380000000002,4.4490620000000005,0.926594,0.461746,0.976929,-0.11334200000000001
1362,13.62,-1.273302,3.9194760000000004,2.983123,0.42871099999999995,0.970535,-0.148483
1363,13.63,-1.082136,2.769416,4.771518,0.469193,0.794769,-0.160202
1364,13.64,-0.972043,1.6275839999999997,5.370801999999999,0.49688699999999997,0.688248,-0.083511
1365,13.65,-0.854765,0.551608,4.490633,0.392502,0.649887,0.067764
1366,13.66,-0.41410600000000003,-0.20002700000000004,3.4983660000000003,0.203949,0.66481,0.215836
1367,13.67,-0.536637,-1.089013,2.483592,0.177307,0.643509,0.261642
1368,13.68,-1.306751,-2.011368,0.6317119999999999,0.306213,0.49437,0.245651
1369,13.69,-2.281089,-2.319623,-0.7333589999999999,0.367996,0.350555,0.215836
1370,13.7,-2.5611650000000004,-1.3369229999999999,-0.8964049999999999,0.282776,0.383575,0.183868
1371,13.71,-2.1379669999999997,0.3034459999999999,-0.47188500000000005,0.129379,0.5039520000000001,0.130615
1372,13.72,-1.4551120000000002,1.9244880000000002,0.168947,-0.014435000000000003,0.632843,0.011306999999999998
1373,13.73,-0.8812780000000001,2.800288,0.887249,-0.099655,0.671204,-0.13250699999999999
1374,13.74,-0.346891,3.0674099999999997,1.29598,-0.144394,0.611542,-0.24436999999999998
1375,13.75,0.586245,2.833161,1.329908,-0.153976,0.47200000000000003,-0.302948
1376,13.76,1.594675,2.067701,1.072134,-0.11244200000000001,0.302612,-0.315735
1377,13.77,2.089963,0.783369,0.7906989999999999,-0.0059050000000000075,0.151352,-0.315735
1378,13.78,2.017736,-0.829008,0.638822,0.092087,0.074646,-0.297623
1379,13.79,1.515795,-2.4316310000000003,0.44860500000000003,0.134705,0.056549,-0.27739
1380,13.8,0.694616,-3.8489910000000003,0.0008339999999999738,0.1315,0.04483,-0.261414
1381,13.81,0.364757,-4.615594000000001,-0.443579,0.08996599999999999,-0.0073699999999999955,-0.248627
1382,13.82,0.004579,-4.829626,-0.753848,0.009002999999999997,-0.043594,-0.281647
1383,13.83,-0.564606,-4.68876,-0.874022,-0.10497999999999999,-0.060638,-0.346634
1384,13.84,-1.234787,-4.192655,-0.847184,-0.2211,-0.076614,-0.41587799999999997
1385,13.85,-1.7400200000000001,-3.4297480000000005,-0.49996599999999997,-0.327621,-0.10751300000000001,-0.449966
1386,13.86,-2.0063169999999997,-2.540655,-0.096801,-0.39473,-0.144791,-0.444626
1387,13.87,-1.9073490000000002,-1.7040819999999999,0.13838599999999998,-0.42242399999999997,-0.188461,-0.40415999999999996
1388,13.88,-1.611479,-1.088875,0.273865,-0.40538,-0.222565,-0.338104
1389,13.89,-1.3548280000000001,-0.764256,0.357371,-0.349991,-0.222565,-0.276321
1390,13.9,-1.435382,-0.69923,0.34186500000000003,-0.274353,-0.17569,-0.21560700000000002
1391,13.91,-1.490508,-0.7775920000000001,0.200427,-0.195526,-0.084076,-0.164474
1392,13.92,-1.714553,-0.8358120000000001,-0.1503,-0.132675,0.012863,-0.12931800000000002
1393,13.93,-2.051978,-0.733033,-0.551377,-0.091125,0.10022,-0.11334200000000001
1394,13.94,-2.159073,-0.5541010000000001,-0.8305899999999999,-0.06131,0.18118299999999998,-0.098419
1395,13.95,-2.24027,-0.24776200000000004,-1.063325,-0.025085,0.253616,-0.092026
1396,13.96,-2.340191,0.058928000000000015,-1.074614,0.02179,0.302612,-0.103745
1397,13.97,-2.42686,0.4549139999999999,-1.067186,0.094223,0.31433099999999997,-0.12825
1398,13.98,-2.143707,0.668017,-1.147865,0.200745,0.307938,-0.145294
1399,13.99,-1.656062,0.470071,-1.266933,0.301956,0.324982,-0.159149
1400,14.0,-1.134595,0.100597,-1.48143,0.334976,0.340973,-0.158081
1401,14.01,-0.6694220000000001,-0.195926,-1.841337,0.317932,0.29835500000000004,-0.127182
1402,14.02,-0.06487700000000003,-0.09362999999999999,-2.118327,0.29023699999999997,0.21952800000000003,-0.061141999999999995
1403,14.03,0.156649,0.324182,-2.146477,0.278519,0.163071,-0.010009999999999998
1404,14.04,-0.21678899999999998,0.891048,-1.978335,0.272125,0.180115,0.009170999999999999
1405,14.05,-1.172464,1.417645,-1.9324740000000002,0.24015799999999998,0.285568,-0.011078
1406,14.06,-2.025506,2.024181,-2.251747,0.191162,0.401688,-0.059005999999999996
1407,14.07,-2.359737,2.4240880000000002,-2.610564,0.183701,0.41340600000000005,-0.088837
1408,14.08,-1.809232,2.553714,-2.887741,0.24868800000000002,0.282379,-0.08244299999999999
1409,14.09,-0.4488650000000001,2.379306,-2.839787,0.367996,0.007537999999999989,-0.039825
1410,14.1,1.099146,2.053521,-2.124574,0.490494,-0.330154,0.0006409999999999992
1411,14.11,2.666145,1.7709830000000002,-0.5891390000000001,0.557617,-0.693405,0.027282999999999998
1412,14.12,3.3719080000000003,1.712437,1.464695,0.57785,-1.0385440000000001,0.067764
1413,14.13,3.021255,1.164304,3.459525,0.53418,-1.0875549999999998,0.06456
1414,14.14,2.019933,0.357545,4.755369,0.47772200000000004,-0.793533,-0.032379000000000005
