,ts,ax,ay,az,wx,wy,wz
0,0.0,-0.13526900199835903,0.18483191442635521,6.517760297185009,-0.001553349438816113,-0.0012086743710236604,-0.0012086743710236604
1,0.01,-0.01161738890263364,0.013573258768147634,1.354081602358045,-0.002261586759753875,-0.0020436308384103176,-0.0020436308384103176
2,0.02,0.040580886351751125,-0.07953067257195172,-1.7967795014815673,-0.00585045060136908,-0.0028886918757920987,-0.0028886918757920987
3,0.03,0.045270002738834914,-0.03912283108412128,-3.45461049982887,-0.00453637177288972,-0.0024438292616442247,-0.0024438292616442247
4,0.04,0.06511830131414494,-0.08261245436078804,-3.97092454592334,-0.002931774421474004,-0.00037198597918861043,-0.00037198597918861043
5,0.05,0.09408598646494376,-0.10009282766583379,-3.6768792169896978,0.0012455940040833038,-0.0010015311991140642,-0.0010015311991140642
6,0.06,0.07312076614200211,-0.10355832775484104,-2.8421859751389746,-0.0006018743493781822,-0.002379624457992929,-0.002379624457992929
7,0.07,0.036709981248503394,-0.07889538821544492,-1.8886591985870846,-0.003492248686854942,-0.003089377350413678,-0.003089377350413678
8,0.08,0.0014723668826945868,-0.0015253590461888067,-0.9067208969813203,-0.005086169011844901,-0.0016153998555129938,-0.0016153998555129938
9,0.09,-0.019306830361177623,0.028332275465095445,0.010017600224710765,-0.004500189535282811,-0.0022936267315319518,-0.0022936267315319518
10,0.1,-0.016488463445355712,0.04677913579208812,0.967476908652664,-0.002057433294256183,-0.0029254643880920533,-0.0029254643880920533
11,0.11,0.004051129977605525,-0.028056572828950955,1.7746260421651738,-0.0036288036010383626,-0.0029579577660621666,-0.0029579577660621666
12,0.12,-0.05564756986872644,0.047154058735568306,2.297050923935217,-0.0018338101254997887,-0.0026158007484343203,-0.0026158007484343203
13,0.13,-0.06464711634138393,0.08193537416635861,2.574384433544041,-0.00468166961786938,-0.0017412092401576731,-0.0017412092401576731
14,0.14,-0.05740380963910616,0.11580014043089688,2.6649815194325592,-0.0007371105124960985,0.00010642669965188045,0.00010642669965188045
15,0.15,-0.04448152051309534,0.07205002948322825,2.6799658166514035,-0.0009462865112826297,-0.0008437310628731463,-0.0008437310628731463
16,0.16,-0.03135218772112565,0.027356692753261108,2.6076756133103687,-0.0042213361490460975,-0.0003656077722296426,-0.0003656077722296426
17,0.17,-0.060969787909205264,0.04011266156025514,2.3385995385650675,-0.0033893105536398874,-0.0023670171021607533,-0.0023670171021607533
18,0.18,-0.05179610367547034,0.07873034739129103,1.8351728182193416,-0.005682080028226216,-0.0012294523442271568,-0.0012294523442271568
19,0.19,-0.03287916925298927,0.09968664350169024,1.3363774628258773,-0.004592682852313233,-0.00046938041286719804,-0.00046938041286719804
20,0.2,-0.0068649049235307985,0.007131797729957753,0.894278931420202,0.0006859334659133162,-0.0029457915029029234,-0.0029457915029029234
21,0.21,-0.001383492573279908,-0.021923134581910933,0.47399598095673356,-0.0018547393715762613,-0.0010831647321767838,-0.0010831647321767838
22,0.22,-0.007375805280653392,-0.03324309477092509,-0.0064881246324856034,-0.0044264175652035005,-0.0017306671341003475,-0.0017306671341003475
23,0.23,0.007386340850110584,0.024694953831395125,-0.5689804317630108,-0.003630573500383322,-0.00017423895332885657,-0.00017423895332885657
24,0.24,0.01854906879401829,0.007973774525466673,-1.0443031321571765,-0.0029383183565564754,7.304918411632527e-05,7.304918411632527e-05
25,0.25,0.026125430410701755,-0.03769113938281417,-1.3531060719451333,-0.00032705689625134787,-0.0025228191062699737,-0.0025228191062699737
26,0.26,0.05006970275814883,-0.0866966876537,-1.5561907177977323,-0.0027399523339242627,-0.003240238932687064,-0.003240238932687064
27,0.27,0.04702975382587346,-0.06405365789298667,-1.7917742007937942,-0.0035183645510547265,0.0004300749928357228,0.0004300749928357228
28,0.28,0.020167090620952195,-0.013048296802120645,-2.0255163980115345,-0.006034650263649153,0.001832038922124776,0.001832038922124776
29,0.29,0.03897335834793196,-0.0464152182661696,-2.166472818173942,-0.0019733003085840627,-0.00018153628975034824,-0.00018153628975034824
30,0.3,0.0448174512150193,-0.05249553904614482,-2.120618573292453,-0.003981096966709334,-0.0014156516341894269,-0.0014156516341894269
31,0.31,0.06838659480280906,-0.10677702798095949,-1.9551948855931012,-0.004955363495863392,-0.0005239100554956013,-0.0005239100554956013
32,0.32,0.03389189499984021,-0.05783082288719565,-1.8358472952575726,-0.003941358967225547,-0.003197202361580716,-0.003197202361580716
33,0.33,0.015461268284095553,-0.019067013971352794,-1.7422260224799446,-0.0020302936511657284,0.0011350168620077338,0.0011350168620077338
34,0.34,0.005605710749857322,0.010817956292226677,-1.5894136575862077,-0.004213916913091028,-0.0013295837524446086,-0.0013295837524446086
35,0.35,0.015707510564371238,-0.04311542205126744,-1.2797191428684669,6.201342093674605e-05,-0.0002135607814515042,-0.0002135607814515042
36,0.36,0.0535605500299325,-0.08300608437908248,-0.9201260937950252,-0.0004219168835282823,-0.0001323681319907771,-0.0001323681319907771
37,0.37,0.01143631966165125,-0.010664743012346139,-0.6206723339824902,-0.0043766015937159895,-0.004095195963053668,-0.004095195963053668
38,0.38,-0.004048051957424043,0.0008402558327373078,-0.41569458581281815,-0.0006442705931410268,-0.0010850286814354016,-0.0010850286814354016
39,0.39,-0.005570761754069859,0.03332141230791451,-0.15159315869304346,-0.004592000744340949,-0.004287851896563865,-0.004287851896563865
40,0.4,0.007549943286376565,-0.009253278542448812,0.18201691604081371,-0.00204147463533135,-0.00397963879370166,-0.00397963879370166
41,0.41,0.002216455228599333,-0.01948225726906909,0.5497680022993183,-0.002975664605183987,-0.0005409274149833702,-0.0005409274149833702
42,0.42,-0.013697565566055442,-0.00565683703368567,0.8217626185603022,-0.0046443433454469996,-0.0004269882477456591,-0.0004269882477456591
43,0.43,-0.04737430959490753,0.05849835817515853,0.9529264671925872,-0.0027769811866137674,-0.0016126943742059818,-0.0016126943742059818
44,0.44,-0.04279183889502783,0.07974719481415662,1.1126845015820401,-0.0033152643867562235,-0.0017722108004767727,-0.0017722108004767727
45,0.45,-0.002828023708072412,0.013833448875464175,1.2946348792604032,-0.0029402032307659907,-0.0036194335340261116,-0.0036194335340261116
46,0.46,-0.0015953132752085028,0.010814120997131419,1.5067266953548477,-0.0013617358652495224,-0.0003698470715370337,-0.0003698470715370337
47,0.47,-0.03414269765496379,-0.0014218261787268677,1.6021066433056241,-0.005510085202220893,-0.0026374352492410822,-0.0026374352492410822
48,0.48,-0.06263500248528911,0.08709846387971809,1.5851198334278014,-0.003966828043911757,-0.0031954901036671825,-0.0031954901036671825
49,0.49,-0.03900864473146524,0.07475260750322515,1.5219533055335908,-0.005008480562213313,-0.0007798504081633299,-0.0007798504081633299
50,0.5,-0.014501029438328221,0.033352021658518305,1.5384225718677556,-0.00016932963074601202,-0.003282189873974549,-0.003282189873974549
51,0.51,-0.0019352812025637683,-0.012732877862157148,1.5785477296270813,-0.0005966837793166698,-0.002936163887511362,-0.002936163887511362
52,0.52,-0.03204210446047335,0.011758025871644588,1.4620386286785783,-0.0047243111239067045,-0.0028300712699134913,-0.0028300712699134913
53,0.53,-0.0479600325374719,0.06999644039854358,1.276873261772909,-0.0046327663387874685,-0.0009744099725159013,-0.0009744099725159013
54,0.54,-0.01580144687425701,0.059307034301527166,1.048875123130899,-0.0010097485393942202,-0.0009504176506668037,-0.0009504176506668037
55,0.55,-0.014346211898785221,0.044244107648322956,0.9477083283909241,-0.0012253045754747015,-0.0017266054973174981,-0.0017266054973174981
56,0.56,0.0011964800194609986,-0.03002359180255699,0.852603860631578,-0.0006222635763093267,-0.0016341407515714835,-0.0016341407515714835
57,0.57,-0.007362369437230519,0.011267752760885914,0.6752529270113693,-0.0037044171572331508,0.0021627854121341696,0.0021627854121341696
58,0.58,-0.013735921559929087,0.033322255979004616,0.3729233880696036,-0.004518662106327223,0.0019975603165860827,0.0019975603165860827
59,0.59,-0.022116874013145577,0.058266891252812904,0.11937693228237922,-0.002649994587615185,0.0025452346474107183,0.0025452346474107183
60,0.6,0.011535381974149704,-0.027095358213812017,-0.028579731486914367,-0.0006286849949783267,-0.000406246684085192,-0.000406246684085192
61,0.61,0.01717591730459067,-0.04100428685539302,-0.1272013905856209,-9.0468273194568e-05,-0.0006376804546220493,-0.0006376804546220493
62,0.62,-0.00153853190883399,-0.010144429506427011,-0.3130162915538921,-0.003278189330235082,-0.0011641215796020172,-0.0011641215796020172
63,0.63,0.003533371588230123,0.004261784713043285,-0.5703416316239874,-0.004329200530073481,-5.5094482445277404e-05,-5.5094482445277404e-05
64,0.64,-0.0032569456253501872,0.021326384242648648,-0.752268850267739,-0.0061470641086692175,-0.0018922684232099878,-0.0018922684232099878
65,0.65,0.023871745321665066,-0.04314454795445208,-0.8696035064033235,-0.0008329396303987926,-0.002325079919706412,-0.002325079919706412
66,0.66,0.02839501292895912,-0.049158382861566166,-0.8693037507252082,-0.0004088041287334189,-0.0018853860904570095,-0.0018853860904570095
67,0.67,0.02881761315525494,-0.04998760216485419,-0.976999114493492,-0.005890827456404133,5.399387206458961e-05,5.399387206458961e-05
68,0.68,0.011010084133686471,0.02070258338829777,-1.1198195133928266,-0.004140685939887572,-0.0021708443943088012,-0.0021708443943088012
69,0.69,0.00346329835463487,-0.007532513582176558,-1.222113430792093,6.403738084893515e-05,-0.0006424717250988332,-0.0006424717250988332
70,0.7,0.031197250051693715,-0.03534712802268778,-1.1907918451138453,-0.0017463118220421216,-0.0021164006399134747,-0.0021164006399134747
71,0.71,0.03661029290165284,-0.05433701808384485,-1.1042792948666171,-0.0008438424289280059,0.0011472087963354896,0.0011472087963354896
72,0.72,0.01810909542906936,-0.05346926074002138,-1.09104300818605,-0.006770461642924934,-0.0012829449916330472,-0.0012829449916330472
73,0.73,0.006223107986920235,0.0016830945786646505,-1.1313388017618338,-0.0034872977354080234,-0.002320195912643623,-0.002320195912643623
74,0.74,0.014162088768665555,-0.0028672335457956416,-1.1325106252302988,-0.0049926354406815,-0.001419804927966567,-0.001419804927966567
75,0.75,0.014079243698190119,-0.01573315140603088,-1.0143233015739355,-0.001960200824783941,-0.0005834538218458707,-0.0005834538218458707
76,0.76,0.04802646590780014,-0.09975881127967083,-0.8299846146033716,-0.0018385016183218156,-0.0017366111500053245,-0.0017366111500053245
77,0.77,0.01796480850869033,-0.03166955593050035,-0.7067934764389432,-0.004432902468792766,-0.000400572364683801,-0.000400572364683801
78,0.78,-0.007639147670464613,-0.007716632043684984,-0.6857374387197948,-0.00442500686719724,0.0017221448945565088,0.0017221448945565088
79,0.79,0.0018444159909468448,0.014490309889777994,-0.6096663071518178,-0.004331268363009478,-0.0016801249120464927,-0.0016801249120464927
80,0.8,0.019937042934618343,-0.0031019993089822784,-0.4322745102389395,-0.002748222582623954,0.00024070822065532462,0.00024070822065532462
81,0.81,0.018697849850307553,-0.049902131924697335,-0.2273984120011539,-0.0013473207364216731,0.0006880348481638841,0.0006880348481638841
82,0.82,-0.01649055462122051,-0.006017172544847834,-0.0646332559136437,-0.003170874989012177,0.0004934412709811362,0.0004934412709811362
83,0.83,-0.004110937345173328,0.010446255998382845,-0.0381984691213082,-0.004448342521196802,0.0006793418843942531,0.0006793418843942531
84,0.84,-0.006876976856111441,0.05941548499005954,0.06160839238518215,-0.00484530032547783,0.00012366394186437286,0.00012366394186437286
85,0.85,0.01570372051405466,-0.02402873794936035,0.20922628766121862,-0.002898827259209537,-0.003417793013609182,-0.003417793013609182
86,0.86,-0.006703032243074893,-0.024431064462245772,0.43690753695067497,-0.0015469574346688069,-0.001596468340964116,-0.001596468340964116
87,0.87,-0.01860779845948405,-0.006045537413790023,0.540133472787184,-0.0027273541011085573,0.0006840097101251662,0.0006840097101251662
88,0.88,-0.019164254723765636,0.059906872879137804,0.5297473939617182,-0.00617885976836627,0.00021123113840746998,0.00021123113840746998
89,0.89,0.004829831457376348,0.03346595706825066,0.5678141277910976,-0.0034657712654995155,-0.0010826470783924516,-0.0010826470783924516
90,0.9,-0.007577805416307661,0.018955308442096603,0.6533324398572853,-0.0035987259668915548,-0.0008878397682716101,-0.0008878397682716101
91,0.91,-0.0035563549347573595,-0.017693525128460882,0.8218484916445171,-0.002732665718762473,-0.000855813443421587,-0.000855813443421587
92,0.92,-0.025675520610253896,0.00534727249083056,0.8544916472835168,-0.004688591993055561,-0.002393031459298293,-0.002393031459298293
93,0.93,-0.017609418918102467,0.0667451025365393,0.7928626247588939,-0.003239356152011525,-0.0038670507214467187,-0.0038670507214467187
94,0.94,-0.026258067147788288,0.03616126776839013,0.7460872007109292,-0.003942612172215319,-0.0021695782997034913,-0.0021695782997034913
95,0.95,-0.009455610321107845,0.005673495611564133,0.7836220641623045,-0.002284925471634649,5.3091045484327585e-05,5.3091045484327585e-05
96,0.96,0.011118040714660165,-0.033969603608538505,0.8756841207499823,-0.0033541502645494372,-0.002390687909546184,-0.002390687909546184
97,0.97,-0.018086021865614022,0.030684129931940328,0.839096474819392,-0.0029366894908301328,-1.3210421860789835e-05,-1.3210421860789835e-05
98,0.98,-0.03139563121134196,0.04445359690476344,0.7192523235719037,-0.003506144479290021,0.000708166565143742,0.000708166565143742
99,0.99,-0.026748592291142487,0.04959397313117331,0.5901882089953229,-0.0036654100457460094,-0.0017366144332994593,-0.0017366144332994593
100,1.0,-0.0031884897759962456,0.021410199673097763,0.5885518422745613,-0.00234175665507168,-0.0029401474989934288,-0.0029401474989934288
101,1.01,0.011795611698535035,-0.042666684575354386,0.6009361245729814,-0.0040635459170714466,-0.0026017336659860764,-0.0026017336659860764
102,1.02,-0.01702391611124811,0.016645734047580192,0.537125153658699,-0.005343115633685321,0.0004222550138719221,0.0004222550138719221
103,1.03,-0.027569918188918956,0.03359392364136958,0.35772749742625426,-0.0043425454862955105,-0.0004292648525123802,-0.0004292648525123802
104,1.04,-0.016178990027358432,0.0410365029755187,0.2208607556418398,-0.0024764571525567433,-0.00042663468638502483,-0.00042663468638502483
105,1.05,0.012760705495645553,-0.0010787956717668995,0.17791717935640408,-0.0018811494174741461,-9.309064046151304e-05,-9.309064046151304e-05
106,1.06,0.0009391017899663592,-0.009643681963325232,0.17760759200654125,-0.0036327078962490322,-0.001318079511105885,-0.001318079511105885
107,1.07,0.004071499728591548,-0.04032571431843164,0.11300324982825821,-0.005024337194282098,0.0019689247545359237,0.0019689247545359237
108,1.08,-0.01257692678422009,0.015549928228874969,-0.06501984474710083,-0.002981326282314045,-0.00046953401688401575,-0.00046953401688401575
109,1.09,-0.011505088936946337,0.0313755936891154,-0.19775962245421375,-0.004327080189149515,0.0013199322800476175,0.0013199322800476175
110,1.1,0.031790130615577825,-0.022822538515572886,-0.24787812109998836,-0.00018785653371522842,9.647897582025284e-05,9.647897582025284e-05
111,1.11,0.0281876999644287,-0.030307416780690478,-0.2194005674022554,-0.002712333483850692,-0.0008250159775681185,-0.0008250159775681185
112,1.12,-0.003620508603846495,-0.024624896857976114,-0.28649440668931025,-0.0041967790825933726,-0.00038794820952090463,-0.00038794820952090463
113,1.13,-0.0131162204520172,0.018871860416735397,-0.4060560006276488,-0.005709063966915992,-0.00188032506200924,-0.00188032506200924
114,1.14,-0.0024005413340911835,0.016756603561723017,-0.5137185617746143,-0.002581094431460063,-0.00023930913624343325,-0.00023930913624343325
115,1.15,0.020214985388373935,0.005041583217405426,-0.5360681838450313,-0.002825512152451955,-0.0029340783329148737,-0.0029340783329148737
116,1.16,0.029304297574165375,-0.06411448695600576,-0.458356166896964,-0.002931807835709188,-0.003891782433794065,-0.003891782433794065
117,1.17,-0.0008906231097871309,-0.042133020642280236,-0.47611382082443404,-0.0029544346581144194,-6.289802049751691e-05,-6.289802049751691e-05
118,1.18,-0.005277911203805257,0.0294555881682489,-0.5617601450964786,-0.0012105112826832306,0.0005608801021839733,0.0005608801021839733
119,1.19,0.0023177601284399153,0.02254248641543489,-0.629837773472572,-0.0016063725815139134,-0.0022381563912109727,-0.0022381563912109727
120,1.2,0.019533477707731263,-0.019641283866236946,-0.5776807127299469,-3.0109360439722722e-05,-0.003352046916521825,-0.003352046916521825
121,1.21,0.017855162738888618,-0.06640044939226687,-0.47561335189008086,-6.39370079566705e-05,-0.00364993314629214,-0.00364993314629214
122,1.22,-0.013784159598369755,-0.01171352831766928,-0.4332661987254768,-0.0014304650606775835,0.000984368046047345,0.000984368046047345
123,1.23,-0.0009633393092047561,0.010214620308373477,-0.5003948015842091,-0.004151059998596654,-0.0006774353487114508,-0.0006774353487114508
124,1.24,-0.003153123659791323,0.036181225734400704,-0.5190090786173902,-0.0028997651117115253,-0.0016690485106818154,-0.0016690485106818154
125,1.25,0.01655377080608137,-0.022992662010119166,-0.42910309471744645,-0.004025062298081416,-0.0008857415533307393,-0.0008857415533307393
126,1.26,0.024134457982854865,-0.05026944720634481,-0.29964448149853246,-0.0034610724278804268,-0.0003434485922820023,-0.0003434485922820023
127,1.27,0.014703153494489671,-0.01778579134699908,-0.2311585443909179,-0.002542454631349159,-0.0005465343984749418,-0.0005465343984749418
128,1.28,-0.012031126451130645,0.027552818154927976,-0.28604919415005786,-0.0047693696422795116,0.0015207768341175345,0.0015207768341175345
129,1.29,-0.00885003146170273,0.02636261375927381,-0.25274252400480357,-0.00018657344032645392,-0.003898097327764123,-0.003898097327764123
130,1.3,0.0201291246527453,-0.03039625957943598,-0.17189557746234146,-0.0006277635058761907,-0.003671835379741997,-0.003671835379741997
131,1.31,0.010392233240447921,-0.025875532703746203,-0.004395092348267959,-0.0035697762166368757,0.00039962578395208535,0.00039962578395208535
132,1.32,0.003128577561114168,-0.028004600256139378,0.03258091150039954,-0.0024836190774812157,-0.0006133729112292945,-0.0006133729112292945
133,1.33,0.013927378575525087,0.010152770362272098,0.0147449045554756,-0.004379382064191178,-4.532554431305636e-05,-4.532554431305636e-05
134,1.34,-0.006659595129445901,0.007942769636616066,0.016596059348438247,-0.0070561276747082655,-0.0014073940112200724,-0.0014073940112200724
135,1.35,0.007529658744143094,0.0024618689937186307,0.110179905988392,-0.002682734283328475,-0.0014937488843578105,-0.0014937488843578105
136,1.36,0.023851002039135052,-0.03439105708366137,0.24210034659039217,-0.0018739559572815644,-0.0002564645491834304,-0.0002564645491834304
137,1.37,-0.011002915563557661,0.0012421527388255579,0.2756835075781513,-0.0008553038509441378,-0.0007362290924567746,-0.0007362290924567746
138,1.38,-0.028418258473640684,0.02713892339666581,0.25738868235638557,-0.0041887577309452214,-0.0023151557969668768,-0.0023151557969668768
139,1.39,-0.013080608386070353,0.021888293198511374,0.20800906735931082,-0.003296288258626817,-0.0011658252146128693,-0.0011658252146128693
140,1.4,0.0015450029557755197,0.025350940443497748,0.2706786536692214,-0.00017631126030674812,-9.185769808744752e-05,-9.185769808744752e-05
141,1.41,0.002800986616404391,-0.02875832606493855,0.39871487843417347,-0.002644680594953761,-0.0009549457961237586,-0.0009549457961237586
142,1.42,-0.004099564474402934,-0.01869054325519402,0.4156473240954478,-0.0038477964874774045,-3.6813800042236793e-06,-3.6813800042236793e-06
143,1.43,-0.011698476832081958,0.02287257973087566,0.31612810800093893,-0.0052972825981199186,-0.0012278717685421461,-0.0012278717685421461
144,1.44,-0.03114968090958816,0.06502435751259181,0.27169290939967977,-0.0013585002618951136,0.0019446204915558925,0.0019446204915558925
145,1.45,0.015596804191988747,-0.0015589932525465477,0.32064773187428836,0.0008090679187002982,-0.0019715733840321857,-0.0019715733840321857
146,1.46,0.011242871717963135,-0.020390312346547087,0.3801446607740639,-0.0027889753978809066,-0.0025502817663095416,-0.0025502817663095416
147,1.47,-0.017170109459359165,0.0015572455512203858,0.3993083911645894,-0.0031149787053535672,-0.003410115124249107,-0.003410115124249107
148,1.48,-0.020823381905126608,0.02379958017398783,0.29316572682264563,-0.001511251246293147,-0.0005526084262817858,-0.0005526084262817858
149,1.49,-0.018675465207074977,0.057604323027782664,0.221554222218651,-0.002959469730852021,0.0005920168577446316,0.0005920168577446316
150,1.5,0.008956766629004383,-0.004959623457647437,0.20318440467211826,-0.00032489476396410904,-0.0018838556785158282,-0.0018838556785158282
151,1.51,0.004008068090045192,-0.016492052788116857,0.2927243235567016,-0.0010129702288120851,-0.00023637279949279566,-0.00023637279949279566
152,1.52,-0.005220607432790229,-0.026162050155435254,0.2760194220283667,-0.004259896200128024,-0.0024979536382179826,-0.0024979536382179826
153,1.53,-0.025525707338603792,0.06251249617590361,0.1324738879237432,-0.0033697950842014675,-0.00014835556962245703,-0.00014835556962245703
154,1.54,-0.017201743378234158,0.03514533720602747,0.05902015382468154,-0.002692442705874017,0.001587656967494583,0.001587656967494583
155,1.55,0.016379934278754883,-0.003948217407921617,0.04379036550791918,-0.0017674885538050441,-0.0029307416599583585,-0.0029307416599583585
156,1.56,0.003255321712724425,-0.029715536663553845,0.13397524485220608,-0.004122226863059921,-0.004225313987683947,-0.004225313987683947
157,1.57,-0.0007504311431104742,-0.01863087236456884,0.07609546580058324,-0.003994083448413551,-0.0025155645923403435,-0.0025155645923403435
158,1.58,-0.008995418858020021,0.043163282198567424,-0.012754790069737912,-0.0045872694018859045,-0.0010612101572564443,-0.0010612101572564443
159,1.59,-0.005320240343246019,0.02015037379296279,-0.1319203920591422,-0.0025328479922663524,0.0003634522890949312,0.0003634522890949312
160,1.6,0.001971489656705492,0.0005397198188140141,-0.1099709123523869,-0.00015014625961568256,-0.0016817198191418413,-0.0016817198191418413
161,1.61,0.021054170054104253,-0.0502688178291757,-0.037019756957776484,-0.002059936143201077,-0.002317885149966144,-0.002317885149966144
162,1.62,0.01019924891141521,-0.005670249174597701,-0.07313967250665326,-0.00044046694333092225,-0.0018171049756642048,-0.0018171049756642048
163,1.63,-0.016588837557386094,0.002971728050209307,-0.17280021256870498,-0.0034885665332785873,-0.00013479828879193025,-0.00013479828879193025
164,1.64,-0.0025643932617899325,0.01512309897755163,-0.2463385324509999,-0.002818846958457453,-0.002064382006053838,-0.002064382006053838
165,1.65,0.01016038570867288,-0.014971177625165472,-0.22013586403853302,-0.0006018949030055593,-0.0034281240089038137,-0.0034281240089038137
166,1.66,0.02552945011398522,-0.05117085238009309,-0.1562410396331325,-0.002494920570885916,-0.002810383402324637,-0.002810383402324637
167,1.67,0.00760277351499033,-0.02339023488565356,-0.12118811565186345,-0.002424847693166349,-0.0007457278769790722,-0.0007457278769790722
168,1.68,0.004839882200534259,-2.544460315504274e-05,-0.2398002087510677,-0.004235972357449297,0.0002196208767680886,0.0002196208767680886
169,1.69,-0.017154641640077004,0.033647123549402067,-0.2925909643531956,-0.0018215494838657192,-0.0007948484215803016,-0.0007948484215803016
170,1.7,0.016258877585686567,-0.021184037378499318,-0.25052017774206503,-0.0015905846962233573,-0.0026949245443236482,-0.0026949245443236482
171,1.71,0.008481433799300787,-0.021820034466068082,-0.14502658998282464,-0.002914519688587245,-0.0004643233318417663,-0.0004643233318417663
172,1.72,0.0011003429796286757,-0.031549550470933115,-0.12131974285861055,-0.004528654060567025,0.00134210405369857,0.00134210405369857
173,1.73,-0.01624281001453337,0.015241461547524518,-0.22501434155879116,-0.006665462260579083,-4.470741641019859e-05,-4.470741641019859e-05
174,1.74,-0.006454530797813857,0.02012549420092748,-0.24598058095905936,-0.0025467099696337226,-0.0022712847287836803,-0.0022712847287836803
175,1.75,0.015805163714449302,-0.006359392185679625,-0.226191291742097,-0.002035649136763707,0.00029423645594789085,0.00029423645594789085
176,1.76,0.008416964175482006,-0.02751644237428114,-0.08753315802401773,-0.00042816220935820216,-0.0025180181062258965,-0.0025180181062258965
177,1.77,-0.003970403057294042,-0.030345757751685416,-0.06092015358700795,-0.003951904639078693,0.0007377638447104082,0.0007377638447104082
178,1.78,-0.01805196932475816,0.03982157660488793,-0.11932878427346384,-0.0044421289948889,-0.003225833810694901,-0.003225833810694901
179,1.79,0.0018009453948999226,0.026317701289287457,-0.16305280686360607,-0.001979114960868461,0.00017641201251627657,0.00017641201251627657
180,1.8,0.012506523479951688,0.005887469703850637,-0.10316934057560323,-0.0036765228171862655,-0.002412447535598218,-0.002412447535598218
181,1.81,0.028974621069283273,-0.054999832444751776,0.018318579827118958,0.0017513616691396054,-0.0023066768112277995,-0.0023066768112277995
182,1.82,-0.0036855770132445875,-0.007033033450166092,0.0490692002428602,-0.003322856958283278,-0.0007439331785776578,-0.0007439331785776578
183,1.83,-0.010772780146148943,0.017667279888620095,-0.0011409557165188433,-0.003987146747000958,0.0006344944135971895,0.0006344944135971895
184,1.84,-0.001004840664244447,0.050912486631096786,-0.053933876174960066,-0.0009781100291928867,-8.623291984356254e-05,-8.623291984356254e-05
185,1.85,0.009901006355582343,0.013747937830413212,0.011563638083206668,-0.0025279644084365864,-0.0007180539756238839,-0.0007180539756238839
186,1.86,0.006551343013309908,-0.05162673799581685,0.10549000102722145,-0.0030537119936046076,-0.0009846352189830637,-0.0009846352189830637
187,1.87,-0.015676909769024173,-0.004751970331263339,0.15662570394958192,-0.004298726506207001,0.0010995351629866463,0.0010995351629866463
188,1.88,-0.016589008301062524,0.029221257911523694,0.07362489138937682,-0.004043392932102807,-0.0028762226008858783,-0.0028762226008858783
189,1.89,0.0005462850655337213,0.03862319651374471,0.02421316405317024,-0.0020019204498992285,-0.0020372000219310445,-0.0020372000219310445
190,1.9,0.026155951433409638,-0.025194923840453375,0.07554889944520891,-0.0017856091544239977,0.00023822355546721137,0.00023822355546721137
191,1.91,-0.0011618886524546504,-0.020262104114343305,0.1670946116714632,-0.0014725243172935168,-0.0013161583381322336,-0.0013161583381322336
192,1.92,-0.012368891801752546,-0.004502287041308298,0.214335053563095,-0.0022191714873884515,0.0009351260463445297,0.0009351260463445297
193,1.93,-0.0018039879476894555,0.026497459297870514,0.10064511455251013,-0.003818451719504333,0.0004441271766985701,0.0004441271766985701
194,1.94,-0.014543363081291814,0.04186212936783473,0.061599644903800446,-0.0031655915802736787,0.0015226964635520386,0.0015226964635520386
195,1.95,0.010314944838639858,-0.01959896499608165,0.07805897783527908,-2.8286428095367078e-05,-0.00016939125940822566,-0.00016939125940822566
196,1.96,0.013770939130249746,-0.034786247951411414,0.1967916073741388,-0.0027327779184754945,-0.0010386630285893314,-0.0010386630285893314
197,1.97,-0.0018502482152073568,-0.015848331038468846,0.1889112007577939,-0.0043512677164587715,-0.0032146878557539147,-0.0032146878557539147
198,1.98,-0.017230329137191663,0.037124006122203,0.10963207489414903,-0.004742278040758553,-0.0027426106672780357,-0.0027426106672780357
199,1.99,-0.014996959010080422,0.014767864988373753,0.04982412674973563,-0.00273005002245098,-0.0007563671361384742,-0.0007563671361384742
200,2.0,0.008023273618644132,0.0021619369548851776,0.05848125291558135,-0.00632187349882397,-0.0025915425820548874,-0.0025915425820548874
201,2.01,0.008082497044669573,-0.03105020638103037,0.16377407992775472,-0.002992600975088678,-0.0010767229554661981,-0.0010767229554661981
202,2.02,-0.011158533753667307,-0.006204460612125484,0.1410541472370695,-0.0038396147689836227,-0.002377251206780784,-0.002377251206780784
203,2.03,-0.018888492931585173,0.031952365905919246,0.06080248369710974,-0.004128300580069159,-0.0011108186082735632,-0.0011108186082735632
204,2.04,-0.022486745071434017,0.03492499964002058,-0.029598740015019387,-0.006222927697546213,-0.0005785975936856685,-0.0005785975936856685
205,2.05,0.0193387676241053,-0.005016916136275494,0.014328682979051238,-0.0012800681906536794,-0.0030708690311317764,-0.0030708690311317764
206,2.06,0.03407429323520013,-0.035514901968337606,0.08849123722478094,-0.0024468025648383485,-0.0017385781438691904,-0.0017385781438691904
207,2.07,-0.011606866898118134,-0.008053378901152541,0.09541800917854065,-0.005622291435846054,-0.0010877474084379911,-0.0010877474084379911
208,2.08,-0.0175046411167368,-0.000116248077252799,-0.015834521225544244,-0.0016081910913011855,-0.002373172556147224,-0.002373172556147224
209,2.09,-0.007943668629368794,0.03777310634005668,-0.08615432055130803,-0.0032551312480454016,-0.00204845845015894,-0.00204845845015894
210,2.1,0.007996750854665951,0.002647082169261805,-0.06018776116438299,-0.0037736340414225313,-0.0010243014705898976,-0.0010243014705898976
211,2.11,0.00893276586193107,-0.044352294061750085,0.01924924745344124,-0.00214868804805882,-0.0022560800310803394,-0.0022560800310803394
212,2.12,0.0034532213433247625,-0.024403839881210844,0.04182165687426046,-0.004542282599951467,-0.0029409048718873642,-0.0029409048718873642
213,2.13,-0.0161598922703729,0.027274677898218476,-0.07869314571865546,-0.004315829040401295,4.62225595821231e-05,4.62225595821231e-05
214,2.14,-0.023798903238034866,0.04544898457911087,-0.13243434791997105,-0.0032327196349080612,-0.0011868277069360794,-0.0011868277069360794
215,2.15,0.03702803965165861,-0.028761686841795673,-0.09390442849648753,-0.002110532879607158,-0.0033831040974314852,-0.0033831040974314852
216,2.16,0.019830556429825504,-0.025534533306217237,-0.0017243930053470469,-0.002620684676711288,-0.0022712887822661657,-0.0022712887822661657
217,2.17,-0.0075824246125142485,-0.020849330143350747,-0.008555059601507917,-0.0035299127261607275,-0.0023114412730643238,-0.0023114412730643238
218,2.18,-0.0017099909002217355,0.019730118269199775,-0.09937488676989534,-0.005866523740813374,-0.0027419046080813755,-0.0027419046080813755
219,2.19,-0.0024231051545600224,0.03463872928953731,-0.16617039849348464,-0.004532815403260974,-0.002834135644241801,-0.002834135644241801
220,2.2,0.0074942641446780825,0.007423693744440768,-0.14040358198656952,-0.0013050180261370064,-0.0007024304423651822,-0.0007024304423651822
221,2.21,0.00782756380974447,-0.057511886907701974,-0.0037022856434860696,-0.002404591491753303,-0.00102993686532537,-0.00102993686532537
222,2.22,0.005534235051835268,-0.026351018489948135,-0.022870062841713522,-0.0029268241630926273,0.0003907601544778244,0.0003907601544778244
223,2.23,-0.0313894299882742,0.054119692688115936,-0.08374799186027589,-0.005113857633195832,0.002362576297794184,0.002362576297794184
224,2.24,-0.0027045533948202556,0.008940005123672361,-0.1453579042754047,-0.004477088110070679,0.0009041066120225203,0.0009041066120225203
225,2.25,0.01004802938634226,-0.005180429409748166,-0.1064946171935913,-0.0024527253770172328,-0.0006113699737084782,-0.0006113699737084782
226,2.26,0.023024281758992467,-0.045138571812560424,0.0027560219707003578,-0.002691191647567734,-0.0029552032894301955,-0.0029552032894301955
227,2.27,-0.009423358798618182,0.003602055321008833,0.023176970344612635,-0.003421334535893601,0.0023928483200134198,0.0023928483200134198
228,2.28,-0.0048026312145058245,0.017950564748395233,-0.06892773870418864,-0.001880544852998443,-0.0013953122185887431,-0.0013953122185887431
229,2.29,-0.00409215325211168,0.035509037038061686,-0.11359377974451913,-0.0037234926341872133,-0.0027256039598947033,-0.0027256039598947033
230,2.3,-0.004105887221309022,-0.0014132019054760043,-0.0564942976255146,-0.0013668612587962813,-0.0026638785090288253,-0.0026638785090288253
231,2.31,0.02587832010124868,-0.05112426403213369,0.027715983537730825,-0.003465504012675739,-0.0013697928155065972,-0.0013697928155065972
232,2.32,-0.0016171600265325282,-0.0037237856083354916,0.0705197253781552,-0.0041391463824691456,-0.0010008586727891019,-0.0010008586727891019
233,2.33,-0.01797524326890837,0.020773597391371582,-0.03125821377178582,-0.004984891602948494,-0.0006454764001096738,-0.0006454764001096738
234,2.34,-0.015672463104650126,0.03269909819878801,-0.055697665169327566,-0.002175851268924431,-0.0016094915636936163,-0.0016094915636936163
235,2.35,0.011626851384896443,-0.007153709917431004,-0.03188861780192127,-0.003486296179264563,-0.002694582317409129,-0.002694582317409129
236,2.36,0.019015114466083352,-0.020842570610706605,0.07448934778401786,-0.00285615225800468,-0.002611860362349309,-0.002611860362349309
237,2.37,-0.004285305993348903,-0.03475624085396677,0.09290786158544415,-0.004570326979810121,-0.001357993151506004,-0.001357993151506004
238,2.38,-0.013839942720150171,0.01967776980465362,0.0007252004100192118,-0.005381210358602755,-0.003551243021586139,-0.003551243021586139
239,2.39,-0.020333796771077387,0.036937779433875724,-0.03226433187161033,-0.00043015063832555373,-0.001181216131408753,-0.001181216131408753
240,2.4,0.022684513622226784,-0.008589327402658265,-0.005475150448344533,-0.0030413249440266452,-0.0013460526161868027,-0.0013460526161868027
241,2.41,0.01483946592960314,-0.027680110824407553,0.11446921238223506,-0.00030683165177841117,-0.0026867370616106907,-0.0026867370616106907
242,2.42,0.005006315135872828,-0.019460814586361033,0.10725878985706691,-0.002822274504126125,-0.0013051819060613946,-0.0013051819060613946
243,2.43,-0.03039179535125411,0.03776812183357997,0.04864178244901176,-0.00480293470470746,-0.0017151584976742085,-0.0017151584976742085
244,2.44,0.016125089271028386,0.01926420262615844,-0.029319672479904975,-0.006684802845968665,0.0004332878321598351,0.0004332878321598351
245,2.45,0.003435706681132484,0.017497444665644502,0.0007295603977302764,-0.0034476856080027426,-0.003902021272619056,-0.003902021272619056
246,2.46,0.0025127183062248334,-0.03661040701909242,0.12722315584637978,-0.0013455656649868626,-0.0013742799746866536,-0.0013742799746866536
247,2.47,0.0030697805210649163,-0.018273279275531514,0.1173034482764123,-0.0010977388681082242,-0.0011905950057870991,-0.0011905950057870991
248,2.48,-0.019415682013495476,0.040746449027018725,0.030681777557052148,-0.003477794620744413,-0.0007127562999784992,-0.0007127562999784992
249,2.49,0.0002504705552690673,0.037585603463257546,-0.04098092699000827,-0.00267644804059618,-0.0041327064275902044,-0.0041327064275902044
250,2.5,0.013309504008941146,-0.015015850862781087,0.012241757494260444,-0.00010854097174464069,-0.0025770555956066035,-0.0025770555956066035
251,2.51,0.02295881337062989,-0.04631721658052842,0.08699444426472346,-0.0040695148868102994,-0.0031629727117367308,-0.0031629727117367308
252,2.52,-0.01573944144138454,-0.013437811444295747,0.10621179612927487,-0.001996053657453168,0.0002724212889896275,0.0002724212889896275
253,2.53,-0.015284996007929003,0.017639117371053656,0.011846167216857759,-0.0034960591307910856,0.002539079085451925,0.002539079085451925
254,2.54,-0.007741598716547242,0.04235110168081156,-0.05368843800720633,-0.0041422107005108216,-0.0038653006782209,-0.0038653006782209
255,2.55,0.019541492928190046,-0.027665879091655875,-0.01647333496252565,-0.0012983647351229894,-0.0029096243135864393,-0.0029096243135864393
256,2.56,0.008972090193214684,-0.04550150580766244,0.07618362544676258,-0.0027765707270155865,-0.002563673108247816,-0.002563673108247816
257,2.57,-0.0037364353507497866,-0.025613020361221102,0.08063702029236267,-0.004684974975251864,-0.0005510613253736577,-0.0005510613253736577
258,2.58,-0.027494577985282813,0.04446431983879372,-0.02838324222673841,-0.00582491651924054,-0.00017704824412203516,-0.00017704824412203516
259,2.59,-0.015237517492425186,0.0327904733152877,-0.07271927808206682,-0.0013299607719465742,-0.0025161774330321107,-0.0025161774330321107
260,2.6,0.022888803051065627,-0.012356045665589874,-0.05511297114221679,-0.0014938228087750106,-0.0019253425174892925,-0.0019253425174892925
261,2.61,0.013253965453573487,-0.025693675728867826,0.06503068983773275,-0.005625428300445904,-0.005123492717844144,-0.005123492717844144
262,2.62,-0.00983453872511249,-0.02667469170553386,0.042612197524442445,-0.003599575556319713,-0.00290499500436797,-0.00290499500436797
263,2.63,-0.018981868363601818,0.031064076111855847,-0.040586209009269014,-0.004320537288248836,0.00020000904845165733,0.00020000904845165733
264,2.64,-0.0024297405055374362,0.0403267091044087,-0.086845446564239,-0.002642783229027924,-0.0008592226321278563,-0.0008592226321278563
265,2.65,-0.006023396969452528,0.012250906797077174,-0.0703631806162191,-0.0008133543545483483,-0.0017594194606795933,-0.0017594194606795933
266,2.66,0.029446160531335995,-0.0445864782065199,0.032224095150314554,-0.005411587954342612,-0.003822959384519841,-0.003822959384519841
267,2.67,0.003839305017781995,-0.005306632729944272,0.0337270403137761,-0.0028597380364986324,-0.0024729485323021824,-0.0024729485323021824
268,2.68,-0.033910682765876526,0.03517623935702434,-0.024465008488491327,-0.005272404094505147,-0.0002393776086555728,-0.0002393776086555728
269,2.69,-0.009690229310837737,0.007545844330892442,-0.1138605936338686,-0.0041647224347490935,0.00210909722286633,0.00210909722286633
270,2.7,0.01325922208757169,0.0033903564416316277,-0.04573089896920869,-9.078930319746104e-05,-0.0017667800585915102,-0.0017667800585915102
271,2.71,0.024163744379303236,-0.03540623702583866,0.01696962185813345,-0.0016707132407688054,-0.0017684141028371128,-0.0017684141028371128
272,2.72,-0.003866439879252251,-0.016196368071479565,0.04777949422197578,-0.0035758278992370288,0.000163362809012092,0.000163362809012092
273,2.73,-0.005814504559969135,0.013972730058094567,-0.04507888284805864,-0.004090156195651505,2.3058263085021733e-05,2.3058263085021733e-05
274,2.74,-0.011857092563506436,0.05376146958218175,-0.09895306714233945,-0.0025823939627241197,-0.00019638728911607374,-0.00019638728911607374
275,2.75,0.019006990542082252,-0.010888651424728498,-0.045100851437832656,-0.0012618570285832722,-0.0011807053595513795,-0.0011807053595513795
276,2.76,0.01936346043213204,-0.04080051664396883,0.029607416840689404,-0.00110222866957518,-0.003722417345198122,-0.003722417345198122
277,2.77,-0.005739815927524011,-0.029040083100667878,0.03582858841193382,-0.0031493195920364696,-2.3082363973001268e-05,-2.3082363973001268e-05
278,2.78,-0.013473716441396286,0.02938854158133905,-0.02769048651688314,-0.0038467753462286826,0.00036293231450775713,0.00036293231450775713
279,2.79,-0.014296935478275334,0.05040979182981474,-0.07260120217886867,-0.0024946526146639933,0.00044142589386519736,0.00044142589386519736
280,2.8,0.019994605430736563,-0.0038019329903501344,-0.05629685612888731,-0.0020335735790296358,-0.0036474022475805118,-0.0036474022475805118
281,2.81,0.0062748525554264505,-0.04220256486452113,0.04010548040398526,-0.0025154978567590238,-0.000401461359681505,-0.000401461359681505
282,2.82,-0.0028172155849724607,-0.04036028315036991,0.06353380754683793,-0.0012452792725347415,-0.002079343326841549,-0.002079343326841549
283,2.83,-0.012485637661718927,0.032877010052224404,-0.021016579956267184,-0.004242594955755581,-4.571433978268905e-05,-4.571433978268905e-05
284,2.84,-0.011602452141741416,0.037976127155528276,-0.07703956623659095,-0.003208763147138778,-0.0010820432644249903,-0.0010820432644249903
285,2.85,0.01649425445310206,-0.0001598742033608186,-0.03989514733327512,0.00037968298398239714,-0.0013053661034514179,-0.0013053661034514179
286,2.86,0.028231454136391918,-0.05467826327802233,0.08176955873620133,-0.0013064352871936366,0.0004769692877018168,0.0004769692877018168
287,2.87,-0.00017373915687244907,-0.01971538392230809,0.07230564891045121,-0.003765266516312,0.0005957793410611054,0.0005957793410611054
288,2.88,-0.019046534520440653,0.021523745750795194,0.009260429363568475,-0.004797751957644374,-0.0026139715987495856,-0.0026139715987495856
289,2.89,0.007755118540491073,0.019564996580906706,-0.07107630104421983,-0.005791168521600472,-0.0027741863158364808,-0.0027741863158364808
290,2.9,0.0019013087394990254,-0.0024062496893044426,-0.027144116761162594,-0.001005817173496305,-0.0024271379322510773,-0.0024271379322510773
291,2.91,0.013110234412332215,-0.05404979096643797,0.052954734345103206,-0.0004880516546939242,-0.0023530075597414987,-0.0023530075597414987
292,2.92,-0.011039552677383206,-0.024601797736948938,0.08502731030315072,-0.0035704466545028587,-0.0008077716283712383,-0.0008077716283712383
293,2.93,-0.004897867236523249,0.036931353611057656,0.0054286971853158734,-0.003362737616780697,-0.00036734492158710586,-0.00036734492158710586
294,2.94,-0.02722691035642541,0.03746044647031124,-0.04780553637327133,-0.000689438300193458,-0.0009680748550915221,-0.0009680748550915221
295,2.95,0.018589549235400387,-0.03187306321111308,-0.02244957765460666,-0.0022547806904547768,-0.0019192400216468633,-0.0019192400216468633
296,2.96,0.017068606896725565,-0.015884315565898213,0.06946229253408431,-0.0033081090339492584,-0.002360328553707497,-0.002360328553707497
297,2.97,-0.02605306300587289,0.006622906702069362,0.08688582785594462,-0.00398593654881689,-0.002570049349513211,-0.002570049349513211
298,2.98,-0.01275082361085278,0.034547424927605735,-0.00848035453886931,-0.0022852235440323585,-0.002268440352017796,-0.002268440352017796
299,2.99,-0.011862941654088875,0.04090339700233793,-0.04287996438583314,-0.003902331686304876,-0.00016372752200771108,-0.00016372752200771108
300,3.0,0.006822945835494995,-0.014689096792285347,-0.014417051985486097,-0.003252294863895877,-0.0022772540980963685,-0.0022772540980963685
301,3.01,0.01616407344991269,-0.023511774912154827,0.06409639221418006,-0.0011690665876008758,-0.001552943410205514,-0.001552943410205514
302,3.02,0.006981215930382144,-0.017137802487772403,0.07834201333958274,-0.002750321797159727,0.00019626248902487693,0.00019626248902487693
303,3.03,-0.026617357244106275,0.04134098210287919,-0.006628120017669166,-0.0052937140606598935,-2.3139236050604034e-05,-2.3139236050604034e-05
304,3.04,-0.021073202886883847,0.0247721855865879,-0.0668917728400768,-0.004060122878933413,0.0005852910720372405,0.0005852910720372405
305,3.05,0.015815815799425523,0.007312155946146124,-0.04462077126629755,-0.001955534549807544,0.00019515635111354906,0.00019515635111354906
306,3.06,0.029704344797796146,-0.04088367025849462,0.06250883410687003,-0.0037298933603107454,-0.0011746484376089403,-0.0011746484376089403
307,3.07,0.00633027413907815,-0.021770579588215832,0.05461479152540236,-0.00565251209355306,-0.0010616267340533537,-0.0010616267340533537
308,3.08,-0.021230576361536316,0.0231420532809888,-0.00751052724210248,-0.005353112706103873,-8.579670562805659e-05,-8.579670562805659e-05
309,3.09,-0.0025891379474553677,0.03727072753444148,-0.06115131870483351,-0.003053027299368269,0.004247154066262022,0.004247154066262022
310,3.1,0.0020953065242310456,0.029436463270747643,-0.04945091484112334,-0.0013755446229381447,-0.0009430167703384108,-0.0009430167703384108
311,3.11,0.03178230295529665,-0.06072158801679415,0.07141911842560639,-0.0039957830560363155,-0.0005929915947169796,-0.0005929915947169796
312,3.12,0.007117667759909149,-0.014236685484670601,0.07316122122559288,-0.004647646503504965,-0.0019649915109442133,-0.0019649915109442133
313,3.13,-0.012949716281893498,0.026530657733778187,-0.013127490493022101,-0.004031664192596289,0.0003074780267059696,0.0003074780267059696
314,3.14,-0.016366223800912308,0.04176101711777501,-0.08709219190625749,-0.0010571151492023187,-0.0012883588792181994,-0.0012883588792181994
315,3.15,0.01682900668802443,-0.008482195313712915,-0.028319677049173625,-0.0019002837726779355,-0.0026125475599404853,-0.0026125475599404853
316,3.16,0.013609644100007954,-0.028982656709824382,0.04166479500077772,-0.0016398892338748492,-0.0025033373799982967,-0.0025033373799982967
317,3.17,-0.010545041184165058,-0.02663917823108282,0.0734858902837337,-0.002686024393830143,-0.0014431136154596474,-0.0014431136154596474
318,3.18,0.00034398922033862175,0.01052298309956624,-0.015229430448504784,-0.0023800625973521565,-0.000365555677399301,-0.000365555677399301
319,3.19,-0.011337765331763006,0.040521325243922615,-0.0776857907551203,-0.0063194814859689145,-0.0016426955593963372,-0.0016426955593963372
320,3.2,0.0018134005951557365,-0.019248272382556386,-0.05505730950775854,-0.0009786644392121694,-0.0003366218732973012,-0.0003366218732973012
321,3.21,0.020585545360764214,-0.059145757378652526,0.0604814620654294,7.148578991999789e-05,-0.0018079010896571435,-0.0018079010896571435
322,3.22,-0.009937883803653597,-0.014123449127782597,0.0391126567304021,-0.0030559739460408845,0.0017236837372186784,0.0017236837372186784
323,3.23,-0.040363779223598725,0.05304692647680881,-0.024308577992623016,-0.002865424870971716,0.001467736033040508,0.001467736033040508
324,3.24,-0.007178527462231807,0.02005665399300178,-0.08759355022661916,-0.002945473644646049,-0.005398940469147059,-0.005398940469147059
325,3.25,0.01634279735519885,-0.020031511569460696,-0.05303647684613402,-0.0032845344099282914,-0.0025464566962356532,-0.0025464566962356532
326,3.26,0.009409993270225781,-0.04641264624219297,0.0468996497751407,-0.0015314682673983426,-0.0006141659021937933,-0.0006141659021937933
327,3.27,-0.0002801974926712591,-0.01824155079402683,0.058785027368247686,-0.0015336929982092751,0.0008880511100027325,0.0008880511100027325
328,3.28,-0.0022013979779070413,0.03105586302018864,-0.04019796152933386,-0.0024555273762623554,-0.0021591436066004267,-0.0021591436066004267
329,3.29,-0.0023451614385106233,0.010854921491266564,-0.07591938000331826,-0.00382022453353951,-0.0014764338691219273,-0.0014764338691219273
330,3.3,-0.00841262616889893,-0.002773265334702013,-0.054433923990640565,-0.00115919519494506,-0.0011825310108102506,-0.0011825310108102506
331,3.31,0.02611159591797322,-0.06455678650838813,0.0634932065412671,-0.0042070501339162856,-0.004188487117723352,-0.004188487117723352
332,3.32,0.00740788254960268,0.005975491377067741,0.06599509469987319,-0.004999214716019793,-0.0034943558320804915,-0.0034943558320804915
333,3.33,-0.022673852298699393,0.027678424764622213,-0.009919771650087499,-0.002453223163896769,0.0009812915672778237,0.0009812915672778237
334,3.34,-0.01786517228974467,0.02827002023220688,-0.06701735550677407,-0.004279156319620603,-0.000620644726954921,-0.000620644726954921
335,3.35,0.01444009368926529,-0.005625565771494697,-0.03939382695535694,-0.00276114752585433,-0.0032245129416504283,-0.0032245129416504283
336,3.36,0.014860444922012847,-0.027820963212041118,0.05436577936660953,-0.0015299842667582954,-0.0002830029420874836,-0.0002830029420874836
337,3.37,-0.0029024179507288125,-0.010926895844367936,0.08884686123298459,-0.0025372564651488343,-0.0009713705058343934,-0.0009713705058343934
338,3.38,-0.008539781108024107,0.02127605572244022,-0.017650368251357275,-0.005440451056762278,0.00044169692532743435,0.00044169692532743435
339,3.39,-0.020779391015542194,0.05158587774300244,-0.06561219422543695,-0.002182425329222121,-0.0020219825618209373,-0.0020219825618209373
340,3.4,0.018944464170205996,-0.016728601883943123,-0.03355981647887825,-0.0025165481696548804,-0.0015930821563748304,-0.0015930821563748304
341,3.41,0.02430195609866957,-0.0076750977260018755,0.05802369432351706,-0.0011510069400238864,-0.0015449019090747064,-0.0015449019090747064
342,3.42,0.00487168435347505,-0.02394503751558329,0.08824669735534726,-0.0023246058394476533,-0.0010149254516160669,-0.0010149254516160669
343,3.43,-0.013992798233412844,0.0302389042105197,-0.014812326752216515,-0.003737439650300647,-0.0018939593258440336,-0.0018939593258440336
344,3.44,0.010070893990781895,0.023712787462293973,-0.07824180005851755,-0.0027167136280619804,-0.0001450174506361806,-0.0001450174506361806
345,3.45,0.012388306065803675,0.00917309212064042,-0.05071758856823705,-0.004111252672109715,-0.003333255741628443,-0.003333255741628443
346,3.46,0.006019130026300853,-0.03295518585844293,0.0689903643876924,-0.003003774655425103,-0.002305901387638792,-0.002305901387638792
347,3.47,-0.007706017470129322,-0.030230294218810266,0.06869065023577488,-0.0015676779000038828,0.0015468042324807071,0.0015468042324807071
348,3.48,-0.009097083665728953,0.04523752206880953,-0.015423408207489928,-0.004256873984783838,-0.0016756158198786306,-0.0016756158198786306
349,3.49,-0.009798122602258135,0.04068244840218964,-0.058043648680305884,-0.0016938011693682954,-0.0016663307810686845,-0.0016663307810686845
350,3.5,0.0007205584018057177,0.004751311148732156,-0.042915143679403765,-0.0005884973426642114,-0.0027140065068734114,-0.0027140065068734114
351,3.51,0.01903940099398468,-0.05845077202666034,0.06378394517255173,-0.002790290465446453,0.0007739086271802621,0.0007739086271802621
352,3.52,-0.019162805320010745,-0.005087830471217503,0.07177356435764423,-0.004654183686583345,0.00030917084046482317,0.00030917084046482317
353,3.53,-0.01889150533642315,0.031292264390888974,-0.009332714029564274,-0.0027009912128495976,-0.00011342229374607132,-0.00011342229374607132
354,3.54,-0.013723935914741511,0.04827105133249981,-0.06530136041387972,-0.004586828590074162,-0.00026264505424222653,-0.00026264505424222653
355,3.55,0.008217889452246104,0.00029370737070919146,-0.028829076068530437,-0.0005053453506237655,-0.001563155895009552,-0.001563155895009552
356,3.56,-0.0035270152195004643,-0.04598500861924522,0.055431636495017936,-0.0047513330513705605,-0.00237880367697334,-0.00237880367697334
357,3.57,-0.0032076647108347928,-0.008721075593654917,0.07254754919772918,-0.005026744604168885,-0.0019048197771634923,-0.0019048197771634923
358,3.58,-0.008881005430396157,0.020785346503728847,-0.008525810693587238,-0.0032985436659886944,-0.0021147342789379973,-0.0021147342789379973
359,3.59,-0.003819210678639546,0.049082811855014695,-0.07314173037615254,-0.002059019173994709,-0.0014878609295098859,-0.0014878609295098859
360,3.6,0.01656871596169396,-0.04494163754275053,-0.028153091499671476,-0.0008074553884125942,-0.000663913549174517,-0.000663913549174517
361,3.61,0.01056533703494716,-0.03275431602711091,0.048770994237912466,-0.003642953539743796,-0.0014621310475318398,-0.0014621310475318398
362,3.62,-0.003856538722134893,-0.019340654648110762,0.07150085343832524,-0.004296046539962838,-0.0034504456622176183,-0.0034504456622176183
363,3.63,-0.009475214894827583,0.025151474699113333,-0.015361492831428368,-0.00162852533835861,0.0023736044768156717,0.0023736044768156717
364,3.64,-0.0001875742941887192,0.026781333958705012,-0.06198404199062607,-0.0036462763652792734,-0.0002963641952708572,-0.0002963641952708572
365,3.65,-0.007057651068021353,-0.01443316645298081,-0.04920485782408287,-0.0008331014503140744,-0.001992121298693276,-0.001992121298693276
366,3.66,0.01818476187626654,-0.049004845601091106,0.06409282856028972,-0.0021224338953653404,-0.0030019704631037906,-0.0030019704631037906
367,3.67,0.027494159361901263,-0.02954910014451953,0.06088538047298299,-0.0046207491561220644,-0.0030386562476615486,-0.0030386562476615486
368,3.68,-0.01625944592247396,0.03865492273034064,-0.009016523737714222,-0.0030882163600026405,-0.00020161038334323597,-0.00020161038334323597
369,3.69,-0.008620454219301434,0.002393888819533993,-0.06637367848091022,-0.005554245367713354,-0.0007034659510685912,-0.0007034659510685912
370,3.7,0.028997872431989265,-0.011409097660168767,-0.04105099291441621,0.0003828043178726802,-0.0019111740263004567,-0.0019111740263004567
371,3.71,0.03414942613567864,-0.040576730446419386,0.055253896313917666,-0.001990469836697088,-0.002561457245588578,-0.002561457245588578
372,3.72,-0.018052169519836014,-0.0035045157871324718,0.04414373402661098,-0.00409855040929939,-0.0008441899925278193,-0.0008441899925278193
373,3.73,-0.0009160723443390022,0.0003274113358094702,-0.010741848151063042,-0.003473770326840039,-0.0003053849727605567,-0.0003053849727605567
374,3.74,-0.00662565827569144,0.023286368299861086,-0.07525475990675973,-0.003147498775554961,0.00033001309569239985,0.00033001309569239985
375,3.75,-0.005632147751584661,0.009941727354233985,-0.03996512339199702,-0.0048045857059813,0.00136929577777769,0.00136929577777769
376,3.76,0.016283583784747625,-0.05510311027864302,0.04793560368197092,-0.0034668916484925072,-0.00548232821701566,-0.00548232821701566
377,3.77,-0.0021560243972502773,0.010248200729648143,0.055132977901992064,-0.004297528623000384,-0.0008851698169117101,-0.0008851698169117101
378,3.78,-0.016824829943219852,0.022341057928830656,-0.012958691462974858,-0.0026129920313938296,-0.0008887719989907028,-0.0008887719989907028
379,3.79,-0.033232997084719135,0.05423044798740415,-0.06810227172628794,-0.0022104493547993056,-0.0006193073238901053,-0.0006193073238901053
380,3.8,0.019967849023963632,-0.010514406916660259,-0.03135303601434732,-0.006543120967947471,-0.002348167309194825,-0.002348167309194825
381,3.81,0.00989589284307003,-0.010052074671867237,0.042278875486503414,2.004044280194164e-05,-0.0039359633527248535,-0.0039359633527248535
382,3.82,-0.02043557124408707,-0.01232100104283642,0.07738028001049879,-0.004339291085558852,-0.0023632327927301084,-0.0023632327927301084
383,3.83,-0.011478092839099634,0.02992413449544167,-0.04010658349461054,-0.005552126574407696,-0.0015122857179652193,-0.0015122857179652193
384,3.84,-0.018236619081832037,0.05485400814343333,-0.07514625732753785,-0.0022431195201193677,-0.003362416239979835,-0.003362416239979835
385,3.85,-0.0002585483441205124,-0.004348859016539036,-0.0524804325936587,-0.0016749214422625814,0.0006364453932313928,0.0006364453932313928
386,3.86,0.008243834241935602,-0.02388502739076095,0.05292542631253518,-0.0009085283192729181,0.0015383676502250673,0.0015383676502250673
387,3.87,0.000966827686521518,-0.04049113564179027,0.06377207876575852,-0.0029474097066363013,-0.002100886717229594,-0.002100886717229594
388,3.88,-0.026062265230411583,0.05221119219790938,-0.012396289168425053,-0.00437043971889533,0.001290491747874349,0.001290491747874349
389,3.89,-0.021400247857687564,0.03250549364676132,-0.06178964523648018,-0.002730079149736386,-0.0022432252902339408,-0.0022432252902339408
390,3.9,0.02744325003388649,-0.007719659717190009,-0.03711933432425299,-0.004269904495207029,-0.0025443491734116327,-0.0025443491734116327
391,3.91,0.022979633674106048,-0.04761309527882521,0.06792709736639455,-0.003434408443170298,-0.0037200841605857468,-0.0037200841605857468
392,3.92,0.0003368824525572904,-0.012604383712785504,0.07029559602544005,-0.003545143835060088,0.0007636498038896889,0.0007636498038896889
393,3.93,-0.0040755583199356986,0.036034700707728004,-0.011175466469414384,-0.004239019311860354,0.0012392652407343398,0.0012392652407343398
394,3.94,0.01178451012809489,0.018030921044027346,-0.07391394585054645,-0.003178642317182337,-0.0010628710957149966,-0.0010628710957149966
395,3.95,0.010822861279676611,0.0006168722734831711,-0.03611342569067763,-0.0029940584496917525,-0.0019478696101968868,-0.0019478696101968868
396,3.96,0.029095091899312045,-0.0488353885528672,0.06043278003295292,-0.0014368022323990386,-0.0008924699846081693,-0.0008924699846081693
397,3.97,0.01408733302700816,-0.0054248642135946955,0.07205975471143344,-0.0058801356752191366,-0.00027965262005951813,-0.00027965262005951813
398,3.98,-0.016783464206654507,0.01599707411677042,-0.00661463842811565,-0.004515365042103866,0.0021800955847122608,0.0021800955847122608
399,3.99,-0.01587442296432958,0.03560928911886565,-0.06698450554222624,-0.0025969790534613032,0.00031521058924467883,0.00031521058924467883
400,4.0,0.02413578241203948,-0.03761780743672373,-0.013604821259554402,-0.0036426908830218094,-0.004206661137301817,-0.004206661137301817
401,4.01,0.013882277186939514,-0.03161242352108763,0.05260572022871837,-0.002044149522327578,0.0004639717191652576,0.0004639717191652576
402,4.02,-0.01560035248026399,-0.013782909642249232,0.06846859120562654,-0.0018591656880953976,-0.002277711483044809,-0.002277711483044809
403,4.03,-0.006882328539345263,0.015201977089379867,-0.01701660183826647,-0.0019208350335337503,-0.0013217972389227555,-0.0013217972389227555
404,4.04,-0.010716904398584968,0.028078717076473858,-0.07622220244946393,-0.004135287587540486,0.0006364043047399309,0.0006364043047399309
405,4.05,0.010628987246614749,-0.03539099520225897,-0.02479673957831126,-0.0024687969531094513,-0.002034957868572416,-0.002034957868572416
406,4.06,0.014905615133811266,-0.02194465397210602,0.0535718946169052,-0.0007007148298868985,0.0005574237302511205,0.0005574237302511205
407,4.07,-0.004850475868223653,-0.044707017005553,0.060623866526151024,-0.0010363184716269216,-0.0011112925779293084,-0.0011112925779293084
408,4.08,-0.029142277182282086,0.04018529419486595,-0.008535636806812942,-0.005382025228911444,-0.0014787585197867713,-0.0014787585197867713
409,4.09,-0.02104099846246986,0.031020222565950967,-0.06408079140469283,-0.0021818309111938795,0.00013173566781915724,0.00013173566781915724
410,4.1,0.007896267138175896,-0.005683675812698529,-0.05886870080609058,-0.004433510155457294,-0.0010268860883407634,-0.0010268860883407634
411,4.11,0.016558797581502825,-0.033627601415595454,0.0645567586066877,-0.0028600986438974034,-0.0027904357144577685,-0.0027904357144577685
412,4.12,-0.009991586862519532,-0.015230644665824805,0.04347594979778045,-0.002893819458560493,-0.0015126171858017453,-0.0015126171858017453
413,4.13,-0.03383593639754661,0.043288804015988044,-0.017361644870773497,-0.0047257737824743205,0.0009694883442406034,0.0009694883442406034
414,4.14,-0.003485244933420336,0.03423833579840905,-0.07372631954341659,-0.0027906046952355552,-0.002712772688226165,-0.002712772688226165
415,4.15,-0.0010402466803803951,0.026577893809606047,-0.023552331494151625,-0.0005966503803220975,-0.00032772756302358597,-0.00032772756302358597
416,4.16,0.030811885942256857,-0.0499666204107826,0.06230401904931585,-0.003755836093012756,-0.0002703363234984329,-0.0002703363234984329
417,4.17,0.009567219339480989,-0.015254544542458882,0.05662254160630291,-0.0038250462340629547,-0.0005421033269193845,-0.0005421033269193845
418,4.18,-0.019735581627377752,0.03910058180844604,-0.024046189221537576,-0.005967672373352913,0.0010429983224504826,0.0010429983224504826
419,4.19,-0.013204308012665335,0.06120183765495509,-0.07697495981293137,-0.002661580589544226,0.0014857550015214714,0.0014857550015214714
420,4.2,0.011941557335779411,-0.011374062039582317,-0.031153644428139057,-0.000412965842206581,0.0009921553365462733,0.0009921553365462733
421,4.21,0.016656604152689335,-0.03764677981684739,0.048422404093479796,-0.0011850667543117294,-0.0019340142544692698,-0.0019340142544692698
422,4.22,-0.018458281767337624,0.019796590134658915,0.08563542056578673,-0.004156092833716837,-0.0019091269981865067,-0.0019091269981865067
423,4.23,-0.004800068052062078,0.025574580946559296,-0.005278148672772164,-0.0033574696551263578,-0.0023600421697155725,-0.0023600421697155725
424,4.24,0.007826839477375344,0.04535261128506258,-0.07183826782362687,-0.0021204800530038865,0.002773377774405027,0.002773377774405027
425,4.25,0.003971698978072599,-0.030457323500436676,-0.019299412955393117,0.0006946788905854902,-0.0002508172227465016,-0.0002508172227465016
426,4.26,0.021544021534692728,-0.03175971217017391,0.051831725348577794,-0.0023799536312507593,-0.0005195000200670807,-0.0005195000200670807
427,4.27,0.01711529151440009,-0.044436458110799756,0.07581966650142104,-0.0030536260584548953,-0.001998141979569344,-0.001998141979569344
428,4.28,-0.007617594182575403,0.03830648964373322,-0.032153616879942865,-0.004015366251298443,-0.002117108753136633,-0.002117108753136633
429,4.29,-0.027709025913320758,0.029549008705783288,-0.07147071808442124,-0.0035399067674718203,-0.0014241738940508498,-0.0014241738940508498
430,4.3,0.017104023556701226,-0.03655469123234979,-0.03818297265563042,0.0011905602308899265,-0.004893456415370532,-0.004893456415370532
431,4.31,0.020170225654505755,-0.04379332066130627,0.07593777061729753,-0.0017237630823880256,-0.0014453225546661938,-0.0014453225546661938
432,4.32,-0.0013832826161361287,-0.032375379902779056,0.05017865634750949,-0.006326147945686178,-0.0006679433045228428,-0.0006679433045228428
433,4.33,-0.01743415646892725,0.030440312820825703,-0.0150477695986075,-0.003250586889165573,-0.0008220353300285878,-0.0008220353300285878
434,4.34,0.010351171533317827,-0.009042915765686747,-0.06622832572483396,-0.0033969353431216004,-0.0010547785034912534,-0.0010547785034912534
435,4.35,0.0028411069256420243,0.0014811968482007984,-0.0430607211792076,-0.0007660863727360299,-0.0024455093136632154,-0.0024455093136632154
436,4.36,0.015907810534612755,-0.045580097665408714,0.06062821981090099,-0.00029356208478611994,-0.0014461906105468314,-0.0014461906105468314
437,4.37,0.005392836988197867,-0.019381723041690255,0.05145483879839734,-0.003506078293146907,-0.0005165226183702802,-0.0005165226183702802
438,4.38,-0.024338125692450585,0.023119479487133162,-0.019523490502043724,-0.00037278872198202883,0.0015458512754440892,0.0015458512754440892
439,4.39,-0.023559128462069083,0.029042682719309834,-0.07878008955965819,-0.002620260448471951,-0.0007504021500864468,-0.0007504021500864468
440,4.4,0.014420137703979359,-0.014997482174402648,-0.040842707625847297,-0.004208484572847732,-0.0038079204827653813,-0.0038079204827653813
441,4.41,0.022934278147014195,-0.054359175498575316,0.03593175769465002,-0.0010743974695085652,-0.0010143505956269414,-0.0010143505956269414
442,4.42,-0.025864602320093154,0.0019276173309934457,0.06050764904081417,-0.003762726986617344,-0.00019368165003250652,-0.00019368165003250652
443,4.43,-0.01763010866645384,0.020983911012087082,-0.02136103723242517,-0.005096377409627638,0.0010447352389314454,0.0010447352389314454
444,4.44,-0.0071028689867815836,0.05037899457293749,-0.06476591344466259,-0.00019849002920304624,0.00025630272280530565,0.00025630272280530565
445,4.45,-0.0011924546551020168,-0.0015086603952100801,-0.033350118752718164,-0.0009681932866977891,-0.0038462265896709374,-0.0038462265896709374
446,4.46,0.01300851095663643,-0.01660740794695333,0.06294363390248411,-0.00200683109001561,-0.003794955115761681,-0.003794955115761681
447,4.47,-0.0024237728965551607,-0.02234962415321345,0.07307803996423028,-0.0061890642493591655,-0.00026953664165244983,-0.00026953664165244983
448,4.48,-0.006985172287436415,0.04272902394882218,-0.015190774133863619,-0.004857915232642727,-0.0015104200890550658,-0.0015104200890550658
449,4.49,-0.026631374813386517,0.08179305633488687,-0.06539747566324439,-0.005342682094657331,-0.0007766148963618395,-0.0007766148963618395
450,4.5,0.014233648189156392,-0.008174204099846408,-0.048140803725602636,-0.0024542897000619764,-0.0023492219342587392,-0.0023492219342587392
451,4.51,0.01849246627725307,-0.028324840478691066,0.07238852423670387,-0.004353066290339708,-0.002689881382310455,-0.002689881382310455
452,4.52,0.00012964694802061012,-0.028569636481644997,0.07156130910807228,-0.002442789548891721,-0.00038249345713786144,-0.00038249345713786144
453,4.53,-0.022703699905680136,0.06231591012190876,-0.026363258619985355,-0.006196265585330714,0.0003885530725472128,0.0003885530725472128
454,4.54,0.01833094015637252,0.030186928152132753,-0.05849865273535325,-0.0036247049829801147,-0.0015515476296656095,-0.0015515476296656095
455,4.55,0.02160019198457571,-0.00032737801599675223,-0.0513279721292256,-0.0013686961762548278,0.0021399475616907773,0.0021399475616907773
456,4.56,0.015473126730932011,-0.029084717210732323,0.08594233554050604,0.0001957868756739621,-0.0021230916701384566,-0.0021230916701384566
457,4.57,0.018049961135940488,-0.037626465230604166,0.0679443490255712,-0.004552289797445653,-0.0011532881727546872,-0.0011532881727546872
458,4.58,-0.018131561081461106,0.05740225200388934,0.0016489884158657903,-0.004549308068267144,-0.0023561797386055594,-0.0023561797386055594
459,4.59,-0.017503422047708533,0.03851175623826373,-0.08353395362399259,-0.00463249049332116,-0.0005045011570925745,-0.0005045011570925745
460,4.6,-0.008310792010543796,0.004220797195829937,-0.02112414895061683,-0.0018926628210656157,-0.001678098317284356,-0.001678098317284356
461,4.61,0.03126516596539619,-0.07523608866775361,0.06487006103792345,-0.002148876692234919,-0.003315002664438949,-0.003315002664438949
462,4.62,-0.0014730823661059786,0.0010044769489175008,0.06634359165766492,-0.005560305750117715,-0.0020460031419442127,-0.0020460031419442127
463,4.63,-0.013729198427557024,0.015788396048074083,-0.020501902530024388,-0.0050631972532235205,0.0005574581916989609,0.0005574581916989609
464,4.64,-0.01147342393986176,0.030023305592879315,-0.08352864618730076,-0.001671803247745786,-0.0016446606678689475,-0.0016446606678689475
465,4.65,0.0029251617183641354,-0.029336018382723233,-0.028916613843326028,-0.0010281631447593444,-0.002902270496369225,-0.002902270496369225
466,4.66,0.01608836672705166,-0.06124265184491931,0.05136026750745135,-0.003290366319447533,0.00048421041800101385,0.00048421041800101385
467,4.67,-0.0016137552553976632,-0.025187836829054507,0.0688399031215012,-0.004667257104794707,-0.00031635373874484536,-0.00031635373874484536
468,4.68,-0.005833294911141944,0.001862722433277949,-0.0271856293867077,-0.0066539081078234065,0.0003338909215855205,0.0003338909215855205
469,4.69,-0.030883425097915758,0.04550998452610973,-0.06848534062182897,-0.0021095717339130963,-0.00242513238735794,-0.00242513238735794
470,4.7,-0.013151599750910525,-0.02059702071617637,-0.0441579595437259,-0.002684186736806969,-0.002953718944788317,-0.002953718944788317
471,4.71,0.023399126783316432,-0.032256010716361055,0.05755627271798958,-0.0009882743315227688,-0.0014887289707344006,-0.0014887289707344006
472,4.72,-0.003532745857336945,-0.036964209522368535,0.052732942912045076,-0.004139360000159494,-0.0013104350924586854,-0.0013104350924586854
473,4.73,-0.030549748725341785,0.035510095526367275,-0.027248292905193865,-0.004817396868223517,0.001266334934742208,0.001266334934742208
474,4.74,0.004051251471796843,0.00871412374596059,-0.06883207932494784,-0.00343542406727188,0.00015524593945696324,0.00015524593945696324
475,4.75,0.019447630475899032,-0.01909389920144172,-0.03470142607232537,-0.0008352323888310509,-0.002105720130302893,-0.002105720130302893
476,4.76,0.023214497224204093,-0.028697350766165308,0.05829554425191145,-0.0010471284092519995,-0.0019755837089438697,-0.0019755837089438697
477,4.77,0.011873572214911055,-0.03179180952046347,0.05195256246916928,-0.0021546174628379764,-0.0011491305265140506,-0.0011491305265140506
478,4.78,-0.032463391909081415,0.024319928844975885,-0.007658630651515997,-0.0024245816697376753,-9.847809846928327e-06,-9.847809846928327e-06
479,4.79,0.005028637972139498,0.02426656183919739,-0.08172390049460962,-0.0013687345349095298,-0.0011242391080625682,-0.0011242391080625682
480,4.8,0.0025114308752159017,0.028862100159512523,-0.03321547914231338,-0.0037791477639626593,-0.002224392746692013,-0.002224392746692013
481,4.81,0.032049405791379555,-0.061316794289348775,0.06845206475018328,-0.0020807450486381353,-0.0018205605269302329,-0.0018205605269302329
482,4.82,0.004892641524549374,-0.010140945025247181,0.08057555883941646,-0.003419376999748629,-0.002425010525456309,-0.002425010525456309
483,4.83,-0.02816738437400942,0.039688120963128355,-0.01060884166684747,-0.003945951636970946,-0.00045725167946211113,-0.00045725167946211113
484,4.84,-0.0031775505636092855,0.059466856239902284,-0.08784593185262951,-0.002280795678003093,-0.00031583440966393534,-0.00031583440966393534
485,4.85,0.01523823537277256,-0.012402702051616695,-0.009589155415482008,-0.0017638480887653438,-0.001531593600115347,-0.001531593600115347
486,4.86,0.0074129656854208335,-0.037478739857461904,0.06834633032090136,-0.0024506038663430854,-0.0018002824795372734,-0.0018002824795372734
487,4.87,-0.003926813518019886,0.0053306855535303,0.08012395273537969,-0.004240268270002946,0.0002251362437965322,0.0002251362437965322
488,4.88,0.010155394037751609,0.032290617119547976,-0.03950862882496786,-0.0052279761888778566,-0.0031895343143910518,-0.0031895343143910518
489,4.89,-0.025730146248905687,0.06359270104867126,-0.07433937541292586,-0.0016362197881071266,-0.0019267968445840086,-0.0019267968445840086
490,4.9,0.007922473365101056,-0.013360156748312833,-0.04233276857714486,-0.00028676546920640916,-0.0018567737895876198,-0.0018567737895876198
491,4.91,0.016203310448166725,-0.01864466928608716,0.06117092571391551,-0.0016712338086013097,-0.0021003522496974244,-0.0021003522496974244
492,4.92,0.007170158013377922,-0.019550850750347338,0.048422645129986105,-0.003681744350844215,-0.000281382759880427,-0.000281382759880427
493,4.93,-0.01862108968845507,0.055564137666129804,-0.020827106289750118,-0.0027201314587884692,0.0014592620651478873,0.0014592620651478873
494,4.94,-0.01777271809318424,0.05627562784560303,-0.0827901502036395,-0.005111822788003379,-0.0010613565496946302,-0.0010613565496946302
495,4.95,-0.0006764232350702894,-0.029339985676938133,-0.04323448341989149,-0.0028399304441817878,0.0005458806112402387,0.0005458806112402387
496,4.96,0.009996191933940652,-0.0185274197278922,0.06873794368755792,-0.0019924841490576795,-0.002217688317277336,-0.002217688317277336
497,4.97,-0.0036820376035127753,-0.013865616017421954,0.0685587243034988,-0.005321649583640354,-0.0003987171478825672,-0.0003987171478825672
498,4.98,-0.012050775277083363,0.047851080562206064,-0.02876826732342077,-0.00437968751103987,-0.0020313327788323296,-0.0020313327788323296
499,4.99,-0.009636570978207437,0.01586764343914597,-0.06802124365104319,-0.0032346995980763013,-0.0028408459996252518,-0.0028408459996252518
500,5.0,-0.004737022640291907,-0.010051008116939344,-0.046541014750361445,-0.0014833729201055473,-0.0031452390328409944,-0.0031452390328409944
501,5.01,0.018789802277498692,-0.053519469436581105,0.07063884312473713,-0.002844944228179512,-0.0006222054335116992,-0.0006222054335116992
502,5.02,0.02114379257348558,-0.03043074993266985,0.06275209972031859,-0.004465524404142732,-0.0012957462687384585,-0.0012957462687384585
503,5.03,-0.017503494536170162,0.02055088914110139,-0.003309640797346719,-0.0034814140508257394,-0.0005825209350779108,-0.0005825209350779108
504,5.04,-0.032727532057238704,0.02777454110429353,-0.07929869895668687,-0.0009809088892396294,0.0008252878721764013,0.0008252878721764013
505,5.05,0.011359181661451933,-0.024695501194267302,0.00202064029914361,-0.0012803884983534815,-0.00015282975447513048,-0.00015282975447513048
506,5.06,0.03635864603053719,-0.056953731904740845,0.058717973410476604,-0.001723911850014833,-0.0004521424423246327,-0.0004521424423246327
507,5.07,-0.005033519575701436,-0.001692919620506956,0.05687539599820232,-0.0020969824729352264,-0.002698404165549261,-0.002698404165549261
508,5.08,-0.023575567196415,-0.009157541419005306,-0.017639805181450453,-0.0019087991889999976,-0.0008118068128041293,-0.0008118068128041293
509,5.09,0.008365799184906852,-5.091496167612328e-05,-0.06959124828654457,-0.0025428449453551824,-0.0022489105769643914,-0.0022489105769643914
510,5.1,0.009718060025888691,-0.01598838275520964,-0.018579937322740155,-0.0037275703143439406,0.00035456881525907166,0.00035456881525907166
511,5.11,0.008801630383962448,-0.03261583394123193,0.053055322309413434,-0.0012992620711363449,-0.00024359531244954742,-0.00024359531244954742
512,5.12,0.0008483486689506246,-0.03566462787750349,0.05618862847355034,-0.006197986055669947,-0.0007641819797401262,-0.0007641819797401262
513,5.13,-0.01932496504477163,0.011415987801992924,-0.022026971688309492,-0.005854491766203477,0.00024017856610286602,0.00024017856610286602
514,5.14,-0.018752063127125393,0.061067650478017335,-0.07650734805993087,-0.0033801973444375546,-0.0009798985995486387,-0.0009798985995486387
515,5.15,0.02082341613505268,-0.012550155191055342,-0.03442785294041466,-0.0008913695124234541,-0.0005778644745925692,-0.0005778644745925692
516,5.16,0.024365638752212836,-0.03284467961333276,0.07735215745784196,-0.0013159696495287096,-0.0001813739238895471,-0.0001813739238895471
517,5.17,-0.0072597247144705656,-0.017342299248732432,0.05702211844864697,-0.00429124686842511,-0.0007628370040671807,-0.0007628370040671807
518,5.18,-0.017997373926776923,0.04666610620140086,-0.024387210004399203,-0.0036447479019477303,0.000691589840950216,0.000691589840950216
519,5.19,0.02732218980736421,0.02343727825755999,-0.07410508645144451,-0.003303588282842342,-0.0005229877386735824,-0.0005229877386735824
520,5.2,0.012274936018577915,0.000423175427433628,-0.03186640704646355,-0.0017909966041507648,-0.003669335882153389,-0.003669335882153389
521,5.21,0.004222861221818874,-0.03147722933703376,0.07768561771799183,-0.0023749246901292216,-0.004214978282064566,-0.004214978282064566
522,5.22,-0.005615151512261026,-0.014936402767463764,0.07024475684774185,-0.0036100413085045717,-0.0003915813752646106,-0.0003915813752646106
523,5.23,-0.017624289456926182,0.029509425115782438,-0.013911872541940616,-0.004072183602655795,0.00010400367844407353,0.00010400367844407353
524,5.24,-0.019449077083877876,0.060332937405670785,-0.09071646910826754,-0.001960442093911918,-0.0034415553857217764,-0.0034415553857217764
525,5.25,-0.007343569996326486,0.038626605757812536,-0.02335679819487748,-0.0002886372203819122,-0.003009472604117353,-0.003009472604117353
526,5.26,0.029023468164750404,-0.04602402046082207,0.04439028625839491,-0.0020367173126831,-0.0018492373273314726,-0.0018492373273314726
527,5.27,-0.009138029580493189,0.017826255247337712,0.06012895051294016,-0.0047621211914272476,-0.0018423269150534527,-0.0018423269150534527
528,5.28,-0.02902370979711285,0.05200618098742248,-0.04497345803603862,-0.0047102353038433395,-0.0007501569169187077,-0.0007501569169187077
529,5.29,0.007032376020473163,0.044310381808495836,-0.10465742354276594,-0.0038698422819622774,0.0011372120896632222,0.0011372120896632222
530,5.3,0.006440415912436747,-0.015008896613258767,-0.03359626506998227,-0.0014904234548732435,-0.002861954371105696,-0.002861954371105696
531,5.31,0.013131163883385644,-0.022086456454477252,0.04521458773784784,-0.0060155927607195795,-0.003509463587729585,-0.003509463587729585
532,5.32,-0.007103067911130989,-0.013269136393994229,0.05951445066234513,-0.003433426464012719,-0.00307285612239433,-0.00307285612239433
533,5.33,-0.0005352810545125935,0.016280591783492043,-0.014934157181024338,-0.0028221904323542588,-0.0018945472331561536,-0.0018945472331561536
534,5.34,-0.021780859748633148,0.04967645051629655,-0.0723084837149007,-0.0067737355489739725,-0.001716501564378703,-0.001716501564378703
535,5.35,0.0003354673006275837,-0.03762485990506903,-0.019472419552215698,-0.002685620687259505,0.0008185865038189619,0.0008185865038189619
536,5.36,0.02343356605611572,-0.05899954014341095,0.08890864924139943,-0.004230719807363692,-0.001886658933045448,-0.001886658933045448
537,5.37,0.01831552171427344,-0.05431873798218918,0.08057370838255073,-0.005035941546802472,-0.0006991053850131117,-0.0006991053850131117
538,5.38,-0.028955069858912972,0.026275999171669305,0.005140050601585365,-0.00831653188458864,0.002868431622902628,0.002868431622902628
539,5.39,-0.010451490470268563,0.007963153428714249,-0.05988479059803663,-0.003395978520100302,-0.001754128233174127,-0.001754128233174127
540,5.4,0.022655826862861543,-0.030651289331295004,-0.028734577228865264,-0.00039646045345391706,-0.004784771642953886,-0.004784771642953886
541,5.41,0.012801091963489148,-0.028827319562834387,0.0752717353353719,0.0002593923406045188,-0.003728515917563655,-0.003728515917563655
542,5.42,0.010310353906763001,-0.01975416828545082,0.05938320787725389,-0.0019525961539606574,0.0006733065623506,0.0006733065623506
543,5.43,-0.02118310062486177,0.02123368565521368,-0.003217572438421669,-0.003968922996826402,-0.001225564316792493,-0.001225564316792493
544,5.44,-0.016854176633867624,0.019955550431535827,-0.07631247429902245,0.0013577654852360995,-0.003127405062685276,-0.003127405062685276
545,5.45,-0.00522389187023229,0.021415608510593494,-0.041311155878679416,-0.0005473926419027861,-0.0018071862055355512,-0.0018071862055355512
546,5.46,0.03582801564556412,-0.0732459715955847,0.05879385734756593,-0.002276439187816925,-0.0015716169743866535,-0.0015716169743866535
547,5.47,0.008135474000695008,-0.03510383023402522,0.05629904559783131,-0.003966006988865085,-0.0002615248728434336,-0.0002615248728434336
548,5.48,-0.03034759977287911,0.026079765299863028,-0.015478892656122581,-0.003714155138422054,7.334711729731657e-05,7.334711729731657e-05
549,5.49,-0.0034985051561389766,0.028696288047563967,-0.09765843034788793,-0.0031636315085033424,-0.0004969869877183257,-0.0004969869877183257
550,5.5,0.013366828607860481,-0.013227434368825012,-0.03787873252190459,-0.0031880828916950013,-0.0008904300637180574,-0.0008904300637180574
551,5.51,0.02141904150902607,-0.05151669613096293,0.031758184082998374,-0.004112441743715428,-0.0025120915361788692,-0.0025120915361788692
552,5.52,-0.004897264462751764,-0.00275303673089782,0.060429109662982136,-0.003277677602730752,-0.0007742498239255156,-0.0007742498239255156
553,5.53,0.0019423403136461913,0.01495617751815172,-0.022900515940839545,-0.006309406955273573,-0.0012173630383905368,-0.0012173630383905368
554,5.54,-0.019686091941033,0.06260693515296914,-0.08378543254391788,-0.0013046111460700875,-0.0036201690610838592,-0.0036201690610838592
555,5.55,-0.004373505129736875,0.002329739463492412,-0.04444778361062976,-0.00294851584776061,-0.00010438498177953073,-0.00010438498177953073
556,5.56,0.004527321954488889,-0.007880183717924209,0.06423357064355559,-0.001437375944318259,-0.00109183875592522,-0.00109183875592522
557,5.57,0.015132360303612901,-0.003257953939294818,0.05963610528438567,-0.0037832534536758884,-0.002072563509052575,-0.002072563509052575
558,5.58,-0.028760396846029018,0.07102196288813668,-0.023545505097534863,-0.002937437554781819,-0.0009527094090943986,-0.0009527094090943986
559,5.59,-0.0120961251850338,0.07591087200363356,-0.06359261513610243,-0.002356505284130885,-0.00345650278906428,-0.00345650278906428
560,5.6,0.005792909449474814,-0.007438371108963001,-0.03836584984268114,-0.0003640025350018744,-0.0010988337725309249,-0.0010988337725309249
561,5.61,0.034034581868597036,-0.04224753731627076,0.07484459480020789,-0.004083161807921278,-0.0029175728213267304,-0.0029175728213267304
562,5.62,0.00647965470584555,-0.0032911641086299497,0.06170288396996939,-0.0058397742949055365,0.0004818579744008992,0.0004818579744008992
563,5.63,-0.026009494939711844,0.04249866450694771,-0.007928157958994507,-0.005674801243318094,0.001385796713032949,0.001385796713032949
564,5.64,0.0060462418647715096,0.01931901482751102,-0.04976298496927228,-0.004163686548131362,-0.000867186672563217,-0.000867186672563217
565,5.65,-0.004290304207078969,0.014735553633794148,-0.021088007692392115,-0.0028103302862224704,-0.0005457341545722778,-0.0005457341545722778
566,5.66,0.013896622443075383,-0.04128529196529311,0.09488158037711425,-0.004319231308318669,-0.0020075852686160358,-0.0020075852686160358
567,5.67,2.9812014649978867e-05,-0.03330635101440215,0.06635079520172263,-0.005926267655188334,-0.002368010937112633,-0.002368010937112633
568,5.68,-0.009012621399723602,0.011513877237727961,-0.001118335837281173,-0.002646221868807741,6.544045765371279e-05,6.544045765371279e-05
569,5.69,-0.009144057354451566,0.042876726119438845,-0.0962017362157587,-0.0039058948007838095,-0.002579301525242885,-0.002579301525242885
570,5.7,-0.007557130891226821,-0.009881897919511868,-0.028364263528617054,-0.0015584399320999307,-0.0008293869717025779,-0.0008293869717025779
571,5.71,0.02516561960536102,-0.05238343765952505,0.06035811492642997,0.0012061038107263025,-0.003126365260324621,-0.003126365260324621
572,5.72,-0.009370049614012315,-0.006176402399766205,0.062341499054668605,-0.0029408081291318424,0.0014418330153877408,0.0014418330153877408
573,5.73,-0.007841001940797109,0.022199170559862043,-0.025775449190228415,-0.0027325227044514787,-0.00012877422979449722,-0.00012877422979449722
574,5.74,-0.0183347541187845,0.04219390406470491,-0.0784236508323507,-0.005266587594481486,-0.004053405662465668,-0.004053405662465668
575,5.75,0.00631350913127959,-0.04688666368347444,-0.03692603461595695,-0.0013900697962580312,-0.0017084200131069905,-0.0017084200131069905
576,5.76,0.02692835543610199,-0.05891028459655407,0.04401538545721017,-0.0048145977456185785,-0.002990406501504892,-0.002990406501504892
577,5.77,0.006134444151860079,-0.033312687815235685,0.06489922720490643,-0.0017907070760391458,-0.0013660634615405515,-0.0013660634615405515
578,5.78,-0.018440355401814254,0.0039050611624955635,-0.02548403673792242,-0.002664666213456939,0.00367732589687608,0.00367732589687608
579,5.79,-0.02241322739073112,0.013267523948044722,-0.0717384402078562,-0.002760058265492112,0.0004235322143247154,0.0004235322143247154
580,5.8,0.01765082866639714,-0.03632357621381925,-0.05120594959967195,-0.002014679487031431,-0.0031256648772794997,-0.0031256648772794997
581,5.81,0.027367057285841025,-0.03896570951369491,0.05625662352715632,-0.0016091990933227765,-0.006089476463201625,-0.006089476463201625
582,5.82,0.009020348307531009,-0.038416988513626016,0.04818438609016075,-0.0028399730743399287,-0.0032544048723437587,-0.0032544048723437587
583,5.83,-0.03769363702374412,0.015017333799125576,-0.019125634349550148,-0.005588756082308622,-0.00027602541435198713,-0.00027602541435198713
584,5.84,0.004948168596141205,0.0008893580888552528,-0.07085474519145168,-0.003982279272419589,-0.001848578474101705,-0.001848578474101705
585,5.85,0.0023545579667430426,0.012685395513767524,-0.0467922211618826,-0.0014193937157081914,0.0005164158147866468,0.0005164158147866468
586,5.86,0.014000308974914954,-0.02365957268059992,0.06676655766980072,-0.005141231705846649,-0.00206032580471527,-0.00206032580471527
587,5.87,0.0004211814851172394,-0.01721577380446777,0.057163481122098195,-0.004791493905678654,0.0008968486546986605,0.0008968486546986605
588,5.88,-0.026671256780853973,0.02885366307226271,-0.001812023566892293,-0.004449695811600451,-0.0007550502100769881,-0.0007550502100769881
589,5.89,-0.002480589411418789,0.04641370837872637,-0.07193241800674444,-0.005811710634777199,-0.0004886084209575609,-0.0004886084209575609
590,5.9,0.003290775795718062,0.034539978246893546,-0.021164358465330064,-0.003642311770958942,-0.004645110880367812,-0.004645110880367812
591,5.91,0.02034440165608469,-0.014297345124842119,0.07551704913649096,-0.0031845164080622603,-0.0026892434228844328,-0.0026892434228844328
592,5.92,0.002448391458816185,0.01830516360042914,0.06730858757774609,-0.005296083463367236,-0.00016787088758779737,-0.00016787088758779737
593,5.93,-0.02276516438900377,0.043991151198764816,-0.006224695118218292,-0.0018171392172447772,-0.0007386813320590253,-0.0007386813320590253
594,5.94,-0.014565603530400546,0.0645307249149149,-0.07887065707596823,-0.0017630671764491755,-0.0019089639487560235,-0.0019089639487560235
595,5.95,0.012176094516055773,0.00994602784026168,-0.025378667003112955,-0.0011060648123366477,-0.0017914634227020625,-0.0017914634227020625
596,5.96,0.02015756394888687,-0.01947501374047636,0.07121513904931973,-0.0024525990682083268,-0.0028011917106477518,-0.0028011917106477518
597,5.97,-0.0017353916955645974,0.005815584846231877,0.07335459475098148,-0.00365443023588017,-0.00016632477074979098,-0.00016632477074979098
598,5.98,-0.023270985824234383,0.02434003843775389,-0.026341781062841227,-0.003189631660405445,-0.001973445939900796,-0.001973445939900796
599,5.99,-0.006338109965565797,0.04424699906710611,-0.05772653853693052,-0.0023405693722983512,-0.002701862379934743,-0.002701862379934743
600,6.0,0.012889651605017288,-0.02038052549284696,-0.051889069216863926,-0.0034994141742372394,0.0010838166688376184,0.0010838166688376184
601,6.01,0.01750093979422067,-0.025313444952472407,0.06829588901995468,-0.0013130858985665936,-0.0026675269175025908,-0.0026675269175025908
602,6.02,0.0003288238662372974,-0.018461555299232588,0.0508320737625142,-0.003947271015894797,-0.00118436274005513,-0.00118436274005513
603,6.03,-0.01113880772017235,0.03899461945725209,-0.02883466510267075,-0.004197876588363244,-0.001571539025406356,-0.001571539025406356
604,6.04,0.009592584941320485,0.022565308338767628,-0.07691335707559804,-0.004425976000351658,-0.001672009627316938,-0.001672009627316938
605,6.05,0.005432271962127362,-0.027690653018188193,-0.049178819895051226,0.0001349020042616298,-0.0015004307470766352,-0.0015004307470766352
606,6.06,0.019968905756154322,-0.05407137184356587,0.05810121115802326,-0.003213102244234716,0.0001963424737308316,0.0001963424737308316
607,6.07,0.01570336953179408,-0.029426566607577646,0.050200842468598,-0.003910624372467219,0.0010902322716273768,0.0010902322716273768
608,6.08,-0.03109752949286887,0.02667507921679696,-0.009623477098561393,-0.0014450740477136405,-0.0017402325565507796,-0.0017402325565507796
609,6.09,-0.007845212141177914,0.004643128923235217,-0.08283829112875662,-1.1774990632865087e-05,0.0035781750291641436,0.0035781750291641436
610,6.1,0.0011123159511583127,-0.005513952399533215,-0.014708256926141118,-0.0018830684019632293,-0.00224940947321509,-0.00224940947321509
611,6.11,0.040228620475588076,-0.07822902147876394,0.06222593895235545,-0.0023247401710832396,-0.0006582910392882152,-0.0006582910392882152
612,6.12,0.003231265451921328,-0.03194776071441018,0.05053458388829798,-0.0033700847524707604,-0.000905470075125222,-0.000905470075125222
613,6.13,-0.013222763429097239,0.010294180611985428,-0.002430974162710403,-0.0054924632612520395,0.0008898558295338687,0.0008898558295338687
614,6.14,-0.012809835558270557,0.027355257306323048,-0.08124780937785499,-0.0027879252378046155,9.188904931847589e-05,9.188904931847589e-05
615,6.15,0.006395219462592765,-0.02735607414542922,-0.017406473526997254,-0.0008198115771228393,-0.002389328777753122,-0.002389328777753122
616,6.16,0.022459744804189954,-0.057071427575475966,0.06699064289113771,-0.0011232495791616256,0.0010991264747416787,0.0010991264747416787
617,6.17,-0.014739235198973214,-0.012692133352589454,0.06768025025763799,-0.002286805454410507,-1.0664330466536617e-05,-1.0664330466536617e-05
618,6.18,-0.017441548814268605,0.005380290849765861,-0.02906435990613819,-0.004896591759443552,0.002116031307437492,0.002116031307437492
619,6.19,-0.022688438461546986,0.04771609458253885,-0.06271724243045115,-0.003295097481622583,-0.001962630576951583,-0.001962630576951583
620,6.2,-0.008921168997850337,-0.009503363459190308,-0.0281948053668782,-0.0006145335192712993,-0.0015830685727535635,-0.0015830685727535635
621,6.21,0.0007288958281227373,-0.024398156159908833,0.07868816533488072,-0.0009241729598570307,-0.0021532773152456142,-0.0021532773152456142
622,6.22,-0.009847277868268863,-0.009133537752641958,0.05317311499172255,-0.004732845693550918,-0.001078309508722685,-0.001078309508722685
623,6.23,-0.03032681267572974,0.052456019361798126,-0.0267443472878719,-0.007292982722481639,-0.00019832895930910785,-0.00019832895930910785
624,6.24,-0.020757249720755863,0.04656321906125491,-0.07135640563024137,-0.00506604136818634,-0.0007783474818597992,-0.0007783474818597992
625,6.25,0.011833006304161118,-0.005479727043266335,-0.045113012964615194,-0.002221773848471246,-0.0004448204457907593,-0.0004448204457907593
626,6.26,0.0042125407573045115,-0.020493399646164694,0.06667274017996219,-0.001614906225492446,-0.0011519763905743288,-0.0011519763905743288
627,6.27,0.009788233691365208,-0.0071110086364273815,0.06193550839743114,-0.003289352897119972,-0.0013322945319895665,-0.0013322945319895665
628,6.28,-0.019894920732283564,0.0486807322642962,-0.014689296513028229,-0.0031914038706417768,-0.0013912539606036778,-0.0013912539606036778
629,6.29,0.002637446965532101,0.031147378324704107,-0.08752276407175807,-0.0034577534985963557,0.00032617778687685873,0.00032617778687685873
630,6.3,0.015205284015352056,0.014289725819022915,-0.03755001135606671,-0.003331244586325195,-0.002250173599034684,-0.002250173599034684
631,6.31,0.024406063853517554,-0.036186197444624285,0.03890801930997991,-0.002500818680829205,-0.001377662680193889,-0.001377662680193889
632,6.32,0.011816157597920894,-0.0020286386505008747,0.057512850206923184,-0.003430848641394262,0.0006037873354616135,0.0006037873354616135
633,6.33,-0.005106988109678908,0.04553069846445102,-0.015460227078765553,-0.005489909186355796,0.00011362726198037781,0.00011362726198037781
634,6.34,0.01352053485534339,0.049607190781244224,-0.08168539694811217,-0.003426755462309975,0.00014635382632464434,0.00014635382632464434
635,6.35,0.022415281836929063,-0.001591783741277216,-0.028272749163653202,-0.0036196239812139592,0.00036217203328575064,0.00036217203328575064
636,6.36,0.026714257701921804,-0.03910882048453539,0.05945920676742475,-0.0028325427269395697,-0.0014996821461077325,-0.0014996821461077325
637,6.37,-0.0003332426180706286,-0.013829200725473254,0.07124956697888421,-0.004594897605352719,-0.0015078697201725405,-0.0015078697201725405
638,6.38,-0.007941900494366431,0.011006159739007686,-0.016388598163740605,-0.002434764604741062,0.000281523144908568,0.000281523144908568
639,6.39,-0.0053312547758420335,0.04147089308786764,-0.07958589579333246,-0.002346119249746538,-0.0003619927033286516,-0.0003619927033286516
640,6.4,0.009067849381100206,-0.014257706634416478,-0.026632418379026745,-0.001121882650947905,-0.0007776517245112332,-0.0007776517245112332
641,6.41,0.00868213436364277,-0.028487813642350597,0.07752013382440631,-0.0017899894558115969,-0.0006504040076168961,-0.0006504040076168961
642,6.42,-0.005239274133544849,-0.012299665672774969,0.08535470972062884,-0.003184730340229757,-0.0015410851644703965,-0.0015410851644703965
643,6.43,-0.011670767732951864,0.0036690215477456125,-0.023736799968182773,-0.003260666256396719,-0.0011807981637468052,-0.0011807981637468052
644,6.44,-0.02182140080803725,0.019395889625686478,-0.04325771255133907,-0.0026707230255458053,-0.002851703049499264,-0.002851703049499264
645,6.45,0.005410166480073053,-0.01995193615188469,-0.03294293064633157,-0.00015880669360632163,-0.002266052998608855,-0.002266052998608855
646,6.46,0.020921695886698784,-0.049389783656956704,0.07782911611522007,0.0006123125404364839,-0.00360791720101459,-0.00360791720101459
647,6.47,0.013798577901237221,-0.04529145872454223,0.06664096021948104,-0.002632055069552345,-0.001393861344116026,-0.001393861344116026
648,6.48,-0.02146454529469335,0.019314505979101965,-0.027133598327286346,-0.003128897431954357,0.00021270554703770145,0.00021270554703770145
649,6.49,-0.00903631580828819,0.0008898308748769741,-0.07551665069398183,-0.0036480141564424243,0.000710158671146462,0.000710158671146462
650,6.5,0.0006965108956560138,-0.018932403844549382,-0.02895889301636966,-0.001721072490740256,-0.0029425163387069237,-0.0029425163387069237
651,6.51,0.006089215425856828,-0.04500713448877312,0.0710906079532807,-0.00036979021008860964,-0.0014961230720370938,-0.0014961230720370938
652,6.52,0.0031979125385342803,-0.03723046156371072,0.04998867338002644,-0.0032647546761873877,0.00026839927748024825,0.00026839927748024825
653,6.53,-0.03229440750795315,0.034112728036519886,-0.008921199734965836,-0.0033751235827506913,-0.001054359481642575,-0.001054359481642575
654,6.54,-0.021225101000813835,0.020530140590486915,-0.09993865031444472,-0.0041264465277843785,0.0001467880921053623,0.0001467880921053623
655,6.55,-0.0012226018902896495,0.0008197043698956151,-0.03548440243858024,-0.0019942328515075653,-0.0023189255016183782,-0.0023189255016183782
656,6.56,0.010109558727086628,-0.03852339230935708,0.047250731447367314,-0.002341709688412247,-0.0008968426617825451,-0.0008968426617825451
657,6.57,-0.01553872195284083,-0.009423399723392314,0.04815517810928888,-0.004704898397298213,-0.0033216951951384717,-0.0033216951951384717
658,6.58,-0.017816007872421345,0.01998450016994937,-0.032886935319065454,-0.003251180860288811,0.0008266752540119874,0.0008266752540119874
659,6.59,-0.018356094975508323,0.03800166817689027,-0.10240413999889625,-0.0009847422033794544,0.001198098317838319,0.001198098317838319
660,6.6,0.0048251523439351305,0.0022135127642570803,-0.025017902027361153,-0.001138268787571132,0.0020115848196972366,0.0020115848196972366
661,6.61,0.01590605017929188,-0.028614995918093997,0.040936737920422746,-0.0029303032423608627,-0.00278101243272077,-0.00278101243272077
662,6.62,-0.007286572078035696,0.006121750987389299,0.06923925378701172,-0.0020126128063906873,-0.002360751657607907,-0.002360751657607907
663,6.63,-0.012664632372013259,0.03732820293175158,-0.04264517849481264,-0.00445678117794164,0.0006680419411189518,0.0006680419411189518
664,6.64,-0.01621883280220322,0.07195338449316421,-0.05493902081858406,-0.001591821950400032,-0.002899804140677705,-0.002899804140677705
665,6.65,0.04023882610881659,-0.00973360748540027,-0.043361683741871035,0.0004211832188457003,4.86175633307986e-05,4.86175633307986e-05
666,6.66,0.027436124639093624,-0.01754794494147007,0.07577775750850019,-0.0016816934672233613,-0.0002552448180267419,-0.0002552448180267419
667,6.67,0.01798148091845446,-0.011134928950146094,0.08144131573659455,-0.0031807825387666464,-0.0015665176940949119,-0.0015665176940949119
668,6.68,-0.0038462369876444934,0.03930986511938067,-0.007939131785192812,-0.004914741158855377,0.0016772128389759757,0.0016772128389759757
669,6.69,0.0004974586869583558,0.05819374590566147,-0.04968898212929321,-0.0029053633445083127,3.114126359040526e-05,3.114126359040526e-05
670,6.7,0.023331726079242762,-0.0005813998588028255,-0.01884112753366544,5.4672847211326566e-05,-0.001605469466021741,-0.001605469466021741
671,6.71,0.01781933283128999,-0.016465483415330925,0.06776208962867027,0.0009510584863901381,-0.0016646190790529064,-0.0016646190790529064
672,6.72,0.014965050476071063,-0.010258994818470587,0.0689577863822683,-0.0030931235365246803,-0.0013640291498052204,-0.0013640291498052204
673,6.73,-0.01791652880080065,0.04983751801347719,-0.007777932107256524,-0.005109417984895577,-0.0027151470904895787,-0.0027151470904895787
674,6.74,-0.011436347004049104,0.04149606156846779,-0.08131162025294261,-0.005484211006030339,0.0021114131359387875,0.0021114131359387875
675,6.75,0.0024697084595808327,0.013155067316540744,-0.030678087874978797,-0.0018016061343618184,-0.0011251993327370436,-0.0011251993327370436
676,6.76,0.03198444928951425,-0.05442190462354113,0.061985101738424246,-0.0024215087050587234,-0.0027344949802472,-0.0027344949802472
677,6.77,-0.002957564501748231,-0.013801214749702235,0.06612900755576546,-0.004302737723093523,-0.0017289139534175765,-0.0017289139534175765
678,6.78,-0.022442848912406506,0.017844245645241022,-0.0061880206451351075,-0.0032980240979603873,-0.0019426079145991493,-0.0019426079145991493
679,6.79,-0.021830203943730524,0.02529408303592496,-0.09341202283368447,-0.004418878374983454,-0.0006196014572679329,-0.0006196014572679329
680,6.8,0.014481484312904833,-0.0167959276209784,-0.02322697957844769,-0.0016837776770371024,-0.0016735185820565715,-0.0016735185820565715
681,6.81,0.020984648342193105,-0.06521453926760122,0.051868841633300126,-0.0044327769573306785,-0.003156510341430097,-0.003156510341430097
682,6.82,-0.020279957331312232,-0.03994762187587356,0.0663438829806848,-0.0019811866682190623,-3.413187290128471e-05,-3.413187290128471e-05
683,6.83,-0.019823974701986703,0.005741340606863734,-0.033664736855341985,-0.0025091351313075642,-0.0016914609001867952,-0.0016914609001867952
684,6.84,-0.018738866181772194,0.026075364325327838,-0.0852860151307848,-0.0034321280853835986,-0.0020829427976481857,-0.0020829427976481857
685,6.85,0.009156533066144772,-0.04076802405356075,-0.03533988925588144,-0.001951296687811556,-0.002435566036300382,-0.002435566036300382
686,6.86,0.008218026419235963,-0.052753459470427144,0.05192629557766158,-0.00203055508914142,0.0017560036182863682,0.0017560036182863682
687,6.87,0.0028944203229520644,-0.05463883240346168,0.068141979236844,-0.0037935888955993595,-0.002211997656391075,-0.002211997656391075
688,6.88,-0.026548629968545255,0.019143908069738983,-0.02590920941512032,-0.0029101586509319693,-0.0011003647522336078,-0.0011003647522336078
689,6.89,-0.013628578153696096,0.008067686002540295,-0.07376914363796701,-0.0002807210052247957,-0.001748507481061729,-0.001748507481061729
690,6.9,-0.0027433308786293034,-0.018694623631986065,-0.04671590344762135,-0.0005148735476482028,-0.002727469715934419,-0.002727469715934419
691,6.91,0.0027585239469517233,-0.04604375589642919,0.06606101561343139,-0.002008603461578981,-0.0017890677766267578,-0.0017890677766267578
692,6.92,-0.0013405818432533918,-0.04320042739813979,0.06537569367389476,-0.003429643414834677,0.0012527586909958765,0.0012527586909958765
693,6.93,-0.02115167099107098,0.026858686497468615,-0.021343614224777617,-0.003714084353199915,0.0010698991615055622,0.0010698991615055622
694,6.94,-0.00497637344291064,0.025136504280629104,-0.06834890528753249,-0.0024871657657314747,-0.0007797575641742228,-0.0007797575641742228
695,6.95,0.004599553697512217,0.002815551295666588,-0.013452681708382454,-0.001428324756468832,-0.0011194889456473793,-0.0011194889456473793
696,6.96,0.02506541151635203,-0.03645237003319205,0.0728474771927962,-0.003130035039035581,-0.003220899150333304,-0.003220899150333304
697,6.97,0.002036004689026116,-0.015612786792796604,0.053231222611685,-0.002253040751675413,-0.0010989351908121275,-0.0010989351908121275
698,6.98,-0.00801340272080239,0.02316084662789867,0.007728355627402109,-0.0053025174176402345,-0.0005305677234989398,-0.0005305677234989398
699,6.99,-0.0013545998647769846,0.05753495201492913,-0.08539151000647599,-0.0018587088522723906,-4.15709246300386e-05,-4.15709246300386e-05
700,7.0,0.0026338905789935535,0.026929442080930188,-0.017557215384215324,-0.0016152693221583787,-0.0016826953183590706,-0.0016826953183590706
701,7.01,0.03062000259844434,-0.025389803443389466,0.045264463262381545,-0.0028415680615930584,-0.0012155070617736695,-0.0012155070617736695
702,7.02,0.002927901405067518,0.014477481726680301,0.06798558445400951,-0.005434477735947192,-0.001645367190130736,-0.001645367190130736
703,7.03,-0.0017000185407136242,0.044876846658038,-0.025951908699267785,-0.005578993752824735,0.003094738811073877,0.003094738811073877
704,7.04,0.006046906801922166,0.07195177602546365,-0.08236860707739918,-0.0030392151716831482,-0.0006639907187730364,-0.0006639907187730364
705,7.05,-0.000796226759298363,0.010891708064631696,-0.0348450762006893,-0.0033799595995560967,-0.001144870365148818,-0.001144870365148818
706,7.06,0.02675055347793015,-0.01942183027409738,0.06659269644597142,-0.0014738298354017227,-0.002943692096241658,-0.002943692096241658
707,7.07,0.005453286494980504,0.0056553680527498765,0.07279171484461949,-0.003571044526628925,0.0018765922578378477,0.0018765922578378477
708,7.08,-0.005563375180043878,0.05186744049866883,-0.03467574464041638,-0.003401479570043132,-0.0020729760514175168,-0.0020729760514175168
709,7.09,-0.006343243983783817,0.051166323490312415,-0.06233828373229633,-0.001373940495457027,0.003510190647040189,0.003510190647040189
710,7.1,0.016811872989048127,-0.004782096068150962,-0.043690839255532805,-0.0009929060031841877,-0.0024531819655328898,-0.0024531819655328898
711,7.11,0.009855336287319372,-0.014296777033842223,0.06430436520926369,-0.0014859875950476865,-0.0024705928790851,-0.0024705928790851
712,7.12,0.0023076464733144692,-0.01637749784283403,0.058979051338692974,-0.003853175945904506,-0.0015767468306272106,-0.0015767468306272106
713,7.13,-0.02758744472863142,0.04617505690249898,-0.023343816527432053,-0.003851944432393883,-0.001623273374077982,-0.001623273374077982
714,7.14,-0.02487791443405817,0.0343980405442712,-0.07032337881471265,-0.004792839789925,0.0007261686667545072,0.0007261686667545072
715,7.15,0.009229717688733489,-0.01004528346403824,-0.030710409295946456,-0.0034911853381096136,-0.003757199304857768,-0.003757199304857768
716,7.16,0.01972592079154858,-0.03956723079570351,0.07260027233703434,-0.0023136319281368907,-0.0022450433076877697,-0.0022450433076877697
717,7.17,-0.010515028250539949,-0.028280770026039424,0.0477350740923802,-0.002522972831116022,-0.0014730051453972536,-0.0014730051453972536
718,7.18,-0.029909018896145917,0.02013593528299505,-0.008277118824228817,-0.006717919749481967,-0.002575476398234969,-0.002575476398234969
719,7.19,-0.013388311783439577,0.011495263773021406,-0.07725237794495922,-0.004367089841504416,0.0011964611046809744,0.0011964611046809744
720,7.2,-0.006972588223301367,-0.02983306525741973,-0.03530429149346175,-0.0009329983706937775,-0.0023691847091126075,-0.0023691847091126075
721,7.21,0.020511975075131514,-0.06520650391148054,0.05699738121654724,0.0002679345588730344,-0.0027422817064197275,-0.0027422817064197275
722,7.22,-0.004606435506627543,-0.022569884625003693,0.06904284897612033,-0.003740551931265564,-0.0002939657654100089,-0.0002939657654100089
723,7.23,-0.014717518354950008,-0.01171143759497979,-0.016952101536231196,-0.002771639915260739,-0.0007386900875277326,-0.0007386900875277326
724,7.24,-0.00472546121278945,0.012924415815930936,-0.08776023729919595,-0.004075575990795,0.0004169166211465556,0.0004169166211465556
725,7.25,0.011489911707784404,-0.023631648852268015,-0.028606384045273152,-0.003148487391730574,-0.003027857958027356,-0.003027857958027356
726,7.26,0.013899403636547368,-0.05571185248228311,0.05011799277252423,-0.0020856136922317754,-0.0010997908938435359,-0.0010997908938435359
727,7.27,0.0016802735337386986,-0.032533133079824146,0.07421048467404516,-0.0032640775980257854,-0.0020563179194733427,-0.0020563179194733427
728,7.28,-0.007948997858713638,0.002046826077481162,-0.02556717411202069,-0.0031578263409283913,-0.0005464756733552903,-0.0005464756733552903
729,7.29,-0.0035976160218876138,0.01623498116728837,-0.06735022612913508,-0.0032018858609609217,-0.003312391650484734,-0.003312391650484734
730,7.3,0.01772051778908635,-0.01898775341497823,-0.03727884552549074,-0.00016215344573138074,-0.003659446314778829,-0.003659446314778829
731,7.31,0.011389837515520418,-0.036362916052931,0.048511910777677275,-0.002609408163480437,-0.0010603431417255669,-0.0010603431417255669
732,7.32,0.0025290340141528034,-0.026639949891941253,0.07708783815907472,-0.002870756117793166,0.000880367193928407,0.000880367193928407
733,7.33,-0.024312598057062568,0.031149132241993418,-0.01671177423606056,-0.004936456546959346,-0.0010104594436864311,-0.0010104594436864311
734,7.34,-0.007557416318480888,0.019690604492627266,-0.06237764248720063,-0.0012091103175660301,-0.0025004465186994475,-0.0025004465186994475
735,7.35,0.0038918518268903825,0.0029260369701374633,-0.031657820875010144,-0.0023440135771478072,-0.002996273385126099,-0.002996273385126099
736,7.36,0.01838226048627209,-0.04317540561037165,0.07338036422852261,-0.0038309012948584283,-0.0002470056285151393,-0.0002470056285151393
737,7.37,-0.009575979277108862,0.00040169563510718265,0.06525611905825084,-0.0026067492263670785,0.0018037426542571934,0.0018037426542571934
738,7.38,-0.006673090642861045,0.04272369922524341,-0.0057329535692859715,-0.0034107896547397143,-0.0007761399741881461,-0.0007761399741881461
739,7.39,0.004952555647718268,0.03044219992273481,-0.07627660512731842,-0.0040040458696340596,-0.0007602478218537274,-0.0007602478218537274
740,7.4,0.008271627302310755,0.009234390546290872,-0.021646122087911376,-6.920173608903854e-05,-0.0035897799195585603,-0.0035897799195585603
741,7.41,0.034711904160874975,-0.031077586876315164,0.05811503347680104,-0.004260667770015067,-0.002561553433133577,-0.002561553433133577
742,7.42,-0.012858781756996231,0.004859228072957541,0.07245123887256236,-0.0032513495368359287,-0.0008647216421463436,-0.0008647216421463436
743,7.43,-0.015340317245399504,0.0566488868074887,-0.01302005039441768,-0.005124397276007167,-0.0034535316993620346,-0.0034535316993620346
744,7.44,-0.01833831641717098,0.06367240677573718,-0.09152822507368799,-0.002157050444448722,-0.001132730144540582,-0.001132730144540582
745,7.45,0.012194235277553624,0.008619632718518589,-0.0362496944689726,-0.0015846982108711455,0.0014580876589642786,0.0014580876589642786
746,7.46,0.015937449963217505,-0.01857652391799582,0.06273600685155065,-0.0037551581806323092,-0.0012898659952900375,-0.0012898659952900375
747,7.47,-0.004841160236333807,0.0074924360715135085,0.05841852877100194,-0.004628599063289901,-0.0011935493338321747,-0.0011935493338321747
748,7.48,-0.018204300378050348,0.046596425185190846,-0.030524226627169644,-0.0033541973739667657,-0.001173064930994447,-0.001173064930994447
749,7.49,-0.014655727949553225,0.045332036062903966,-0.07211690956479297,-0.003132484977314284,0.00019685320760625934,0.00019685320760625934
750,7.5,0.007315736168117875,-0.007646307933232694,-0.06144175751069141,-0.001218948456588092,-0.0021058632823030016,-0.0021058632823030016
751,7.51,0.014710501073351671,-0.02678605359003889,0.06092341866593269,-0.0041260255820812644,-0.0036851525494927383,-0.0036851525494927383
752,7.52,-0.00722398160160045,-0.010718529948947106,0.059712083935191985,-0.0009859433137457897,-0.0030780566295751594,-0.0030780566295751594
753,7.53,-0.019324252217804365,0.03354685767947169,-0.03437807018559408,-0.003818610864670407,-0.0013079931761984301,-0.0013079931761984301
754,7.54,-0.012889339397383211,0.03064944911728553,-0.05791104922533339,-0.0028011218479576713,-0.002248464004416275,-0.002248464004416275
755,7.55,0.01430900365934632,-0.008159251175977048,-0.05103196366347028,-0.0009950592973753509,-0.0006693232247326897,-0.0006693232247326897
756,7.56,0.0219278050947866,-0.0399591199884151,0.0670830474974911,0.000377801080503768,-0.0025500732536393035,-0.0025500732536393035
757,7.57,0.008510546017857527,-0.030213084190855454,0.06853195487926964,-0.00281299125964947,-0.0014674879792529148,-0.0014674879792529148
758,7.58,-0.024636367235246138,0.02192983307855267,-0.004141199666732997,-0.0031832812639344863,-0.0016654084883786645,-0.0016654084883786645
759,7.59,0.011014980487605795,0.0020759435856217492,-0.06245620629224673,-0.0007982412743342284,-0.002034875036815784,-0.002034875036815784
760,7.6,0.010979255778282737,-0.016202772259152346,-0.03301359691008913,0.0003882595478361768,-0.0036231324427523225,-0.0036231324427523225
761,7.61,0.018563402521605987,-0.0592262551129723,0.05688356495286019,-0.0031062261477501968,-0.00247122682038157,-0.00247122682038157
762,7.62,0.007442538304753048,-0.03168744993751767,0.06261685708196205,0.00047251719721938323,-0.002141237578686176,-0.002141237578686176
763,7.63,-0.005995896468799982,-0.0019251147783919398,0.0005419474929192238,-0.002458075429257292,0.0008587455849191702,0.0008587455849191702
764,7.64,-0.013948215783878956,0.023107123365498472,-0.0717199685074542,-0.0018355618543949648,0.00039275183092608845,0.00039275183092608845
765,7.65,0.004863053701633067,-0.024129738729482247,-0.01752507023455268,0.000849161383955925,0.0002935308142022015,0.0002935308142022015
766,7.66,0.02896871503938218,-0.05422968684593797,0.06839116737328307,-0.0026518081700345176,-0.0024264259969431377,-0.0024264259969431377
767,7.67,-0.015616051347083968,-0.02743966820891958,0.06112141299306703,-0.0018041222210017215,-0.002865904975952977,-0.002865904975952977
768,7.68,-0.02413289256767671,0.016306919014061887,-0.0348889425538477,-0.00315137183490201,0.00012580663813952886,0.00012580663813952886
769,7.69,-0.008331302737438161,0.03668788006673083,-0.06771851023484632,-0.003713216604950145,-0.0028460866900758127,-0.0028460866900758127
770,7.7,0.008436407554313706,-0.013581721532892879,-0.023686326052707322,-0.0011931833259261645,-0.001425333804530838,-0.001425333804530838
771,7.71,0.018073057028583063,-0.02353010327869284,0.06106015087429007,-0.0014705486091333186,-0.004439310236582378,-0.004439310236582378
772,7.72,0.001957502835859365,-0.020883842713751512,0.06500835517964249,-0.0025200810380181875,-0.0015994873779434323,-0.0015994873779434323
773,7.73,-0.016061637086397226,0.035822076110007164,-0.02542681306971447,-0.004317674312468696,0.0001469498102850809,0.0001469498102850809
774,7.74,-0.016431676610959227,0.027606650495323817,-0.07043224327559,-0.0030937920424654853,-0.0014201329950460347,-0.0014201329950460347
775,7.75,0.008469102083462266,-0.0003584692301770564,-0.04034825223375145,-0.004506690811754583,-0.0007706092561610218,-0.0007706092561610218
776,7.76,0.008245638094341083,-0.02791970944240378,0.05396625386743203,-0.0037869440982203615,-0.0011309236402699935,-0.0011309236402699935
777,7.77,-0.005492499450113252,0.0002102633759796359,0.05914705684694348,-0.0037081292960666704,1.5499264245648727e-05,1.5499264245648727e-05
778,7.78,-0.00857946598795855,0.03822980413754701,-0.04289525504876926,-0.005169390257217127,0.0002759667077158276,0.0002759667077158276
779,7.79,-0.020991723923958462,0.03851376409548456,-0.08429315788890163,-0.004363190922624914,-0.003363554976445425,-0.003363554976445425
780,7.8,0.00017273425573453459,0.01982526404342969,-0.03524820168217408,-0.003503624277100455,-0.002710497155586641,-0.002710497155586641
781,7.81,0.009072138626394968,-0.027009302870016252,0.05600670015407618,-0.000982853224938262,-0.003821334175687139,-0.003821334175687139
782,7.82,-0.006921502619930336,-0.001327535955585886,0.054606780663099444,-0.0018469726059765585,-0.0004900714068679262,-0.0004900714068679262
783,7.83,-0.024876318726777556,0.05009564236576207,-0.007711677083251742,-0.0061922842196416574,0.0014803204804099887,0.0014803204804099887
784,7.84,-0.009080421000048043,0.048096698990810705,-0.08727659763274484,-0.0035340768619427773,-0.0035647448645758978,-0.0035647448645758978
785,7.85,0.01133039377896565,-0.0021697975952872164,-0.016617327530270197,0.00010033298690075476,-0.0028699413736491693,-0.0028699413736491693
786,7.86,0.02685864335942932,-0.030395543853948298,0.05918649937837163,-0.0022922790440133424,-0.0036051185834169224,-0.0036051185834169224
787,7.87,0.0031724533312278034,-0.0072549042879099974,0.07497020978469073,-0.004545156711110801,-0.0033083078699657647,-0.0033083078699657647
788,7.88,-0.0031527139857491426,0.015347950790575247,-0.012055495050725062,-0.006559351239251265,-0.00029513048655885885,-0.00029513048655885885
789,7.89,-0.005788811697695103,0.04118657956730329,-0.070084525189854,-0.005612703383280493,-0.003031139176488777,-0.003031139176488777
790,7.9,0.008405849089914302,-0.006653923830427967,-0.022622373401397625,-0.00289874992485588,-0.0020652555835281067,-0.0020652555835281067
791,7.91,0.03354075533198549,-0.043912923655690245,0.07515331135701883,-0.0005852185288210902,-0.001774500079904706,-0.001774500079904706
792,7.92,-0.0003698567400426539,-0.027068680455633314,0.09272490115199121,-0.0019211099456189573,-0.002259115463544236,-0.002259115463544236
793,7.93,-0.011566783151484709,0.014881188176553543,-0.01538680029530317,-0.003143672881072439,0.00025884672628464177,0.00025884672628464177
794,7.94,-0.006528108406645451,0.023937099944603288,-0.062070740835796334,-0.0024698833528012266,-0.0014151846447626524,-0.0014151846447626524
795,7.95,0.01638961090059475,-0.020604078027884956,-0.046444854803935134,0.002257412093846749,-0.0052270092601363095,-0.0052270092601363095
796,7.96,0.011912604470728245,-0.06100958444765309,0.055111075266266525,-0.0010301354315734638,0.0002891898385329253,0.0002891898385329253
797,7.97,0.004599147318212292,-0.04586778426741052,0.06020634184934332,-0.006421604132537847,-0.0017996977585746671,-0.0017996977585746671
798,7.98,-0.0110523552075092,0.016140824010323532,-0.016576955625266815,-0.003623527854386457,-0.003150138507160955,-0.003150138507160955
799,7.99,-0.007028256372829053,-0.0007979286971140781,-0.07719135779009223,-0.004277297125797825,-0.001465074848397541,-0.001465074848397541
800,8.0,0.010085868742517596,-0.015862555091217923,-0.04746238171868716,-0.000482095533300311,-0.002056752405009536,-0.002056752405009536
801,8.01,0.004930837662278769,-0.05416192954938538,0.059886512486597085,-0.002841955779479395,-0.0020196412771251713,-0.0020196412771251713
802,8.02,-0.003251951577572564,-0.025960081752065392,0.06793464838716282,-0.0035753306428238404,-0.0009000533782189386,-0.0009000533782189386
803,8.03,-0.014574833644190143,0.029109624214113467,-0.02116346538338309,-0.0033415347584723745,-0.0012673126884464266,-0.0012673126884464266
804,8.04,-0.012837009517862792,0.030758658273375643,-0.08888410910391206,-0.0011715970226815408,-0.0016000548359092635,-0.0016000548359092635
805,8.05,0.019769628650967354,0.0023659737271577008,-0.040570953823233696,-0.0026075153135924896,-0.0009073687692332812,-0.0009073687692332812
806,8.06,0.006967607214593406,-0.035671851198214005,0.050073833101301514,-0.0012162685201493402,1.9177264827712304e-05,1.9177264827712304e-05
807,8.07,-0.010863198283492576,-0.0065479107382639505,0.0647678029753116,-0.005707361118639042,0.00012851048344483362,0.00012851048344483362
808,8.08,-0.00905216999533024,0.04015417097086386,-0.018066964442326708,-0.0027106303994849355,-0.001016913217062621,-0.001016913217062621
809,8.09,-0.019742024200131596,0.06292534511659692,-0.06855318639088157,-0.0040447604930483275,-0.0024285454384895986,-0.0024285454384895986
810,8.1,0.007483153501000945,-0.00019515586667727056,-0.033795597471096485,-0.0022428009789524205,-0.0044423662602820395,-0.0044423662602820395
811,8.11,0.016039390586388265,-0.009581559006842693,0.051803527546014506,-0.004142882275619103,-0.0009728998555542373,-0.0009728998555542373
812,8.12,-0.0043032572774458055,-0.009015294040712904,0.06715989956011134,-0.0029775534484231965,-0.00013075833888363445,-0.00013075833888363445
813,8.13,-0.01768642645529792,0.04723030227088863,-0.03978140851990137,-0.005144544011788106,0.0008909880090137895,0.0008909880090137895
814,8.14,-0.005435081899728222,0.05994820921619883,-0.058560903881297866,-0.004770021456880492,-0.0026886334258635213,-0.0026886334258635213
815,8.15,-0.0006538772019035501,0.011175413156851007,-0.029451429856166167,1.4665277406335585e-06,-0.0015396052848241741,-0.0015396052848241741
816,8.16,0.00683602279111467,-0.01441762145270331,0.06813681230511065,-0.001925697435762049,-0.0023252584177368297,-0.0023252584177368297
817,8.17,0.005694858814907842,-0.007200115621296133,0.07431600489392357,-0.003179485252619206,-0.0005232695598079004,-0.0005232695598079004
818,8.18,-0.01864601797442555,0.06552402642579955,-0.01917895774952258,-0.0030205075733444075,-0.0023177829842205904,-0.0023177829842205904
819,8.19,-0.0005471519574377299,0.025056170454535353,-0.06272219201824089,-0.003284505357808277,-0.0012697581564030975,-0.0012697581564030975
820,8.2,0.007359019579975315,0.008191289937499645,-0.028604297272021875,-0.001908833338738352,-0.0017057164133011096,-0.0017057164133011096
821,8.21,0.00971193779196422,-0.03923863314373145,0.07063937693268488,-0.0014373977362022847,-0.0015446172719673645,-0.0015446172719673645
822,8.22,0.005734945983506591,-0.029174440456203522,0.057293008235671294,-0.003426688614332921,5.119161302895508e-05,5.119161302895508e-05
823,8.23,-0.00013858676917593996,0.029292272972704245,-0.005878118270155629,-0.005326978846791349,0.00075729408092206,0.00075729408092206
824,8.24,-0.014178445348334628,0.020927062981077844,-0.07343293602217166,-0.001892948165982512,-0.0002641820139256247,-0.0002641820139256247
825,8.25,0.009478699277997561,-0.018310819352428388,-0.0348602966561367,-0.0012734762584505693,0.0006732456787632469,0.0006732456787632469
826,8.26,0.03253760280926857,-0.08358409225608045,0.055347016867834976,-0.001277511411677665,-0.0018522527978894086,-0.0018522527978894086
827,8.27,-0.002185872964790907,-0.030295726620855865,0.05675354737300351,-0.003731727441115987,0.0002657727595746395,0.0002657727595746395
828,8.28,-0.01872955518820353,-0.005182477351724286,-0.023712865263749418,-0.002594541728627789,-0.0010825144763865065,-0.0010825144763865065
829,8.29,-0.006830529952876915,0.011234468669277613,-0.09009531738186655,-0.0035041783437512125,-0.00030292015986842653,-0.00030292015986842653
830,8.3,0.02083137578734718,-0.043111282855750485,-0.03825079755449223,-0.0009750772367937457,0.0004863998058946741,0.0004863998058946741
831,8.31,0.013222362769770742,-0.06289176593212714,0.05579978095696748,-0.0028745649188161764,-0.000548369576281246,-0.000548369576281246
832,8.32,-0.01327034445594348,-0.02836502588965271,0.06953059431350533,-0.0020619811653651123,-0.0014909294727459867,-0.0014909294727459867
833,8.33,-0.014670410858280815,0.007694497451534405,-0.02114848411098093,-0.0026627722049395713,-0.0007656447622103187,-0.0007656447622103187
834,8.34,-0.00893338796455827,0.030538728166128314,-0.0671528531091532,-0.000968627351941522,0.0023497510081143787,0.0023497510081143787
835,8.35,0.02380502568202393,-0.03579090557635219,-0.03804986318457661,-0.002668648463667523,-0.004299605753570295,-0.004299605753570295
836,8.36,0.010112979727191359,-0.03423414449314535,0.07137055060508861,-0.0014629013373361225,-0.0032811464004961354,-0.0032811464004961354
837,8.37,-0.011718975908376159,-0.025755366081775453,0.07625751798555512,-0.002065966032088244,-0.0019214760559651718,-0.0019214760559651718
838,8.38,-0.02381892941849101,0.04228289848974583,-0.017252293462132612,-0.006726668360573711,-0.0012327289288321267,-0.0012327289288321267
839,8.39,-0.014327827248731903,0.03178958108582803,-0.060293198440848135,-0.0030370194874716487,-0.0005317342997388974,-0.0005317342997388974
840,8.4,0.0007633681568440485,0.004427368601989671,-0.0376941361351741,-0.0015183025752317034,-0.0008106643195920487,-0.0008106643195920487
841,8.41,0.018464899234708346,-0.02760772798897111,0.06813495842155315,-0.0033368758893483914,0.0010198258417352317,0.0010198258417352317
842,8.42,0.001160101962271455,0.0005894262963119304,0.054090266199526005,-0.004517591639259185,0.0016141893488640074,0.0016141893488640074
843,8.43,-0.017042663524934228,0.056102929106185,-0.007206001577282871,-0.004473144401944978,0.002516280731448857,0.002516280731448857
844,8.44,-0.013547352681316955,0.049987572953623764,-0.0787089538179834,-0.0025864164366473288,-0.0011600686062217616,-0.0011600686062217616
845,8.45,0.016199589818117144,0.020271675445940242,-0.02974915802987705,-0.0009769280788542634,-0.002109618096966935,-0.002109618096966935
846,8.46,0.024638170014686094,-0.028484517285749314,0.05211088520449261,-0.00443185043841809,-0.0022723929038218865,-0.0022723929038218865
847,8.47,-0.010539212381971952,0.016956468419813433,0.06606723087136476,-0.004131988530845003,0.0008669451052907597,0.0008669451052907597
848,8.48,-0.007108024768314467,0.03599719853607847,-0.010768418917532538,-0.0057432268217289615,0.0004295028611397458,0.0004295028611397458
849,8.49,0.004214691302179023,0.039671616212541394,-0.08640522659228467,-0.005041503172489893,-0.0012483401354220253,-0.0012483401354220253
850,8.5,0.008541526216342452,0.005675139392448501,-0.042445908455622336,-0.0010555233102782606,-0.001967837702084175,-0.001967837702084175
851,8.51,0.0062107457814499405,-0.012668670900077023,0.04350340188959211,-0.005187661067131854,-0.0024910165640631946,-0.0024910165640631946
852,8.52,-0.005887699714743823,-0.00048239285676277086,0.06924861435780208,-0.004174091312573458,-0.0006036681328646697,-0.0006036681328646697
853,8.53,-0.007754935524715478,0.02954354850756198,-0.011401526228961591,-0.00328096552634018,-0.004215716176227094,-0.004215716176227094
854,8.54,-0.018032191909868305,0.05472650204141652,-0.07713092668268212,-0.0048030032142524146,0.000256984289013163,0.000256984289013163
855,8.55,0.01354907174365149,-0.017665313490113008,-0.046635617096201176,-0.0021358916529015913,-0.0030155876440866296,-0.0030155876440866296
856,8.56,0.02646752310514513,-0.022720687151399455,0.056981310263756746,-0.004033137024634577,-0.0018499966332638066,-0.0018499966332638066
857,8.57,-0.0027958118980846245,-0.033141473347218814,0.08217681394043944,-0.0020175581271388624,-0.0014076019656970918,-0.0014076019656970918
858,8.58,-0.02431382243919444,0.032784879469926004,-0.02045656161932607,-0.005528637385005072,0.0023928174343343014,0.0023928174343343014
859,8.59,-0.011474347400346826,0.025363241078888696,-0.06403455465008664,-0.004328892232228579,-0.0034996670609401736,-0.0034996670609401736
