,ts,ax,ay,az,wx,wy,wz
0,0.0,0.0032480000000000013,-0.033555,-0.057337,-0.040466,0.024124,-0.002426
1,0.01,-0.016678,0.001059000000000001,-0.019603,-0.047928,0.020935,-0.001358
2,0.02,-0.031813,0.024611,-0.027984,-0.04686,0.009216,0.001831
3,0.03,0.031122000000000004,0.042959,0.00509,-0.043670999999999995,0.004959000000000001,0.003967
4,0.04,0.027268,0.085341,0.077422,-0.035141000000000006,0.004959000000000001,0.006104
5,0.05,0.10669200000000001,0.062999,0.075874,-0.022369,0.0038909999999999995,0.003967
6,0.06,0.120441,0.058935,0.008815,-0.012772,0.009216,0.003967
7,0.07,0.152174,-0.013968000000000001,-0.098974,-0.012772,0.009216,0.003967
8,0.08,0.1559,-0.080594,-0.15738,-0.017044,0.0017550000000000005,0.006104
9,0.09,0.112532,-0.10416800000000001,-0.18403599999999998,-0.025558,-0.011032,0.006104
10,0.1,0.074687,-0.057692999999999994,-0.17621900000000001,-0.028763,-0.017426,0.006104
11,0.11,-0.029263,-0.038424,-0.157283,-0.039413,-0.019547,0.008223999999999999
12,0.12,-0.124306,-0.017950999999999998,-0.13586099999999998,-0.058578,-0.015288999999999999,0.007156
13,0.13,-0.12779100000000002,0.069574,-0.004288,-0.078827,-0.009964,0.009293000000000001
14,0.14,-0.181556,0.553191,0.48582,-0.08522,0.050751,-0.012009
15,0.15,-0.11044200000000001,0.044064999999999986,0.399476,-0.039413,0.047562,-0.012009
16,0.16,-0.013552999999999996,-0.008365999999999998,0.2771,-0.017044,0.046494,-0.005615
17,0.17,0.010320999999999999,-0.019252000000000002,0.19761800000000002,-0.0031889999999999987,0.051819000000000004,-0.007751000000000001
18,0.18,0.06526,-0.15721400000000002,0.046229999999999986,-0.001053,0.0401,-0.007751000000000001
19,0.19,0.112973,-0.138944,-0.050075,-0.0074459999999999995,0.015609999999999999,-0.001358
20,0.2,0.13084,-0.097985,-0.039827999999999995,-0.005325,-0.022751,0.007156
21,0.21,0.177748,-0.146085,-0.09881000000000001,-0.002121,-0.065353,0.015686000000000002
22,0.22,0.161998,-0.062014,-0.072421,-0.009583,-0.09197999999999999,0.018875
23,0.23,-0.027940999999999997,0.010401999999999998,-0.0007529999999999986,-0.026626999999999998,-0.049377,0.009293000000000001
24,0.24,-0.062287999999999996,0.120196,0.076416,-0.034088,-0.038727,0.005035
25,0.25,-0.097717,0.23144499999999998,0.21010900000000002,-0.039413,-0.027007999999999997,0.003967
26,0.26,-0.070964,0.30183000000000004,0.41115100000000004,-0.03302,-0.015288999999999999,0.0028989999999999997
27,0.27,-0.076464,0.29384099999999996,0.5262939999999999,-0.007446000000000001,-0.005707,0.005035
28,0.28,-0.045717,0.256196,0.541045,0.024506,-0.009964,0.006104
29,0.29,0.011847000000000009,0.11773399999999999,0.498992,0.046875,-0.005707,0.005035
30,0.3,-0.005304,-0.08839,0.384388,0.06605499999999999,0.008148,0.0028989999999999997
31,0.31,-0.073351,-0.13386800000000001,0.233393,0.07457000000000001,0.027327999999999998,-0.001358
32,0.32,-0.165231,-0.20981,0.12136199999999998,0.069244,0.046494,-0.00882
33,0.33,-0.132378,-0.195889,-0.009520999999999998,0.057526,0.047562,-0.009888
34,0.34,-0.142179,-0.10918499999999999,0.041479,0.043686,0.070999,-0.010956
35,0.35,-0.217637,-0.101741,-0.002808999999999999,0.019180000000000003,0.127457,-0.020538
36,0.36,-0.221538,-0.15601900000000002,-0.115576,0.007462000000000001,0.12213099999999999,-0.020538
37,0.37,-0.085001,-0.193909,-0.213358,-0.006377999999999997,0.065674,-0.008819999999999998
38,0.38,0.073107,-0.286727,-0.19404000000000002,-0.017044,0.025192,-0.002426
39,0.39,0.171045,-0.269403,-0.24030700000000002,-0.039413,-0.025939999999999998,-0.00029000000000000016
40,0.4,0.196894,-0.365174,-0.36290500000000003,-0.083084,-0.041916,-0.005615
41,0.41,0.317944,-1.126842,-0.919012,-0.142746,-0.036591000000000005,-0.014145
42,0.42,0.159191,-0.2616339999999999,-0.565771,-0.287613,-0.10476700000000001,-0.007751000000000001
43,0.43,0.068853,-0.30516800000000005,0.10588,-0.23754899999999998,-0.168686,0.006104
44,0.44,-0.053761,0.798353,0.192911,-0.23115500000000003,0.014542000000000003,-0.002426
45,0.45,-0.340977,1.095129,0.8693860000000001,-0.10438499999999999,-0.002502000000000004,-0.00029000000000000027
46,0.46,-0.21867899999999998,0.769588,0.7637470000000001,0.004271999999999998,-0.035522000000000005,0.0028989999999999997
47,0.47,-0.21387899999999999,0.421439,0.43776800000000005,0.0522,0.012405,0.003967
48,0.48,-0.667556,0.45338999999999996,0.601776,0.062851,0.052887,-0.006682999999999999
49,0.49,-0.18349400000000002,-0.41587799999999997,0.054799,0.070312,0.042236,-0.0013580000000000005
50,0.5,0.060072000000000014,-0.508426,-0.47649,0.042618,0.032654,0.002899
51,0.51,0.10549800000000001,-0.471287,-0.460503,-0.011718999999999995,0.006012,0.003967
52,0.52,0.30357199999999995,-0.347209,-0.40205100000000005,-0.062851,-0.047241000000000005,0.006104
53,0.53,0.245862,-0.258818,-0.222688,-0.10971099999999999,-0.07067899999999999,0.003967
54,0.54,0.18204,-0.167795,0.120618,-0.14060999999999998,-0.079208,0.001831
55,0.55,0.106545,0.031671,0.28254,-0.138474,-0.079208,-0.001358
56,0.56,0.058448,0.123176,0.472159,-0.11291500000000002,-0.055771,-0.004562
57,0.57,0.041631,0.133996,0.38787699999999997,-0.062851,-0.048309,-0.006683
58,0.58,-0.169711,0.15320599999999998,0.20493899999999998,-0.019165,-0.038727,-0.006683
59,0.59,-0.219694,0.158184,-0.023731,0.017044,-0.056839,-0.00029000000000000027
60,0.6,-0.247885,0.32775,0.447715,0.023438,-0.11009200000000001,0.009293000000000001
61,0.61,-0.029492,0.378421,0.492729,0.08416699999999999,-0.201706,0.022078999999999998
62,0.62,-0.13811600000000002,-0.15019100000000002,-0.5802200000000001,0.100143,-0.10476700000000001,0.019943000000000002
63,0.63,-0.171095,-0.42602299999999993,-0.9244600000000001,0.042618,-0.03447,0.021011000000000002
64,0.64,-0.002793999999999998,-0.237271,-0.6948439999999999,-0.023422,-0.044052,0.018875
65,0.65,-0.11290399999999999,-0.107899,-0.19716199999999998,-0.06604,-0.027007999999999997,0.007156
66,0.66,0.04980800000000002,-0.284622,-0.530674,-0.084152,-0.009964,-0.00028999999999999946
67,0.67,0.051106,-0.088853,-0.361842,-0.102264,-0.050446,-0.001358
68,0.68,0.097993,-0.019685,0.03143399999999999,-0.106522,-0.082397,-0.001358
69,0.69,0.033523000000000004,0.08226499999999999,0.232564,-0.08522,-0.106903,0.0007630000000000001
70,0.7,-0.034747,0.13985699999999998,0.196578,-0.04686,-0.129272,0.006104
71,0.71,-0.027075,0.065413,0.12761,-0.015975999999999997,-0.137787,0.012482
72,0.72,-0.069159,-0.0004149999999999987,0.097643,-0.001053,-0.130341,0.014618
73,0.73,-0.059650000000000016,-0.068373,-0.029701000000000005,0.013855000000000001,-0.139923,0.018875
74,0.74,-0.15557,-0.12178399999999999,-0.212821,0.020248,-0.131409,0.022078999999999998
75,0.75,-0.180581,-0.10878800000000001,-0.290614,0.006393000000000001,-0.12501500000000002,0.0242
76,0.76,-0.236844,-0.039042000000000014,-0.25595100000000004,-0.012772000000000002,-0.115417,0.028473000000000002
77,0.77,-0.23544299999999999,0.0023680000000000003,-0.173787,-0.021301,-0.101578,0.030594
78,0.78,-0.261937,0.063365,-0.074385,-0.025558,-0.093048,0.030594
79,0.79,-0.27771399999999996,0.042979,0.003852000000000001,-0.025558,-0.080276,0.029526
80,0.8,-0.193676,0.047092,0.091724,-0.027694999999999997,-0.076004,0.029526
81,0.81,-0.074016,0.045831000000000004,0.11986,-0.02449,-0.071747,0.029526
82,0.82,0.044989,0.025496,0.112125,-0.015976,-0.073883,0.026337
83,0.83,0.14649600000000002,0.053628999999999996,0.07942300000000001,-0.009583,-0.06749,0.0242
84,0.84,0.11658299999999999,0.066148,0.012526000000000002,-0.006378,-0.061096000000000004,0.022078999999999998
85,0.85,0.046197,0.11508900000000001,0.036325,0.004272,-0.058960000000000005,0.021011000000000002
86,0.86,-0.013836,0.013418000000000001,-0.007537,0.014922999999999999,-0.050446,0.021011000000000002
87,0.87,-0.0028539999999999998,-0.046799,-0.031752999999999997,0.020248,-0.048309,0.0242
88,0.88,-0.055425999999999996,-0.091889,-0.11040699999999999,0.015991,-0.053635,0.026337
89,0.89,-0.050617,-0.141649,-0.13381400000000002,0.009598,-0.061096000000000004,0.027405000000000002
90,0.9,-0.078325,-0.152447,-0.15321500000000002,-0.002121,-0.06855800000000001,0.030594
91,0.91,-0.019780000000000002,-0.139183,-0.141566,-0.018097,-0.073883,0.036987
92,0.92,0.027936000000000002,-0.082161,-0.081027,-0.028763,-0.077072,0.039124
93,0.93,0.076539,-0.013776999999999998,-0.0107,-0.039413,-0.073883,0.042312999999999996
94,0.94,0.079935,0.05756399999999999,0.095802,-0.041533999999999995,-0.07067899999999999,0.035919
95,0.95,0.055126999999999995,0.110904,0.11723199999999999,-0.037277,-0.061096000000000004,0.029526
96,0.96,0.034522000000000004,0.131604,0.113517,-0.028763,-0.042983999999999994,0.023148
97,0.97,-0.008941,0.102244,0.028520000000000007,-0.014908000000000001,-0.031265,0.014618
98,0.98,-0.095682,0.050967,-0.12372899999999999,-0.011719,-0.023804,0.012482
99,0.99,-0.104219,-0.060301,-0.192971,-0.012772,-0.016357,0.012482
100,1.0,-0.121573,-0.139621,-0.294184,-0.018097,-0.008896,0.008223999999999999
101,1.01,-0.125623,-0.203997,-0.338738,-0.028763,-0.0121,0.006104
102,1.02,-0.091821,-0.217193,-0.433104,-0.045807,-0.019547,0.005035
103,1.03,-0.12325799999999999,-0.15721300000000002,-0.394264,-0.063904,-0.021683,0.003967
104,1.04,-0.180096,-0.157687,-0.31109699999999996,-0.076691,-0.019547,-0.0034939999999999997
105,1.05,-0.234582,-0.13411800000000001,-0.24731199999999998,-0.089478,-0.017426,-0.014145
106,1.06,-0.222012,-0.16253199999999998,-0.185106,-0.094803,-0.004638999999999999,-0.024796000000000002
107,1.07,-0.325069,-0.07822,-0.172874,-0.096939,0.00708,-0.032257
108,1.08,-0.42332200000000003,0.048664,-0.219464,-0.087341,0.019867,-0.036514
109,1.09,-0.41772700000000007,0.129917,-0.30291599999999996,-0.086273,0.025192,-0.031188999999999998
110,1.1,-0.47608,0.15547,-0.346742,-0.088409,0.022003,-0.027999999999999997
111,1.11,-0.431596,0.096196,-0.276913,-0.088409,0.014542,-0.027999999999999997
112,1.12,-0.401623,0.016702,-0.251827,-0.084152,0.012405,-0.035446
113,1.13,-0.41660699999999995,-0.12113800000000001,-0.228589,-0.075623,0.009216,-0.046097000000000006
114,1.14,-0.482074,-0.207887,-0.28488,-0.064972,0.0070799999999999995,-0.055695
115,1.15,-0.549899,-0.23227399999999998,-0.35422600000000004,-0.061783000000000005,0.006012,-0.057816
116,1.16,-0.584531,-0.197992,-0.43018999999999996,-0.056458,0.0070799999999999995,-0.051422
117,1.17,-0.6558649999999999,-0.158401,-0.567902,-0.064972,0.012405,-0.040770999999999995
118,1.18,-0.682998,-0.0005560000000000008,-0.5927,-0.072433,0.020935,-0.026931999999999998
119,1.19,-0.74495,0.17484,-0.672029,-0.071365,0.037979,-0.012009
120,1.2,-0.799863,0.25850300000000004,-0.667798,-0.068176,0.04863,0.0028990000000000005
121,1.21,-0.7551899999999999,0.213533,-0.522051,-0.069229,0.050751,0.011429
122,1.22,-0.75226,0.088702,-0.361005,-0.059647000000000006,0.056090999999999995,0.022078999999999998
123,1.23,-0.681519,-0.0034770000000000014,-0.29149,-0.042602999999999995,0.060349,0.028473000000000002
124,1.24,-0.607009,-0.078579,-0.25309899999999996,-0.021301,0.060349,0.039124
125,1.25,-0.455086,-0.146852,-0.277173,0.0,0.049698,0.051895000000000004
126,1.26,-0.323162,-0.18141600000000002,-0.338319,0.014922999999999999,0.04863,0.063614
127,1.27,-0.152652,-0.20506,-0.410409,0.020248,0.045425,0.075333
128,1.28,-0.0002650000000000013,-0.236333,-0.561058,0.011719,0.0401,0.093445
129,1.29,0.20391800000000002,-0.20406400000000002,-0.68137,-0.002121,0.018799,0.116882
130,1.3,0.319537,-0.18018199999999998,-0.645457,-0.023422,-0.028076,0.13606300000000002
131,1.31,0.41572200000000004,-0.10670999999999999,-0.43726800000000005,-0.039413,-0.093048,0.156296
132,1.32,0.5183810000000001,-0.033793000000000004,-0.13456400000000002,-0.038345,-0.164429,0.179733
133,1.33,0.644904,0.039091,0.275652,-0.008514,-0.21875,0.195709
134,1.34,0.694519,0.09766699999999999,0.402351,0.05326800000000001,-0.245392,0.201035
135,1.35,0.677583,0.12933699999999998,0.271341,0.12677,-0.231537,0.202103
136,1.36,0.70423,0.102007,-0.183647,0.18429600000000002,-0.202774,0.201035
137,1.37,0.772443,0.03302999999999999,-0.650654,0.204544,-0.193192,0.197845
138,1.38,0.781183,-0.039331,-1.039556,0.177902,-0.203842,0.193588
139,1.39,0.7806310000000001,-0.045277,-1.294096,0.120377,-0.18573,0.191452
140,1.4,0.771904,-0.005337999999999996,-1.456033,0.045807,-0.139923,0.187195
141,1.41,0.711491,0.029488,-1.445735,-0.03302,-0.10051,0.186127
142,1.42,0.609867,0.099366,-1.228747,-0.10119600000000001,-0.084534,0.193588
143,1.43,0.599023,0.082979,-0.917056,-0.14060999999999998,-0.09197999999999999,0.195709
144,1.44,0.5925189999999999,0.073885,-0.670552,-0.138474,-0.088791,0.199982
145,1.45,0.481084,0.074414,-0.744637,-0.111847,-0.069611,0.195709
146,1.46,0.286981,0.0044379999999999975,-0.940634,-0.090546,-0.025939999999999998,0.179733
147,1.47,0.10143200000000001,-0.10596900000000001,-1.226367,-0.08201599999999999,0.043304,0.168015
148,1.48,0.0019219999999999999,-0.15469000000000002,-1.565108,-0.084152,0.13385,0.156296
149,1.49,-0.063787,-0.33960300000000004,-1.8424099999999999,-0.110779,0.21907,0.145645
150,1.5,0.03991,-0.42144499999999996,-1.8854819999999999,-0.164047,0.29577600000000004,0.13606300000000002
151,1.51,0.203631,-0.517587,-1.6492040000000001,-0.241806,0.324524,0.130737
152,1.52,0.466467,-0.62966,-1.20624,-0.313187,0.302155,0.130737
153,1.53,0.6850930000000001,-0.56397,-0.814814,-0.361115,0.247833,0.13179000000000002
154,1.54,1.048145,-0.372257,-0.684703,-0.38561999999999996,0.18391400000000002,0.133926
155,1.55,1.2594299999999998,-0.100267,-0.756942,-0.394135,0.118942,0.13179000000000002
156,1.56,1.362035,0.192689,-0.802433,-0.405853,0.05927999999999999,0.12646500000000002
157,1.57,1.32437,0.415655,-0.828181,-0.416519,0.034775,0.11581400000000001
158,1.58,1.115543,0.49115600000000004,-0.698364,-0.409058,0.033707,0.1073
159,1.59,0.9402739999999999,0.497953,-0.5715600000000001,-0.376038,0.033707,0.100906
160,1.6,0.8701129999999999,0.631364,-0.530618,-0.33342,0.022003,0.108368
161,1.61,0.935801,0.651172,-0.50195,-0.296143,0.004959000000000001,0.123276
162,1.62,1.0560770000000002,0.48168,-0.462149,-0.24819899999999998,-0.018478,0.13606300000000002
163,1.63,1.13537,-0.03251100000000001,-0.49397399999999997,-0.203461,-0.056839,0.149902
164,1.64,1.1045260000000001,-0.47836000000000006,-0.609262,-0.170441,-0.11009200000000001,0.155228
165,1.65,1.017628,-0.9261790000000001,-0.708051,-0.160843,-0.145248,0.146713
166,1.66,1.062471,-1.216964,-0.9983780000000001,-0.15019200000000002,-0.16336099999999998,0.137131
167,1.67,1.019414,-1.178654,-1.370132,-0.154449,-0.164429,0.1073
168,1.68,0.210828,-0.667578,-1.623713,-0.178955,-0.139923,0.027405000000000002
169,1.69,-0.172645,-0.8108310000000001,-1.744377,-0.221573,-0.04512,-0.030121
170,1.7,-0.546952,-0.751525,-1.692257,-0.247131,0.016663000000000004,-0.07486
171,1.71,-0.45788500000000004,-0.425428,-1.6775830000000003,-0.25459299999999996,0.079514,-0.092972
172,1.72,-0.378706,-0.116543,-1.518738,-0.268433,0.159409,-0.121735
173,1.73,-0.04282999999999998,0.060596000000000004,-1.321437,-0.276962,0.23397800000000002,-0.122803
174,1.74,0.3865160000000001,0.18073599999999998,-1.040526,-0.265244,0.272339,-0.129196
175,1.75,0.515335,0.072654,-0.828515,-0.229019,0.302155,-0.150497
176,1.76,0.712316,0.021136000000000002,-0.8183159999999999,-0.186417,0.351166,-0.188843
177,1.77,0.703294,-0.043430999999999984,-0.9343549999999999,-0.15125999999999998,0.372467,-0.226135
178,1.78,0.643183,-0.266491,-0.92394,-0.11824000000000001,0.387375,-0.262344
179,1.79,0.34713,-0.38237600000000005,-0.9994850000000001,-0.08522,0.405487,-0.280457
180,1.8,0.29031999999999997,-0.41678999999999994,-1.226002,-0.067108,0.40869099999999997,-0.274063
181,1.81,0.17388299999999998,-0.032472,-1.5623770000000001,-0.080948,0.395905,-0.239975
182,1.82,0.20908200000000002,0.154396,-1.776748,-0.122498,0.38205,-0.193115
183,1.83,0.415156,0.432987,-1.7345540000000002,-0.167236,0.390579,-0.144104
184,1.84,0.9242360000000001,0.9551379999999999,-1.558756,-0.175766,0.38205,-0.104691
185,1.85,1.279493,1.548877,-1.442053,-0.131027,0.351166,-0.10043300000000001
186,1.86,1.3727770000000001,1.964379,-1.3795950000000001,-0.06604,0.328796,-0.118546
187,1.87,1.4787549999999998,2.249305,-1.41076,-0.020233,0.34584000000000004,-0.147308
188,1.88,1.188606,2.254121,-1.445119,-0.004257,0.362885,-0.17286700000000002
189,1.89,1.200473,2.375466,-1.4095540000000002,-0.019165,0.365005,-0.17286700000000002
190,1.9,1.103357,2.588866,-1.156574,-0.054321,0.34584000000000004,-0.151566
191,1.91,1.339753,2.912931,-0.7493489999999999,-0.102264,0.318146,-0.10255399999999999
192,1.92,1.385218,2.863424,-0.12587700000000002,-0.148071,0.262741,-0.047165
193,1.93,1.6778560000000002,2.668384,0.567612,-0.16297899999999998,0.214813,0.011428999999999998
194,1.94,1.8304580000000001,2.1090169999999997,1.046327,-0.14060999999999998,0.17219500000000001,0.036987
195,1.95,1.916866,0.9765379999999999,1.477392,-0.070297,0.123199,0.016753999999999998
196,1.96,1.558993,-0.08667600000000003,1.54776,0.055404999999999996,0.083786,-0.049301
197,1.97,0.8286979999999999,-1.083068,1.094067,0.192825,0.07739299999999999,-0.114273
198,1.98,0.07787699999999997,-1.794089,0.17347099999999993,0.276978,0.0923,-0.161148
199,1.99,-0.6266039999999999,-2.194293,-0.6505,0.291885,0.130646,-0.18565399999999999
200,2.0,-1.217183,-2.4557700000000002,-0.949493,0.24607800000000002,0.205215,-0.180328
201,2.01,-1.411027,-2.25351,-0.745478,0.14913900000000002,0.310684,-0.165405
202,2.02,-1.459701,-1.8019939999999999,-0.26000700000000004,0.043686,0.403366,-0.16860999999999998
203,2.03,-1.531648,-1.2287489999999999,0.246993,-0.044739,0.463013,-0.183517
204,2.04,-1.56155,-0.675858,0.713443,-0.090546,0.487518,-0.209091
205,2.05,-1.500974,-0.332937,1.012678,-0.08522,0.470474,-0.222931
206,2.06,-1.309968,-0.305779,1.117201,-0.041533999999999995,0.43425,-0.21653699999999998
207,2.07,-0.9816600000000001,-0.288892,0.909618,0.0010679999999999995,0.38311799999999996,-0.196304
208,2.08,-0.4943770000000001,-0.350302,0.30248400000000003,0.037292,0.278717,-0.16328399999999998
209,2.09,0.10160999999999998,-0.283555,-0.315322,0.038361,0.12213100000000003,-0.12493900000000001
210,2.1,0.7400770000000001,-0.126927,-0.46047299999999997,-0.0031890000000000013,-0.061096000000000004,-0.10043300000000001
211,2.11,0.9540690000000001,0.276353,-0.139259,-0.047928,-0.232605,-0.099365
212,2.12,1.01281,0.6774279999999999,0.381155,-0.075623,-0.356171,-0.129196
213,2.13,0.6982659999999999,0.861575,0.880382,-0.063904,-0.41050699999999996,-0.17926
214,2.14,0.339422,0.726298,1.096525,-0.008514,-0.407303,-0.23465
215,2.15,-0.189032,0.397762,0.874381,0.062851,-0.372147,-0.288986
216,2.16,-0.747218,-0.025428999999999983,0.42223900000000003,0.124649,-0.335938,-0.327332
217,2.17,-1.302944,-0.439972,-0.021256,0.14913900000000002,-0.29331999999999997,-0.34544400000000003
218,2.18,-1.733955,-0.5839479999999999,-0.48948400000000003,0.14488199999999998,-0.23793000000000003,-0.34970100000000004
219,2.19,-1.9979049999999998,-0.628051,-0.868928,0.10546900000000001,-0.191055,-0.34863299999999997
220,2.2,-2.036972,-0.569481,-1.101975,0.046875,-0.164429,-0.34970100000000004
221,2.21,-1.620399,-0.441003,-0.985419,-0.05218500000000001,-0.156967,-0.347565
222,2.22,-1.260219,-0.433187,-0.6683859999999999,-0.087341,-0.156967,-0.34118699999999996
223,2.23,-0.958673,-0.461025,-0.35485900000000004,-0.093735,-0.15270999999999998,-0.3284
224,2.24,-0.6386569999999999,-0.538904,-0.22525100000000003,-0.071365,-0.147385,-0.310287
225,2.25,-0.414446,-0.6291869999999999,-0.21248899999999998,-0.031952,-0.151642,-0.28471399999999997
226,2.26,-0.280287,-0.806597,-0.367154,0.009598,-0.179337,-0.254898
227,2.27,-0.237783,-1.0398120000000002,-0.544277,0.034088,-0.216629,-0.228256
228,2.28,-0.286693,-1.307634,-0.747336,0.040482,-0.2603,-0.200562
229,2.29,-0.40186900000000003,-1.518565,-0.865986,0.034088,-0.30503800000000003,-0.17286700000000002
230,2.3,-0.538914,-1.635086,-0.937825,0.019180000000000003,-0.34019499999999997,-0.144104
231,2.31,-0.717934,-1.6991630000000002,-1.0257129999999999,0.017044,-0.362564,-0.117477
232,2.32,-0.9473799999999999,-1.583952,-1.227211,0.029831,-0.374283,-0.083389
233,2.33,-1.0481,-1.418915,-1.5906790000000002,0.047943,-0.37535100000000005,-0.042908
234,2.34,-1.049036,-1.251369,-1.844409,0.06072999999999999,-0.380676,-0.003494000000000001
235,2.35,-0.831382,-1.057384,-1.885589,0.07989500000000001,-0.39878800000000003,0.033798
236,2.36,-0.48756000000000005,-0.819825,-1.894047,0.109726,-0.421158,0.064682
237,2.37,-0.182473,-0.542926,-1.870486,0.14488199999999998,-0.43820200000000004,0.092377
238,2.38,0.06114600000000001,-0.294937,-1.9444720000000002,0.177902,-0.462692,0.119019
239,2.39,0.023423,-0.08283099999999999,-2.1713169999999997,0.204544,-0.495728,0.143509
240,2.4,0.046639,0.08813,-2.1000330000000003,0.20134000000000002,-0.519165,0.168015
241,2.41,-0.084824,0.228395,-1.778621,0.177902,-0.525543,0.18187
242,2.42,-0.342631,0.531552,-1.494637,0.15446500000000002,-0.519165,0.172272
243,2.43,-0.886576,0.996525,-1.392968,0.143814,-0.49678,0.145645
244,2.44,-1.391017,1.527339,-1.444451,0.129974,-0.43499799999999994,0.100906
245,2.45,-1.862768,2.1463919999999996,-1.6118649999999999,0.119324,-0.34552,0.044449
246,2.46,-1.959312,2.713017,-2.0172209999999997,0.143814,-0.27948,0.002898999999999999
247,2.47,-1.4783030000000001,3.082046,-2.505634,0.209869,-0.278412,-0.023727
248,2.48,-0.758618,3.087956,-3.024127,0.300415,-0.34552,-0.045044
249,2.49,-0.04226999999999997,3.034738,-3.331854,0.36645500000000003,-0.48719799999999996,-0.059952
250,2.5,0.669117,3.088761,-3.223214,0.330246,-0.672562,-0.07699600000000001
251,2.51,1.033398,3.306508,-2.186091,0.096939,-0.77269,-0.11534100000000001
252,2.52,0.3328,3.3507599999999997,0.0054510000000000955,-0.22264100000000006,-0.740738,-0.17286700000000002
253,2.53,-0.671439,2.8872,2.713685,-0.31851199999999996,-0.641663,-0.230392
254,2.54,-1.510325,1.956641,4.604155,-0.23968499999999998,-0.403046,-0.277267
255,2.55,-2.172454,1.218318,5.237893,-0.134216,-0.062164,-0.304962
256,2.56,-2.362158,0.46261899999999995,5.016275,-0.027695,0.176453,-0.307098
257,2.57,-1.611632,-0.15682999999999994,4.164562999999999,0.046875,0.27446,-0.299637
258,2.58,-0.6601430000000001,-0.772928,3.3791830000000003,0.062851,0.270203,-0.28578200000000004
259,2.59,0.11334699999999998,-1.122113,2.9863720000000002,0.070312,0.215881,-0.258087
260,2.6,0.95854,-1.163513,2.604916,0.124649,0.169006,-0.181396
261,2.61,1.74752,-1.019204,1.757193,0.20666500000000002,0.134918,-0.07486
262,2.62,2.356046,-0.748351,0.5415319999999999,0.265259,0.088043,0.027405000000000002
263,2.63,2.603339,-0.583904,-0.258833,0.237564,0.016662999999999997,0.101974
264,2.64,2.1796729999999997,-0.550016,-0.46558999999999995,0.15020799999999998,-0.06323200000000001,0.148834
265,2.65,1.000486,-0.604522,-0.158332,0.059662,-0.106903,0.18187
266,2.66,-0.28723600000000005,-0.747684,0.309566,-0.013840000000000002,-0.097321,0.238327
267,2.67,-1.5406469999999999,-0.728002,0.591413,-0.074554,-0.0121,0.29158
268,2.68,-2.594343,-0.793545,0.8376899999999999,-0.128891,0.12106300000000002,0.340591
269,2.69,-3.146564,-0.668823,1.162005,-0.153397,0.261673,0.38000500000000004
270,2.7,-2.9497400000000003,-0.636841,1.516717,-0.139542,0.38205,0.41195699999999996
271,2.71,-2.229005,-0.6981,1.81181,-0.088409,0.503494,0.41516099999999995
272,2.72,-1.072323,-0.771682,1.743857,-0.010651000000000008,0.630264,0.40451
273,2.73,0.173954,-0.8523620000000001,1.354422,0.068176,0.7314609999999999,0.388519
274,2.74,1.382878,-0.855816,0.740205,0.127838,0.801773,0.386398
275,2.75,2.552922,-1.040742,0.03459499999999999,0.153412,0.813492,0.39172399999999996
276,2.76,3.29929,-1.272238,-0.464343,0.143814,0.761292,0.39172399999999996
277,2.77,3.6467680000000002,-1.610428,-0.799059,0.123581,0.65477,0.38000500000000004
278,2.78,3.476258,-1.82876,-1.079582,0.090561,0.521606,0.353378
279,2.79,2.9853650000000003,-2.139681,-1.122342,0.044754,0.379929,0.30862399999999995
280,2.8,2.118725,-2.3464150000000004,-0.944315,-0.023422,0.254227,0.25216700000000003
281,2.81,1.2950959999999998,-2.463083,-0.733169,-0.080948,0.145569,0.209564
282,2.82,0.8727959999999999,-2.372764,-0.583469,-0.11503599999999999,0.07206699999999999,0.18187
283,2.83,0.760918,-2.1411119999999997,-0.730006,-0.125702,0.035843,0.165878
284,2.84,0.827507,-1.8103029999999998,-1.017811,-0.14060999999999998,0.013474000000000002,0.152039
285,2.85,0.906487,-1.49464,-1.240702,-0.160843,-0.028076000000000004,0.138184
286,2.86,1.123621,-1.169593,-1.164258,-0.17363,-0.084534,0.12753299999999998
287,2.87,1.212708,-0.8275299999999999,-1.000154,-0.170441,-0.12181099999999999,0.099838
288,2.88,1.118316,-0.5744,-0.784402,-0.15551800000000002,-0.107971,0.058289
289,2.89,0.745788,-0.46316199999999996,-0.71462,-0.126755,-0.044052,0.008224000000000002
290,2.9,0.23917399999999997,-0.365699,-0.737966,-0.093735,0.044373,-0.042908
291,2.91,-0.319805,-0.267676,-0.836958,-0.045807,0.13810699999999998,-0.088715
292,2.92,-0.740239,-0.15474100000000002,-1.150113,0.017044000000000004,0.22225999999999999,-0.114273
293,2.93,-1.127612,-0.130647,-1.6375170000000001,0.054337,0.288315,-0.116409
294,2.94,-1.337437,-0.08859500000000001,-1.8594,0.040482,0.35328699999999996,-0.10575899999999999
295,2.95,-1.411938,0.089725,-1.546549,-0.002120999999999998,0.439575,-0.11108399999999999
296,2.96,-0.961966,0.5610069999999999,-1.024604,-0.03302,0.5578310000000001,-0.117477
297,2.97,-0.11444500000000002,1.335238,-0.797293,-0.040466,0.662216,-0.112152
298,2.98,0.855318,2.105229,-1.028226,-0.025558,0.716553,-0.071671
299,2.99,1.846928,2.696073,-1.483364,-0.001053,0.7272029999999999,-0.007751000000000002
300,3.0,2.83616,2.999464,-2.0836349999999997,0.054337,0.669678,0.062561
301,3.01,3.14892,3.1397619999999997,-2.603982,0.12144500000000001,0.551437,0.12114000000000001
302,3.02,2.582521,3.144313,-2.817647,0.177902,0.437454,0.166946
303,3.03,1.59772,3.3318190000000003,-2.603944,0.21092199999999997,0.343704,0.20742800000000003
304,3.04,0.9059790000000001,4.073846,-1.392177,-0.133148,0.280853,0.268158
305,3.05,1.618873,4.543991,0.598982,-0.529434,0.363953,0.262817
306,3.06,1.6129280000000001,4.307449,3.017292,-0.622101,0.262741,0.22235100000000002
307,3.07,1.234989,3.7628800000000004,4.8045860000000005,-0.51239,-0.002502000000000004,0.23086500000000001
308,3.08,0.732024,2.9317450000000003,5.818576999999999,-0.411179,-0.243256,0.238327
309,3.09,0.08300600000000002,2.15805,6.328707,-0.30998200000000004,-0.28160100000000005,0.245773
310,3.1,-0.32160500000000003,1.050163,5.944654,-0.156586,-0.18573,0.250046
311,3.11,-0.7390979999999999,0.05174600000000002,4.914576,0.02771000000000001,-0.06323200000000001,0.231934
312,3.12,-1.497226,-0.745892,3.306603,0.216263,0.008147999999999999,0.17866500000000002
313,3.13,-2.098906,-1.180788,1.7423060000000001,0.374985,0.049698,0.106232
314,3.14,-2.29319,-1.233255,0.16304299999999994,0.463394,0.070999,0.016754
315,3.15,-2.113039,-1.270885,-0.994098,0.463394,0.083786,-0.088715
316,3.16,-1.5614709999999998,-1.197565,-1.498652,0.372849,0.084839,-0.18565399999999999
317,3.17,-0.63876,-1.11956,-1.465889,0.24075300000000002,0.074188,-0.25383
318,3.18,0.5329039999999999,-1.045703,-1.017028,0.10228,0.028381,-0.30282600000000004
319,3.19,1.727582,-0.5717909999999999,-0.4742620000000001,-0.019165,-0.079208,-0.359283
320,3.2,2.588146,-0.66288,0.350073,-0.097992,-0.24964899999999998,-0.40936300000000003
321,3.21,3.048429,-0.830276,0.9898129999999999,-0.121429,-0.45417799999999997,-0.44984399999999997
322,3.22,2.676009,-0.8347549999999999,1.4862879999999998,-0.10865799999999999,-0.652313,-0.480728
323,3.23,2.056425,-0.812284,1.79945,-0.08201599999999999,-0.8238219999999999,-0.481796
324,3.24,1.37638,-0.8525440000000001,1.9325139999999998,-0.038345,-0.9314120000000001,-0.481796
325,3.25,0.5282789999999999,-1.057015,1.8364639999999999,0.020248,-0.9782870000000001,-0.482864
326,3.26,-0.40584499999999996,-1.222119,1.327037,0.08949299999999999,-0.9963989999999999,-0.478592
327,3.27,-1.269751,-1.423799,0.6151439999999999,0.133163,-1.012375,-0.48498500000000005
328,3.28,-1.943468,-1.643354,-0.02295399999999997,0.127838,-1.024094,-0.48605299999999996
329,3.29,-2.46506,-1.741868,-0.293581,0.08522,-0.9900049999999999,-0.481796
330,3.3,-2.78203,-1.742952,-0.379432,0.030899,-0.9101100000000001,-0.47433500000000006
331,3.31,-2.9470959999999997,-1.864897,-0.229777,-0.012772,-0.806778,-0.45516999999999996
332,3.32,-2.808482,-1.944953,-0.109648,-0.039413,-0.709839,-0.41894499999999996
333,3.33,-2.426679,-2.009584,0.108112,-0.056458,-0.606506,-0.364609
334,3.34,-1.885951,-2.19223,0.180747,-0.047928,-0.514893,-0.30282600000000004
335,3.35,-1.403065,-2.3832150000000003,0.126648,-0.013839999999999998,-0.44459499999999996,-0.23465
336,3.36,-0.955393,-2.479443,-0.100297,0.019180000000000003,-0.39771999999999996,-0.169678
337,3.37,-0.7514460000000001,-2.4171270000000002,-0.353889,0.053267999999999996,-0.368958,-0.116409
338,3.38,-0.8534299999999999,-2.313934,-0.731372,0.094818,-0.361496,-0.067413
339,3.39,-1.1686860000000001,-2.174019,-1.042047,0.12251300000000001,-0.35191300000000003,-0.020538
340,3.4,-1.375037,-2.026141,-1.255179,0.13636800000000002,-0.34552,0.039124
341,3.41,-1.346922,-1.849954,-1.251853,0.13742100000000002,-0.337006,0.10409500000000001
342,3.42,-1.15395,-1.6891580000000002,-1.25671,0.14913900000000002,-0.35191300000000003,0.16908299999999998
343,3.43,-0.866999,-1.4803979999999999,-1.429722,0.181107,-0.394516,0.23725900000000003
344,3.44,-0.61088,-1.0809540000000002,-1.677619,0.21519499999999997,-0.448853,0.296921
345,3.45,-0.29236100000000004,-0.7475310000000001,-1.831272,0.23117100000000002,-0.473358,0.331009
346,3.46,-0.029422000000000007,-0.34366199999999997,-1.708348,0.22796599999999997,-0.484009,0.335266
347,3.47,0.012082999999999995,0.132225,-1.472764,0.207733,-0.498917,0.312897
348,3.48,-0.290512,0.832334,-1.118965,0.155533,-0.514893,0.256439
349,3.49,-1.08571,1.53665,-0.589482,0.07989500000000001,-0.49678,0.186127
350,3.5,-1.865673,2.4309380000000003,-0.27164,0.038361,-0.425415,0.10516400000000001
351,3.51,-2.2849720000000002,3.460264,-0.46468400000000004,0.083099,-0.339127,0.025269
352,3.52,-2.134382,4.307551999999999,-1.025357,0.204544,-0.24644499999999997,-0.045044
353,3.53,-1.46937,4.583867,-1.780046,0.36113,-0.174011,-0.114273
354,3.54,-0.5489609999999999,4.54902,-2.4061630000000003,0.509201,-0.226212,-0.155823
355,3.55,0.135113,4.525469,-2.510668,0.594421,-0.43499799999999994,-0.147308
356,3.56,0.735351,4.66363,-1.2216690000000001,0.439957,-0.603317,-0.107895
357,3.57,0.422969,4.5449779999999995,1.033495,0.07670600000000002,-0.528748,-0.152634
358,3.58,-0.690419,3.2278119999999997,3.199719,-0.08201599999999999,-0.425415,-0.25383
359,3.59,-1.473873,1.7282419999999998,4.450081,-0.10865799999999999,-0.240067,-0.353958
360,3.6,-2.2418259999999997,0.52178,5.1505980000000005,-0.127823,0.07418799999999999,-0.43917799999999996
361,3.61,-2.655535,0.000324999999999992,5.591024,-0.074554,0.394836,-0.45410200000000006
362,3.62,-1.9163880000000002,0.105273,5.259192,0.021317,0.604691,-0.415756
363,3.63,-0.494163,0.401237,4.3853860000000005,0.119324,0.703766,-0.357162
364,3.64,0.624321,0.44039399999999995,3.507622,0.213058,0.76236,-0.303894
365,3.65,1.54955,0.541636,2.009941,0.311066,0.770874,-0.214417
366,3.66,2.091972,0.50221,0.48534700000000003,0.345154,0.7314609999999999,-0.09829700000000001
367,3.67,2.393725,0.391625,-0.37194299999999997,0.303604,0.682465,0.025268999999999996
368,3.68,2.011199,0.05807499999999996,-0.42243400000000003,0.224777,0.615341,0.141388
369,3.69,1.149297,-0.397862,-0.173823,0.139557,0.535446,0.243652
370,3.7,0.08009999999999995,-0.935992,0.302689,0.083099,0.428925,0.360825
371,3.71,-1.000911,-1.286972,0.7366090000000001,0.063919,0.34584000000000004,0.46841400000000005
372,3.72,-1.793245,-1.78863,0.8875780000000001,0.07457000000000001,0.34903,0.533401
373,3.73,-2.2386220000000003,-2.0014,0.842409,0.088425,0.384186,0.564301
374,3.74,-2.103133,-2.393199,0.9323959999999999,0.086288,0.45449799999999996,0.570679
375,3.75,-1.6858990000000003,-2.5602650000000002,1.100031,0.077774,0.583389,0.5440520000000001
376,3.76,-0.796502,-2.553993,1.135458,0.076706,0.744247,0.521683
377,3.77,0.11245200000000004,-2.356974,0.748276,0.08522,0.900833,0.49717700000000004
378,3.78,1.158864,-2.273241,0.19431199999999998,0.07457000000000001,1.0126950000000001,0.47268699999999997
379,3.79,2.193975,-2.247486,-0.31242000000000003,0.045807,1.053177,0.4599
380,3.8,2.958981,-2.197269,-0.536402,-0.009582999999999998,1.028671,0.429001
381,3.81,3.174178,-2.171847,-0.5683060000000001,-0.069229,0.967957,0.37893699999999997
382,3.82,3.018748,-2.087516,-0.45995,-0.124634,0.8720700000000001,0.324615
383,3.83,2.438971,-1.9868970000000001,-0.350878,-0.166168,0.766617,0.268158
384,3.84,1.6185040000000002,-1.7869830000000002,-0.278341,-0.203461,0.657959,0.22447199999999998
385,3.85,0.9725090000000001,-1.523224,-0.139233,-0.221573,0.569534,0.188263
386,3.86,0.5908680000000001,-1.268525,-0.18897,-0.2173,0.509888,0.168015
387,3.87,0.496996,-1.129167,-0.359131,-0.20239300000000002,0.457687,0.15097
388,3.88,0.705522,-1.097115,-0.627405,-0.186417,0.439575,0.134995
389,3.89,1.007466,-1.03472,-0.837899,-0.169373,0.429993,0.113693
390,3.9,1.296524,-0.933739,-1.002594,-0.144867,0.405487,0.082794
391,3.91,1.435408,-0.683191,-1.085388,-0.110779,0.363953,0.049774
392,3.92,1.416295,-0.279357,-1.035201,-0.064972,0.33624299999999996,0.011428999999999998
393,3.93,1.365075,0.07302700000000002,-1.158534,-0.010651000000000004,0.329865,-0.034378
394,3.94,1.145022,0.147642,-1.444577,0.042618,0.32666,-0.084457
395,3.95,0.6528470000000001,-0.08223899999999999,-1.6552069999999999,0.063919,0.334122,-0.12066700000000001
396,3.96,0.147826,-0.560238,-1.640512,0.043686,0.375656,-0.13877899999999999
397,3.97,-0.279384,-0.886567,-1.285097,-0.024490000000000005,0.5237430000000001,-0.16860999999999998
398,3.98,-0.385154,-0.7458670000000001,-0.835407,-0.11398299999999999,0.711227,-0.228256
399,3.99,-0.165707,0.08185300000000001,-0.730434,-0.203461,0.834793,-0.264481
400,4.0,0.510364,1.016229,-0.783365,-0.250336,0.823074,-0.24636799999999998
401,4.01,1.318682,1.9231040000000001,-1.065315,-0.220505,0.70163,-0.169678
402,4.02,2.250317,2.773334,-1.547117,-0.122498,0.5556949999999999,-0.048233
403,4.03,2.5660849999999997,3.369396,-2.152047,-0.004257000000000004,0.370331,0.08065800000000001
404,4.04,2.0376790000000002,3.7174769999999997,-2.633771,0.070312,0.248901,0.21168499999999998
405,4.05,0.8636450000000001,3.880201,-2.6500939999999997,0.06605499999999999,0.193497,0.329941
406,4.06,0.330563,3.967314,-1.677591,-0.110779,0.107224,0.406631
407,4.07,0.14775,3.968253,0.4484280000000001,-0.324905,0.104019,0.38000500000000004
408,4.08,0.154121,3.806589,2.644362,-0.39946,0.09443700000000001,0.318222
409,4.09,-0.148431,3.574879,4.096032,-0.35578899999999997,-0.036591000000000005,0.302246
410,4.1,-0.309703,3.4373970000000003,5.199582,-0.34407,-0.19426,0.340591
411,4.11,-0.18900999999999998,3.566158,5.975023,-0.358994,-0.193192,0.39279200000000003
412,4.12,-0.260682,3.079659,6.562436,-0.297195,-0.129272,0.42048599999999997
413,4.13,-0.20633,2.047818,6.387951,-0.110779,-0.06642200000000001,0.416229
414,4.14,-0.550578,0.9620219999999999,4.888419,0.16406199999999999,-0.051514,0.338455
415,4.15,-1.191202,0.13130899999999998,2.549269,0.406937,-0.088791,0.21914699999999998
416,4.16,-1.330134,-0.47815100000000005,0.2674860000000001,0.5198520000000001,-0.160172,0.096649
417,4.17,-1.434279,-0.805774,-1.033651,0.486832,-0.18040499999999998,-0.04716500000000001
418,4.18,-1.381591,-1.2011479999999999,-1.50001,0.373917,-0.105835,-0.187775
419,4.19,-0.86934,-1.423689,-1.561001,0.216263,-0.035522000000000005,-0.301773
420,4.2,-0.032415000000000034,-1.6665720000000002,-1.2448299999999999,0.023438,-0.033401,-0.393372
421,4.21,0.917007,-1.699586,-0.47111000000000003,-0.15019200000000002,-0.096252,-0.471146
422,4.22,1.7019919999999997,-1.8279459999999998,0.315884,-0.251389,-0.213425,-0.536118
423,4.23,2.449716,-2.0618119999999998,1.117834,-0.27803,-0.396652,-0.5371859999999999
424,4.24,2.799948,-2.060116,1.772301,-0.25245700000000004,-0.607574,-0.519073
425,4.25,2.510297,-1.7801049999999998,2.072588,-0.172562,-0.776947,-0.48605299999999996
426,4.26,1.8161060000000002,-1.377549,1.704991,-0.067108,-0.889877,-0.458359
427,4.27,0.896573,-1.3421,1.081204,0.017044000000000004,-0.9889370000000001,-0.426407
428,4.28,-0.7324679999999999,-1.251555,0.483825,0.071381,-1.047531,-0.44238299999999997
429,4.29,-2.2501,-1.24671,0.11723699999999998,0.08522,-1.02623,-0.453033
430,4.3,-3.441614,-1.536117,-0.07939600000000001,0.080963,-0.938873,-0.45622299999999993
431,4.31,-4.2968150000000005,-1.92668,-0.18027100000000001,0.045807,-0.7865449999999999,-0.45089700000000005
432,4.32,-4.547926,-2.356475,-0.0928,0.002135999999999999,-0.610779,-0.42746000000000006
433,4.33,-4.097279,-2.5154330000000003,-0.15371700000000002,-0.022369,-0.45311,-0.37846399999999997
434,4.34,-2.9840459999999998,-2.534414,-0.313425,-0.045807,-0.309296,-0.324142
435,4.35,-1.928942,-2.412134,-0.491882,-0.083084,-0.21875,-0.27301
436,4.36,-0.9787389999999999,-2.175183,-0.734615,-0.125702,-0.198517,-0.21548499999999998
437,4.37,-0.228689,-2.160908,-0.7935939999999999,-0.153397,-0.24644499999999997,-0.16328399999999998
438,4.38,0.34913,-2.0144610000000003,-0.9277559999999999,-0.148071,-0.32847600000000005,-0.116409
439,4.39,0.645392,-1.8049419999999998,-0.970399,-0.157654,-0.406235,-0.087646
440,4.4,0.540474,-1.487227,-0.963232,-0.165115,-0.45843500000000004,-0.08125299999999999
441,4.41,-0.07899699999999997,-1.250948,-0.9630270000000001,-0.170441,-0.47868299999999997,-0.07699600000000001
442,4.42,-0.79075,-0.959002,-0.837967,-0.167236,-0.484009,-0.053558
443,4.43,-1.227892,-0.577522,-0.8586469999999999,-0.138474,-0.489334,-0.009888
444,4.44,-1.178244,-0.287923,-0.955347,-0.084152,-0.514893,0.050842
445,4.45,-0.994091,0.181877,-1.201827,0.008529999999999996,-0.585205,0.125412
446,4.46,-0.628297,0.348118,-1.3237510000000001,0.10653699999999999,-0.6491239999999999,0.188263
447,4.47,-0.388938,0.231929,-1.2548549999999998,0.188553,-0.668289,0.22554000000000002
448,4.48,-0.197144,0.242733,-1.01884,0.23542800000000003,-0.643799,0.228729
449,4.49,-0.41661899999999996,0.43636899999999995,-0.847677,0.265259,-0.59906,0.202103
450,4.5,-1.182034,0.8804420000000001,-1.127532,0.264191,-0.553253,0.148834
451,4.51,-2.0646970000000002,1.238514,-1.520235,0.225845,-0.509567,0.087051
452,4.52,-2.743086,1.687704,-1.8234240000000002,0.17897000000000002,-0.44352700000000006,0.043381
453,4.53,-3.003351,2.374133,-2.1951810000000003,0.152344,-0.348709,0.009293000000000001
454,4.54,-2.7579830000000003,3.175241,-2.538417,0.166183,-0.245392,-0.020538
455,4.55,-2.0349150000000003,3.8948660000000004,-2.7858169999999998,0.22903400000000002,-0.192123,-0.063141
456,4.56,-1.230634,4.548828,-2.7254150000000004,0.317459,-0.236862,-0.112152
457,4.57,-0.096024,5.358988,-2.2695119999999998,0.337692,-0.355103,-0.144104
458,4.58,0.627893,6.217137,-0.9244879999999999,0.08522000000000003,-0.447784,-0.197372
459,4.59,0.012164000000000008,6.098725,2.1734459999999998,-0.250336,-0.46696499999999996,-0.293243
460,4.6,-0.5574,4.630741,5.131203,-0.365372,-0.22728,-0.41787700000000005
461,4.61,-1.532683,2.610763,6.557227,-0.32276900000000003,0.102951,-0.506302
462,4.62,-1.9186310000000002,0.54548,6.667934,-0.18321199999999999,0.356491,-0.499908
463,4.63,-1.70472,-1.1493229999999999,5.894483,0.004271999999999998,0.521606,-0.43917799999999996
464,4.64,-0.267401,-1.9853180000000001,4.309908,0.13209500000000002,0.583389,-0.366745
465,4.65,1.068949,-2.039764,2.821455,0.175781,0.566345,-0.297501
466,4.66,1.873998,-1.582627,1.907361,0.17897000000000002,0.524796,-0.213348
467,4.67,2.53012,-0.90815,0.9642540000000001,0.181107,0.463013,-0.121735
468,4.68,2.6092779999999998,-0.21518800000000002,0.006160999999999917,0.155533,0.39164699999999997,-0.035446
469,4.69,2.2965169999999997,0.233898,-0.534188,0.095886,0.31919899999999995,0.031662
470,4.7,1.289488,0.006069999999999992,-0.444338,0.026642000000000002,0.24569699999999997,0.081726
471,4.71,0.160227,-0.503153,0.122486,-0.03834499999999999,0.200958,0.142456
472,4.72,-0.8823620000000001,-0.8845129999999999,0.8201099999999999,-0.10971099999999999,0.24357600000000001,0.20530700000000002
473,4.73,-2.176012,-1.2619040000000001,1.459141,-0.158722,0.346909,0.271347
474,4.74,-3.224622,-1.190847,1.7195349999999998,-0.166168,0.506699,0.331009
475,4.75,-3.4101230000000005,-1.352894,1.813014,-0.133148,0.66861,0.39279200000000003
476,4.76,-3.016819,-1.368683,1.560347,-0.073502,0.830536,0.430069
477,4.77,-1.7578189999999998,-1.31561,1.280748,-0.026627,0.992447,0.44604499999999997
478,4.78,-0.41915,-1.2057309999999999,0.9867950000000001,0.018112,1.1074979999999999,0.44818100000000005
479,4.79,1.250138,-1.3063360000000002,0.764522,0.057526,1.1756739999999999,0.429001
480,4.8,2.7185900000000003,-1.521266,0.58158,0.101212,1.1778110000000002,0.399185
481,4.81,3.9310120000000004,-1.7755869999999998,0.08467999999999999,0.151276,1.136261,0.369354
482,4.82,4.614566,-2.273502,-0.452003,0.18429600000000002,1.0393219999999999,0.350174
483,4.83,4.7038269999999995,-2.5465430000000002,-1.07892,0.183228,0.891251,0.329941
484,4.84,4.188022,-2.773441,-1.550797,0.133163,0.7186739999999999,0.307571
485,4.85,3.2445779999999997,-2.93508,-1.8547759999999998,0.051132,0.545044,0.283066
486,4.86,2.103663,-2.799459,-1.86047,-0.036209,0.399094,0.25216700000000003
487,4.87,1.0508870000000001,-2.5071529999999997,-1.818356,-0.125702,0.303223,0.210632
488,4.88,0.28644800000000004,-2.183459,-1.595807,-0.208786,0.248901,0.166946
489,4.89,-0.15546899999999994,-1.992745,-1.259551,-0.28015100000000004,0.23611500000000002,0.129669
490,4.9,-0.302448,-1.878394,-0.8881620000000001,-0.315308,0.253159,0.093445
491,4.91,-0.071771,-1.7841,-0.604857,-0.31637600000000005,0.29364,0.06149299999999999
492,4.92,0.19377100000000005,-1.522227,-0.394304,-0.279099,0.334122,0.0242
493,4.93,0.509787,-1.144132,-0.333444,-0.21411100000000002,0.360748,-0.008819999999999998
494,4.94,0.687132,-0.78215,-0.301735,-0.133148,0.376724,-0.043976
495,4.95,0.7746890000000001,-0.359879,-0.569282,-0.043671,0.429993,-0.075928
496,4.96,0.74985,-0.135436,-1.158577,0.029831,0.498169,-0.10682699999999999
497,4.97,0.4964,-0.151918,-1.843406,0.067123,0.537582,-0.132385
498,4.98,-0.002049000000000023,-0.320168,-2.183366,0.047943,0.542908,-0.147308
499,4.99,-0.4394,-0.456784,-1.916059,-0.026627000000000005,0.5556949999999999,-0.16860999999999998
500,5.0,-0.34933200000000003,-0.222663,-1.345076,-0.126755,0.596176,-0.205887
501,5.01,0.412285,0.447783,-0.792734,-0.23115500000000003,0.639847,-0.21653699999999998
502,5.02,1.380825,1.276357,-0.36458,-0.28015100000000004,0.647308,-0.184586
503,5.03,2.381924,2.294236,-0.34962600000000005,-0.22796599999999997,0.619614,-0.11534100000000001
504,5.04,3.225532,3.375949,-0.995884,-0.088409,0.517349,-0.016280999999999997
505,5.05,3.254942,3.927972,-1.9355580000000001,0.07031199999999999,0.31919899999999995,0.08386200000000002
506,5.06,2.738117,4.699402,-2.803689,0.181107,0.112549,0.21702600000000002
507,5.07,1.754198,5.421501999999999,-2.980339,0.19601400000000002,-0.03447,0.32566799999999996
508,5.08,0.8543200000000001,5.932778,-1.614457,-0.02449,-0.095184,0.367218
509,5.09,0.699067,5.617093,1.209617,-0.33874499999999996,0.018799000000000003,0.320343
510,5.1,0.5470689999999999,4.973947,3.625021,-0.41863999999999996,0.025192,0.28093
511,5.11,-0.284602,3.864782,5.17499,-0.36964400000000003,-0.113297,0.311829
512,5.12,-0.759528,2.96352,6.65308,-0.365372,-0.20809899999999998,0.383194
513,5.13,-0.7757069999999999,2.35358,7.79017,-0.289749,-0.192123,0.4599
514,5.14,-0.6689069999999999,1.416442,7.487367,-0.073502,-0.11755399999999999,0.5003810000000001
515,5.15,-0.467222,0.671962,5.705854,0.224777,-0.10583499999999998,0.475876
516,5.16,-0.936574,0.19425499999999998,3.140062,0.49215699999999996,-0.178268,0.389587
517,5.17,-0.993451,-0.12021800000000002,0.736065,0.6263890000000001,-0.26455700000000004,0.285202
518,5.18,-0.8699100000000001,-0.272173,-0.853194,0.6103970000000001,-0.297577,0.141388
519,5.19,-0.727278,-0.437604,-1.5382280000000002,0.517731,-0.259232,-0.023727
520,5.2,-0.473891,-0.736034,-1.785352,0.396286,-0.189987,-0.17926
521,5.21,0.16283200000000006,-1.037825,-1.675532,0.22052,-0.122879,-0.293243
522,5.22,1.124898,-1.114407,-1.123164,0.028763,-0.09197999999999999,-0.384857
523,5.23,2.0353849999999998,-1.3383399999999999,-0.17392799999999994,-0.092667,-0.149506,-0.470078
524,5.24,2.475721,-1.803622,0.756786,-0.095871,-0.291199,-0.5212100000000001
525,5.25,2.329498,-2.141013,1.192231,-0.027694999999999997,-0.566025,-0.547836
526,5.26,1.9688860000000001,-2.063945,1.2472299999999998,0.022385,-0.759903,-0.5276029999999999
527,5.27,1.35607,-2.168429,1.1027559999999998,0.075638,-0.9420620000000001,-0.49777200000000005
528,5.28,0.660261,-2.214987,0.8556229999999999,0.096939,-1.080551,-0.47433500000000006
529,5.29,-0.269383,-2.338163,0.636583,0.068176,-1.1604459999999999,-0.457291
530,5.3,-1.238198,-2.534225,0.5176850000000001,0.024506,-1.2019959999999998,-0.44984399999999997
531,5.31,-2.005207,-2.555098,0.363453,-0.01384,-1.208389,-0.44238299999999997
532,5.32,-2.5668889999999998,-2.600695,0.23986100000000002,-0.052185,-1.172165,-0.42852799999999996
533,5.33,-2.657506,-2.495284,0.130227,-0.091599,-1.093338,-0.40509
534,5.34,-2.58263,-2.288919,0.10759300000000001,-0.10971099999999999,-0.9772190000000001,-0.366745
535,5.35,-2.3162580000000004,-1.8157619999999999,-0.064025,-0.100128,-0.8493959999999999,-0.312424
536,5.36,-1.954436,-1.382506,-0.33871599999999996,-0.075623,-0.727951,-0.24850500000000003
537,5.37,-1.569591,-1.069141,-0.511826,-0.050064,-0.629944,-0.189911
538,5.38,-1.224205,-1.112635,-0.608441,-0.020233,-0.560699,-0.148361
539,5.39,-0.985498,-1.265865,-0.767995,0.021317,-0.5202180000000001,-0.11108399999999999
540,5.4,-0.895274,-1.548993,-0.989885,0.038361,-0.498917,-0.095108
541,5.41,-0.8524450000000001,-1.9717669999999998,-1.108406,0.035156,-0.489334,-0.073792
542,5.42,-0.7837609999999999,-2.326521,-1.167615,0.009598000000000002,-0.48719799999999996,-0.049301
543,5.43,-0.595612,-2.4443040000000003,-1.056458,-0.028763,-0.49145500000000003,-0.012009
544,5.44,-0.297691,-2.08318,-0.961549,-0.050064,-0.511703,0.043381
545,5.45,-0.080234,-1.32029,-0.988964,-0.021301,-0.551117,0.109421
546,5.46,0.013231999999999999,-0.45307,-1.220348,0.043686,-0.6011810000000001,0.172272
547,5.47,0.014435,0.181285,-1.631104,0.119324,-0.636337,0.20530700000000002
548,5.48,0.14382,0.5769569999999999,-1.9370610000000001,0.160858,-0.653381,0.20742800000000003
549,5.49,0.155462,0.814561,-1.855298,0.169388,-0.6651,0.180801
550,5.5,-0.12154,1.07665,-1.461917,0.172577,-0.7055819999999999,0.143509
551,5.51,-0.7509140000000001,1.358447,-1.062282,0.169388,-0.732208,0.094513
552,5.52,-1.511961,1.5648,-0.714766,0.14913900000000002,-0.673615,0.038055
553,5.53,-2.202029,2.060986,-0.847642,0.13209500000000002,-0.529816,-0.035446
554,5.54,-2.5776630000000003,2.7182720000000002,-1.280122,0.10653699999999999,-0.380676,-0.11534100000000001
555,5.55,-2.260207,3.339818,-1.713686,0.110794,-0.275208,-0.182449
556,5.56,-1.244302,3.9687989999999997,-2.1941200000000003,0.182159,-0.24644499999999997,-0.22720300000000002
557,5.57,0.08289000000000002,4.920838,-2.423542,0.251404,-0.34126300000000004,-0.252762
558,5.58,0.9966020000000001,5.792717,-1.5089199999999998,0.100143,-0.414764,-0.276199
559,5.59,0.535974,6.004328,1.3527269999999998,-0.21092199999999997,-0.404114,-0.3284
560,5.6,-0.13024799999999995,4.818014,4.4324010000000005,-0.27803,-0.35405,-0.41362
561,5.61,-0.852168,3.207491,5.865687,-0.191742,-0.10476700000000001,-0.494583
562,5.62,-1.463068,1.524345,5.887434,-0.086273,0.188171,-0.546783
563,5.63,-1.775443,0.357205,5.502358,0.049011,0.318146,-0.542511
564,5.64,-0.903482,0.021803000000000017,4.641369,0.161926,0.32666,-0.49563599999999997
565,5.65,0.568988,0.16819800000000001,3.4842910000000002,0.21519499999999997,0.309616,-0.42852799999999996
566,5.66,1.569757,0.436658,2.447964,0.225845,0.31919899999999995,-0.34330700000000003
567,5.67,2.239887,0.6706479999999999,1.257881,0.22370900000000002,0.342636,-0.233582
568,5.68,2.488067,0.607382,0.323998,0.18429600000000002,0.36821,-0.117477
569,5.69,2.398272,0.07193700000000003,-0.10533299999999997,0.118256,0.35968,-0.017334000000000002
570,5.7,1.337758,-0.605884,-0.048466,0.054337,0.333054,0.082794
571,5.71,0.01151100000000016,-1.366585,0.317792,-0.008514,0.309616,0.18399000000000001
572,5.72,-1.0616290000000002,-2.077998,0.844255,-0.041533999999999995,0.267014,0.29904200000000003
573,5.73,-2.0464330000000004,-2.654525,1.174606,-0.055389,0.257416,0.399185
574,5.74,-3.050838,-2.7338709999999997,1.236538,-0.057510000000000006,0.310684,0.46841400000000005
575,5.75,-3.354022,-2.450345,1.13543,-0.056458,0.418274,0.5099640000000001
576,5.76,-3.1498,-2.126169,0.994323,-0.053252999999999995,0.537582,0.5121
577,5.77,-2.4460919999999997,-1.9267610000000002,0.7300840000000001,-0.060715,0.665421,0.506775
578,5.78,-1.0041719999999998,-1.52925,0.306129,-0.090546,0.776199,0.50145
579,5.79,0.739149,-1.341681,0.085746,-0.11503599999999999,0.8529049999999999,0.486526
580,5.8,2.4940599999999997,-1.29829,-0.020991,-0.11398299999999999,0.8880620000000001,0.45137
581,5.81,3.971457,-1.312094,-0.036132,-0.094803,0.884857,0.413025
582,5.82,4.937574,-1.390834,-0.08523,-0.053252999999999995,0.837982,0.37468
583,5.83,5.23219,-1.5392379999999999,-0.21283600000000003,-0.006377999999999997,0.7399899999999999,0.326736
584,5.84,4.795228,-1.8299759999999998,-0.46766,0.030899,0.59404,0.276672
585,5.85,3.8242589999999996,-2.164757,-0.68521,0.034088,0.426804,0.231934
586,5.86,2.654902,-2.346404,-0.9050229999999999,0.015991,0.258484,0.19252
587,5.87,1.7200790000000001,-2.3591189999999997,-1.093065,-0.020233,0.13278199999999998,0.160553
588,5.88,0.8290129999999999,-2.269776,-1.245192,-0.064972,0.055023,0.128601
589,5.89,0.29126199999999997,-2.189666,-1.411482,-0.10438499999999999,0.01561,0.101974
590,5.9,0.12016800000000001,-2.01539,-1.369858,-0.136353,0.0038909999999999995,0.081726
591,5.91,0.237023,-1.806973,-1.137689,-0.154449,0.030518,0.051895000000000004
592,5.92,0.42280100000000004,-1.4605549999999998,-0.897452,-0.143799,0.08590700000000001,0.022078999999999998
593,5.93,0.560211,-0.9902120000000001,-0.729697,-0.10545299999999999,0.165802,-0.013076999999999998
594,5.94,0.614306,-0.508737,-0.761087,-0.04686,0.265945,-0.062088
595,5.95,0.468106,-0.170369,-1.155165,0.018112000000000003,0.374603,-0.13026400000000002
596,5.96,0.099993,-0.16936500000000002,-1.593343,0.062851,0.42573500000000003,-0.184586
597,5.97,-0.359657,-0.42055699999999996,-1.7536439999999998,0.06605499999999999,0.439575,-0.22187800000000002
598,5.98,-0.6473369999999999,-0.542625,-1.4435639999999998,0.028763,0.4758,-0.247437
599,5.99,-0.493827,-0.30469,-1.012285,-0.041533999999999995,0.548233,-0.27301
600,6.0,0.22173100000000004,0.45192299999999996,-0.8348059999999999,-0.121429,0.620682,-0.280457
601,6.01,1.326085,1.438536,-1.091318,-0.161911,0.605759,-0.226135
602,6.02,2.387248,2.548409,-1.512325,-0.12356600000000001,0.513077,-0.12387100000000001
603,6.03,3.449235,3.526526,-2.008479,-0.03302,0.352234,-0.0024259999999999976
604,6.04,3.6847779999999997,3.9119910000000004,-2.368577,0.08096299999999998,0.17219500000000001,0.099838
605,6.05,2.675632,3.775258,-2.652793,0.177902,0.012405,0.190384
606,6.06,1.3309030000000002,3.751435,-2.857298,0.221588,-0.041916,0.263885
607,6.07,0.38092600000000004,3.7912980000000003,-2.230657,0.125702,-0.06749,0.303299
608,6.08,0.051108999999999995,3.755239,-0.368431,-0.092667,-0.025940000000000005,0.29478499999999996
609,6.09,0.146374,3.5178730000000002,1.7323970000000002,-0.270569,0.107224,0.26709
610,6.1,0.213983,2.906682,3.398818,-0.33342,0.10508699999999999,0.255371
611,6.11,-0.047994000000000016,2.546597,4.487976000000001,-0.354721,-0.062164,0.31608600000000003
612,6.12,-0.209064,2.326059,5.339032,-0.395203,-0.16761800000000002,0.423676
613,6.13,-0.14912899999999998,1.9802799999999998,6.150899,-0.36325100000000005,-0.23793000000000003,0.52594
614,6.14,0.016491,1.532614,6.218433999999999,-0.219437,-0.28373699999999996,0.594116
615,6.15,-0.328381,1.038137,5.572787,0.010665999999999995,-0.32847600000000005,0.571747
616,6.16,-0.897244,0.680395,4.260243,0.269516,-0.348709,0.478012
617,6.17,-1.041264,0.59604,2.45692,0.476181,-0.3647,0.340591
618,6.18,-0.9645379999999999,0.6380779999999999,0.7222789999999999,0.539032,-0.361496,0.164825
619,6.19,-0.682476,0.6945520000000001,-0.23650100000000002,0.490021,-0.349777,-0.009887999999999994
620,6.2,-0.07091799999999998,0.3540570000000001,-0.5825229999999999,0.38031,-0.292252,-0.154755
621,6.21,0.87445,-0.238298,-0.50705,0.25354,-0.243256,-0.274063
622,6.22,1.707166,-0.774729,-0.324042,0.156601,-0.250717,-0.383789
623,6.23,2.488793,-1.5415809999999999,-0.047228999999999965,0.094818,-0.316757,-0.470078
624,6.24,3.115196,-2.4456729999999998,0.281087,0.061798,-0.437134,-0.516953
625,6.25,3.1091159999999998,-2.878491,0.43570299999999995,0.054337,-0.584137,-0.5403899999999999
626,6.26,2.636448,-2.955701,0.43546,0.051132,-0.7396699999999999,-0.53186
627,6.27,1.883546,-2.926063,0.33579499999999995,0.045807,-0.8845370000000001,-0.5148159999999999
628,6.28,0.907964,-2.8950139999999998,0.044762,0.038361,-1.005981,-0.491379
629,6.29,-0.32832199999999995,-2.786708,-0.238998,0.0,-1.101852,-0.473267
630,6.3,-1.481544,-2.577456,-0.301225,-0.048996,-1.1551209999999998,-0.45942700000000003
631,6.31,-2.5515220000000003,-2.419323,-0.323445,-0.100128,-1.1551209999999998,-0.45410200000000006
632,6.32,-3.263034,-2.340775,-0.280778,-0.15979000000000002,-1.12529,-0.440247
633,6.33,-3.413061,-2.370259,-0.115632,-0.22583000000000003,-1.064575,-0.410416
634,6.34,-3.021818,-2.371325,0.042675,-0.27163699999999996,-0.9900049999999999,-0.366745
635,6.35,-2.44361,-2.305212,0.081649,-0.276962,-0.9111790000000001,-0.318817
636,6.36,-1.6569470000000002,-2.1183919999999996,-0.043756,-0.264175,-0.843002,-0.259155
637,6.37,-0.936573,-1.9067939999999999,-0.036189,-0.249268,-0.7833399999999999,-0.189911
638,6.38,-0.327773,-1.70815,-0.040554,-0.2173,-0.73114,-0.12387100000000001
639,6.39,-0.03795,-1.4247100000000001,-0.309254,-0.15979000000000002,-0.714096,-0.07486
640,6.4,0.12984600000000002,-1.320601,-0.5100180000000001,-0.117172,-0.708771,-0.045044
641,6.41,0.024747,-1.2705879999999998,-0.685461,-0.087341,-0.716232,-0.022659000000000002
642,6.42,-0.254443,-1.186625,-0.9596319999999999,-0.073502,-0.716232,-0.005615
643,6.43,-0.51518,-1.010265,-1.182642,-0.071365,-0.713043,0.0242
644,6.44,-0.7152310000000001,-0.599589,-1.31998,-0.060715,-0.722626,0.05935700000000001
645,6.45,-0.693125,-0.267671,-1.611559,-0.027694999999999997,-0.768433,0.10304300000000001
646,6.46,-0.52737,-0.12968,-1.9386430000000001,0.019180000000000003,-0.840866,0.157364
647,6.47,-0.10931800000000001,-0.053549,-2.241879,0.051132,-0.9111790000000001,0.198914
648,6.48,0.5466989999999999,-0.06531100000000001,-2.110121,0.024506,-0.944199,0.21702600000000002
649,6.49,0.9366979999999999,0.203248,-1.688695,-0.027694999999999997,-0.983612,0.20636
650,6.5,0.759496,1.023866,-1.0695780000000001,-0.051132,-1.060318,0.1595
651,6.51,-0.07578499999999999,1.8196169999999998,-0.640584,-0.045807,-1.1082459999999998,0.085983
652,6.52,-1.324565,2.440654,-0.177543,-0.015976000000000004,-1.069901,0.002898999999999999
653,6.53,-2.586068,3.078414,-0.16914500000000002,0.06605499999999999,-0.9175719999999999,-0.088715
654,6.54,-3.179954,3.473672,-0.608337,0.16832,-0.721558,-0.16860999999999998
655,6.55,-2.7433419999999997,3.6192900000000003,-1.288345,0.283371,-0.556442,-0.21867399999999998
656,6.56,-1.6831109999999998,3.826854,-1.83034,0.389893,-0.5084989999999999,-0.244247
657,6.57,-0.063639,4.219327,-1.9884009999999999,0.389893,-0.560699,-0.22187800000000002
658,6.58,1.051971,4.788936,-1.058184,0.086288,-0.5575100000000001,-0.217606
659,6.59,0.718472,4.9215349999999995,1.410547,-0.287613,-0.493591,-0.29431199999999996
660,6.6,-0.026857999999999996,3.912379,3.971249,-0.42184399999999994,-0.45843500000000004,-0.41255200000000003
661,6.61,-0.637985,2.469065,5.649042,-0.405853,-0.29652399999999995,-0.48818999999999996
662,6.62,-0.686267,1.292709,6.437444999999999,-0.274826,-0.11116,-0.522278
663,6.63,0.091244,0.8667950000000001,6.089914,-0.088409,-0.03447,-0.519073
664,6.64,1.4254280000000001,0.773331,5.055524,0.059662,-0.030197,-0.47540299999999996
665,6.65,2.548398,0.834598,3.925233,0.165115,-0.040848,-0.376328
666,6.66,3.1450080000000002,1.28285,2.771191,0.25993299999999997,-0.049377,-0.230392
667,6.67,3.466298,1.413836,1.334219,0.340897,-0.046188,-0.088715
668,6.68,3.227273,0.812385,0.06848600000000005,0.34729,-0.039795,0.0028989999999999923
669,6.69,1.9321220000000001,-0.36886500000000016,-0.531263,0.266327,-0.042983999999999994,0.052962999999999996
670,6.7,0.32381400000000005,-1.4096549999999999,-0.458434,0.14913900000000002,-0.046188,0.108368
671,6.71,-1.2080880000000005,-2.147992,-0.091085,0.013855000000000006,-0.022751,0.170151
672,6.72,-2.835633,-2.5649290000000002,0.6996479999999999,-0.120361,0.05714400000000001,0.253235
673,6.73,-4.237248999999999,-2.692475,1.621899,-0.18748499999999998,0.170074,0.346985
674,6.74,-4.824882,-2.5151790000000003,2.413565,-0.164047,0.317078,0.44604499999999997
675,6.75,-4.40845,-2.238036,2.611016,-0.051132,0.485382,0.518494
676,6.76,-2.6630700000000003,-1.7883509999999998,1.822008,0.06605499999999999,0.661148,0.535538
677,6.77,-0.6156839999999999,-1.354541,0.779324,0.11292999999999999,0.808167,0.5121
678,6.78,1.9064139999999998,-1.245372,-0.527938,0.092682,0.8827360000000001,0.45137
679,6.79,3.963464,-0.874964,-0.609362,0.007462000000000003,0.889114,0.36189299999999996
680,6.8,5.474267,-0.005854999999999999,0.8762330000000002,-0.060715,0.963684,0.274536
681,6.81,5.7907470000000005,0.04422499999999999,1.25159,0.00427199999999999,1.1021729999999998,0.21168499999999998
682,6.82,5.020912,-1.078603,-0.142266,0.188553,0.991394,0.218079
683,6.83,3.481815,-2.6017200000000003,-1.302486,0.271652,0.608963,0.270279
684,6.84,2.2142,-3.401843,-1.210507,0.20666500000000002,0.129593,0.323547
685,6.85,1.516418,-3.568382,-0.836433,0.101212,-0.198517,0.323547
686,6.86,1.207591,-3.473407,-1.360539,0.028763,-0.267761,0.28093
687,6.87,1.101718,-3.056061,-1.923748,-0.017044,-0.176147,0.21595799999999998
688,6.88,0.6561170000000001,-2.266155,-1.8961720000000002,-0.030883999999999998,-0.048309,0.134995
689,6.89,0.499975,-1.8706630000000002,-1.816366,-0.088409,-0.002502000000000001,0.09025599999999999
690,6.9,0.6188779999999999,-1.492979,-1.4162649999999999,-0.171494,-0.00038099999999999983,0.052962999999999996
691,6.91,0.844885,-1.0075049999999999,-0.92024,-0.193878,-0.031265,0.0242
692,6.92,1.010885,0.0007030000000000093,0.12365100000000008,-0.121429,-0.083466,0.012482
693,6.93,0.793381,1.060455,1.382507,0.07989500000000001,0.014542,0.0007629999999999997
694,6.94,0.366379,1.416547,0.839327,0.340897,0.309616,-0.029052999999999992
695,6.95,-0.08532899999999999,1.146133,-0.6960840000000001,0.565659,0.414017,-0.07486
696,6.96,-0.541387,0.18010499999999996,-2.5196259999999997,0.596558,0.424667,-0.116409
697,6.97,-0.936214,-0.820258,-3.273095,0.476181,0.363953,-0.13131700000000002
698,6.98,-0.8682799999999999,-1.499005,-2.73746,0.346222,0.331985,-0.139847
699,6.99,-0.303309,-1.5690620000000002,-1.998605,0.24395799999999998,0.386322,-0.164352
700,7.0,0.7605890000000001,-0.799798,-1.826582,0.12251300000000001,0.395905,-0.169678
701,7.01,2.175359,0.243283,-2.05512,-0.013839999999999998,0.281921,-0.129196
702,7.02,3.700069,1.300916,-2.3045009999999997,-0.138474,0.148758,-0.071671
703,7.03,4.377553,2.26668,-2.395909,-0.23754899999999998,0.07525599999999999,-0.034378
704,7.04,3.8099260000000004,2.9959,-2.678242,-0.287613,0.018799,0.008223999999999999
705,7.05,2.381159,4.074944,-2.000966,-0.249268,-0.05789200000000001,0.089188
706,7.06,1.458118,5.700793,-0.16596600000000006,-0.139542,-0.149506,0.21914699999999998
707,7.07,0.6046600000000001,6.930344,3.244413,-0.070297,-0.07814,0.28625500000000004
708,7.08,0.04513899999999999,6.7374,5.550612999999999,0.12251300000000001,0.096558,0.238327
709,7.09,-0.5448649999999999,5.047592,5.981975,0.344086,0.061417,0.209564
710,7.1,-0.841143,3.046448,5.2452879999999995,0.354736,0.014542,0.264954
711,7.11,-0.454358,1.566397,3.6744410000000003,0.238632,0.0070799999999999995,0.399185
712,7.12,0.034449000000000014,0.558348,2.4199889999999997,0.10653699999999999,-0.028076,0.553635
713,7.13,0.347823,-0.23694099999999998,2.3195259999999998,-0.020233,-0.160172,0.635666
714,7.14,0.550404,-0.581979,2.667378,-0.075623,-0.261368,0.582397
715,7.15,0.045012,-0.602228,1.8328220000000002,-0.023422,-0.24218800000000001,0.429001
716,7.16,-0.22993400000000003,-0.705778,0.08384199999999997,0.037292,-0.165497,0.25856
717,7.17,-0.19683499999999998,-1.111715,-1.013207,-0.0021210000000000014,-0.129272,0.09025599999999999
718,7.18,0.07941599999999997,-1.457698,-1.094295,-0.11503599999999999,-0.136734,-0.070602
719,7.19,0.7012799999999999,-1.8186900000000001,-0.912431,-0.25459299999999996,-0.181473,-0.20483400000000002
720,7.2,1.7070740000000002,-1.9730619999999999,-0.676144,-0.422897,-0.25816300000000003,-0.316681
721,7.21,2.58535,-1.985709,-0.251475,-0.5549930000000001,-0.412628,-0.39869699999999997
722,7.22,3.403083,-1.51745,0.101901,-0.643417,-0.621429,-0.447708
723,7.23,3.614556,-0.9095129999999999,1.101997,-0.663651,-0.852585,-0.45622299999999993
724,7.24,3.3860550000000003,0.10486299999999997,1.9736490000000002,-0.5677800000000001,-1.083755,-0.43917799999999996
725,7.25,2.598768,0.791946,2.545426,-0.394135,-1.238205,-0.435989
726,7.26,1.246133,0.950779,2.5045509999999997,-0.190674,-1.324493,-0.45622299999999993
727,7.27,-0.14819700000000002,0.609061,2.073019,0.0010679999999999995,-1.3660430000000001,-0.491379
728,7.28,-1.560532,-0.07561699999999999,1.5708090000000001,0.148071,-1.354324,-0.546783
729,7.29,-2.736193,-1.038661,1.037776,0.226913,-1.297867,-0.591522
730,7.3,-3.580198,-2.018681,0.632333,0.23435999999999998,-1.203064,-0.607498
731,7.31,-3.6649629999999997,-2.9013400000000003,0.20537399999999997,0.192825,-1.101852,-0.582993
732,7.32,-3.0884259999999997,-3.526729,-0.23594600000000002,0.124649,-1.02623,-0.516953
733,7.33,-2.084552,-3.73377,-0.769451,0.050079000000000005,-0.9825440000000001,-0.42852799999999996
734,7.34,-1.046771,-3.4967010000000003,-1.10277,-0.026627000000000005,-0.983612,-0.323074
735,7.35,-0.28579800000000005,-2.882589,-1.3182459999999998,-0.092667,-1.024094,-0.230392
736,7.36,0.255207,-2.228773,-1.295439,-0.13208,-1.076294,-0.16008
737,7.37,0.395667,-1.741481,-1.1419190000000001,-0.15019200000000002,-1.12529,-0.103622
738,7.38,0.13491199999999998,-1.683846,-0.890943,-0.144867,-1.157257,-0.065277
739,7.39,-0.187581,-1.9913349999999999,-0.669285,-0.149124,-1.152985,-0.026931999999999998
740,7.4,-0.46511800000000003,-2.52794,-0.539529,-0.177887,-1.1125180000000001,0.015686000000000002
741,7.41,-0.639641,-2.744125,-0.52685,-0.23115500000000003,-1.075226,0.051895000000000004
742,7.42,-0.5665859999999999,-2.285089,-0.604838,-0.283356,-1.033676,0.092377
743,7.43,-0.316279,-1.289517,-0.6950029999999999,-0.27589400000000003,-1.0091860000000001,0.14032
744,7.44,-0.142904,-0.15793900000000005,-1.0535709999999998,-0.189606,-0.9963989999999999,0.199982
745,7.45,-0.025791999999999995,0.69096,-1.491425,-0.06604,-0.9580540000000001,0.245773
746,7.46,-0.12237200000000001,1.258494,-1.676505,0.031967,-0.8792110000000001,0.24791
747,7.47,-0.259226,1.594,-1.409347,0.07989500000000001,-0.801453,0.202103
748,7.48,-0.322205,1.945972,-0.7642939999999999,0.095886,-0.755646,0.123276
749,7.49,-0.5937100000000001,2.078884,-0.16867000000000001,0.116119,-0.733276,0.050842
750,7.5,-1.170878,2.1331919999999998,0.07472899999999999,0.158737,-0.722626,0.011429000000000002
751,7.51,-1.600773,2.26191,-0.206283,0.20666500000000002,-0.677887,0.009293000000000001
752,7.52,-1.335345,2.438065,-1.443914,0.22264099999999998,-0.585205,-0.009888
753,7.53,-0.674022,2.6198580000000002,-2.342198,0.225845,-0.5798800000000001,-0.032257
754,7.54,0.11996099999999993,2.763665,-2.831138,0.251404,-0.6278229999999999,-0.043976
755,7.55,0.8186859999999999,3.249495,-2.799432,0.301483,-0.7364649999999999,-0.026931999999999998
756,7.56,2.3460650000000003,4.856184,-1.8360490000000003,0.143814,-0.89946,-0.014145
757,7.57,1.756529,5.717611,0.5557340000000001,-0.158722,-0.8653719999999999,-0.083389
758,7.58,0.336785,5.181556,3.101828,-0.296143,-0.747131,-0.247437
759,7.59,-0.8692120000000001,3.816596,4.960044,-0.30998200000000004,-0.537262,-0.41894499999999996
760,7.6,-2.202208,2.015764,6.06992,-0.260986,-0.26455700000000004,-0.525467
761,7.61,-2.6456020000000002,0.344013,6.338197,-0.10759,-0.032333,-0.533997
762,7.62,-1.9213650000000002,-0.9554889999999999,5.426003,0.088425,0.101898,-0.487122
763,7.63,-0.5239130000000001,-1.6974490000000002,3.6506769999999995,0.219452,0.163681,-0.420013
764,7.64,0.809715,-1.689075,2.1800770000000003,0.285492,0.161545,-0.323074
765,7.65,1.927961,-1.256804,0.864823,0.302536,0.11041300000000001,-0.196304
766,7.66,2.785923,-0.75478,-0.236324,0.24714699999999998,0.026260000000000002,-0.073792
767,7.67,3.046082,-0.474608,-0.557527,0.124649,-0.06855800000000001,0.009293000000000001
768,7.68,2.349377,-0.659429,-0.185033,-0.019165,-0.129272,0.049774
769,7.69,0.760757,-1.076059,0.42616499999999996,-0.136353,-0.131409,0.072144
770,7.7,-0.948765,-1.3930200000000001,0.929527,-0.23115500000000003,-0.06323200000000001,0.110489
771,7.71,-2.663753,-1.1918090000000001,1.1927290000000002,-0.323837,0.083786,0.171219
772,7.72,-4.067264,-0.6145109999999999,1.49197,-0.395203,0.296829,0.226608
773,7.73,-4.5345379999999995,-0.19597,2.0150099999999997,-0.400528,0.514145,0.311829
774,7.74,-3.941408,-0.141706,2.312162,-0.304657,0.709091,0.386398
775,7.75,-1.006512,-0.229949,2.003101,-0.068176,0.9019010000000001,0.480133
776,7.76,1.03453,-0.476184,1.383556,0.075638,0.944519,0.49291999999999997
777,7.77,2.85443,-1.058762,0.658033,0.186432,0.9019010000000001,0.489731
778,7.78,4.129098,-1.6170870000000002,-0.13319599999999998,0.24395799999999998,0.790054,0.47268699999999997
779,7.79,4.802624,-2.185651,-0.952714,0.237564,0.630264,0.4599
780,7.8,4.8428,-2.654383,-1.472867,0.176834,0.44810500000000003,0.43859899999999996
781,7.81,4.457275,-2.950782,-1.827639,0.100143,0.28299,0.4077
782,7.82,3.720536,-2.942612,-1.9239009999999999,0.004271999999999998,0.15303,0.354431
783,7.83,2.718038,-2.746759,-1.819021,-0.100128,0.066742,0.283066
784,7.84,1.7165810000000001,-2.536444,-1.319788,-0.200256,0.010284,0.20636
785,7.85,0.897756,-2.29012,-0.7703720000000001,-0.26950100000000005,-0.028076,0.146713
786,7.86,0.28788800000000003,-1.9637669999999998,-0.357068,-0.286545,-0.052566999999999996,0.099838
787,7.87,-0.018222,-1.7117930000000001,-0.188184,-0.259918,-0.061096000000000004,0.07428
788,7.88,0.039868,-1.539474,-0.183855,-0.218369,-0.054702999999999995,0.054030999999999996
789,7.89,0.268538,-1.421486,-0.280384,-0.167236,-0.033401,0.031662
790,7.9,0.571009,-1.35955,-0.561876,-0.10971099999999999,-0.007828,0.007155999999999998
791,7.91,0.760192,-1.235909,-0.814179,-0.057510000000000006,0.036911,-0.035446000000000005
792,7.92,0.771138,-0.9128069999999999,-1.108001,0.005341000000000002,0.099762,-0.086578
793,7.93,0.507799,-0.432007,-1.49024,0.06605499999999999,0.164734,-0.148361
794,7.94,0.14910900000000002,0.021578999999999987,-1.927777,0.110794,0.204163,-0.188843
795,7.95,-0.16956300000000002,0.16579100000000002,-2.315987,0.11718800000000001,0.21907,-0.187775
796,7.96,-0.527493,0.146129,-2.475011,0.07989500000000001,0.256348,-0.155823
797,7.97,-0.6265390000000001,0.43237200000000003,-1.747507,-0.021301,0.367142,-0.11534100000000001
798,7.98,-0.105674,0.863123,-1.2657770000000002,-0.06604,0.440643,-0.11108399999999999
799,7.99,0.746445,1.405812,-1.11494,-0.090546,0.45982399999999995,-0.09829700000000001
800,8.0,1.693903,2.053585,-1.255967,-0.07989500000000001,0.399094,-0.045044
801,8.01,2.7073669999999996,2.709909,-1.637617,-0.03302,0.28299,0.042312999999999996
802,8.02,3.13413,3.231533,-2.103329,0.029831,0.150894,0.139252
803,8.03,2.894781,3.671938,-2.4883349999999997,0.091614,0.04863,0.233002
804,8.04,1.99983,4.1854,-2.233818,0.14913900000000002,-0.005707,0.29585300000000003
805,8.05,0.551547,4.4829989999999995,0.2581910000000001,-0.22583000000000006,0.018799,0.272415
806,8.06,0.48881899999999995,3.9663269999999997,2.8238250000000003,-0.40799,0.118942,0.20742800000000003
807,8.07,-0.111491,3.216711,4.757638,-0.33874499999999996,0.097626,0.16375699999999999
808,8.08,-0.8775649999999999,2.510185,5.813276999999999,-0.236481,0.019867,0.209564
809,8.09,-0.9293950000000001,1.946598,6.432426,-0.165115,0.004959000000000001,0.29158
810,8.1,-0.567389,1.415683,6.279662,-0.067108,-0.0067599999999999995,0.384262
811,8.11,-0.123064,0.832399,5.528957,0.062851,-0.029144,0.441788
812,8.12,-0.31606300000000004,0.37546199999999996,4.436829,0.221588,-0.080276,0.42260699999999995
813,8.13,-0.605854,0.122125,2.9928529999999998,0.39415,-0.147385,0.34910599999999997
814,8.14,-0.62533,0.159925,1.261851,0.513458,-0.201706,0.22767600000000002
815,8.15,-0.59522,0.202775,-0.12913999999999998,0.5326390000000001,-0.231537,0.076401
816,8.16,-0.38237899999999997,0.12433599999999999,-0.700679,0.463394,-0.224075,-0.05995200000000001
817,8.17,0.20569,0.036307000000000006,-0.738993,0.350479,-0.203842,-0.17286700000000002
818,8.18,0.915378,0.05279,-0.543141,0.23117100000000002,-0.228348,-0.250626
819,8.19,1.6891759999999998,-0.032986,-0.04720799999999997,0.139557,-0.27095,-0.318817
820,8.2,2.321966,-0.405047,0.464055,0.109726,-0.33805799999999997,-0.383789
821,8.21,2.468673,-1.147226,0.884188,0.15020799999999998,-0.44352700000000006,-0.420013
822,8.22,2.298073,-1.7638779999999998,0.9553440000000001,0.226913,-0.563904,-0.438126
823,8.23,1.647906,-2.218803,0.8504889999999999,0.290817,-0.6576390000000001,-0.445572
824,8.24,0.874489,-2.6724069999999998,0.557005,0.312134,-0.727951,-0.44664
825,8.25,0.12829400000000002,-3.054606,0.349881,0.303604,-0.780151,-0.44238299999999997
826,8.26,-0.6747270000000001,-3.4116809999999997,0.20513,0.271652,-0.80571,-0.434921
827,8.27,-1.555613,-3.5172559999999997,-0.136081,0.203476,-0.829147,-0.426407
828,8.28,-2.353919,-3.645638,-0.300386,0.099075,-0.851517,-0.407227
829,8.29,-2.776897,-3.440682,-0.54284,-0.037276999999999984,-0.8493959999999999,-0.367813
830,8.3,-2.768496,-3.2516540000000003,-0.519204,-0.189606,-0.820633,-0.316681
831,8.31,-2.410017,-2.9470009999999998,-0.33098,-0.31105,-0.768433,-0.257019
832,8.32,-1.858903,-2.4159,-0.216824,-0.38561999999999996,-0.72049,-0.195236
833,8.33,-1.325377,-1.815993,-0.061381999999999985,-0.414383,-0.688538,-0.136642
834,8.34,-0.957842,-1.204245,0.04842500000000001,-0.40266399999999997,-0.669357,-0.073792
835,8.35,-0.672172,-0.712119,0.11358900000000001,-0.361115,-0.646988,-0.019469999999999998
836,8.36,-0.411343,-0.46973000000000004,0.081709,-0.276962,-0.63208,0.015686000000000002
837,8.37,-0.43022200000000005,-0.627153,-0.095274,-0.169373,-0.619293,0.0242
838,8.38,-0.572674,-0.9569840000000001,-0.357129,-0.069229,-0.609711,0.026337
839,8.39,-0.655813,-1.273599,-0.782447,-0.0031890000000000013,-0.600113,0.029526
840,8.4,-0.711268,-1.434094,-1.12665,0.030899,-0.593719,0.055099
841,8.41,-0.53972,-1.355797,-1.270497,0.054337,-0.593719,0.10516400000000001
842,8.42,-0.372784,-1.03637,-1.502068,0.091614,-0.603317,0.170151
843,8.43,-0.30180300000000004,-0.63232,-1.7992439999999998,0.152344,-0.6139680000000001,0.22767600000000002
844,8.44,-0.141688,-0.404301,-2.0177490000000002,0.194946,-0.597992,0.263885
845,8.45,0.311211,-0.30390900000000004,-1.908637,0.13742100000000002,-0.563904,0.279861
846,8.46,0.193002,0.055258,-1.6606720000000001,0.035156,-0.5798800000000001,0.268158
847,8.47,-0.319315,0.785172,-1.560726,-0.045807,-0.6587069999999999,0.240448
848,8.48,-1.261647,1.6942259999999998,-1.498903,-0.078827,-0.729019,0.204239
849,8.49,-2.0116959999999997,2.5005900000000003,-1.323661,-0.068176,-0.710907,0.164825
850,8.5,-2.341182,3.359168,-1.343461,-0.027694999999999997,-0.578812,0.108368
851,8.51,-2.223357,4.091687,-1.551731,0.043686,-0.413696,0.039124
852,8.52,-1.388763,4.420637,-1.939716,0.14595,-0.280533,-0.018402
853,8.53,-0.2058779999999999,4.742716000000001,-2.313925,0.225845,-0.253906,-0.066345
854,8.54,1.3405,5.071119,-2.40453,0.174713,-0.314621,-0.095108
855,8.55,1.755643,5.21168,-1.078538,-0.137405,-0.392395,-0.150497
856,8.56,-0.251761,4.201537999999999,3.486852,-0.417572,-0.37535100000000005,-0.282593
857,8.57,-1.555777,2.882945,5.189934,-0.343002,-0.182541,-0.347565
858,8.58,-2.184443,1.6496110000000002,6.020335,-0.273773,0.08590699999999997,-0.382721
859,8.59,-2.747919,0.6883840000000001,6.130051,-0.15551800000000002,0.272339,-0.39869699999999997
860,8.6,-2.446532,-0.003508000000000011,5.164948000000001,0.0,0.34477199999999997,-0.375275
861,8.61,-1.34629,-0.261761,3.8958769999999996,0.12144500000000001,0.387375,-0.333725
862,8.62,-0.291509,-0.29125999999999996,2.805729,0.22903400000000002,0.42573500000000003,-0.275131
863,8.63,0.535245,-0.14466600000000002,1.7965360000000001,0.332367,0.461945,-0.164352
864,8.64,1.4384940000000002,-0.131075,0.550247,0.381378,0.485382,-0.033325000000000014
865,8.65,1.785768,-0.39708000000000004,-0.282192,0.345154,0.460892,0.078537
866,8.66,1.473653,-0.834951,-0.419149,0.263123,0.42146300000000003,0.165878
867,8.67,0.604178,-1.506946,-0.176032,0.177902,0.410812,0.22021500000000002
868,8.68,-0.751534,-2.20222,0.165449,0.09375,0.427856,0.272415
869,8.69,-2.200211,-2.767084,0.57194,-0.006378000000000003,0.49177600000000005,0.307571
870,8.7,-3.347699,-2.8088830000000002,0.862539,-0.10759,0.608963,0.33313000000000004
871,8.71,-4.310223000000001,-2.351475,1.026022,-0.21411100000000002,0.735718,0.346985
872,8.72,-4.421719,-1.714693,1.379202,-0.315308,0.896576,0.389587
873,8.73,-3.5281620000000005,-1.0601180000000001,1.7285080000000002,-0.341949,1.087265,0.430069
874,8.74,-1.7212720000000001,-0.442642,1.94945,-0.315308,1.263031,0.483337
875,8.75,0.552216,-0.140207,2.059006,-0.2173,1.356766,0.521683
876,8.76,2.650411,-0.34920300000000004,1.978493,-0.060714999999999984,1.371689,0.53447
877,8.77,4.438155,-0.764498,1.400548,0.10653699999999999,1.301376,0.527008
878,8.78,5.54694,-1.332927,0.30612399999999995,0.22903400000000002,1.16716,0.489731
879,8.79,5.666713,-1.906509,-0.8326540000000001,0.261002,0.9860530000000001,0.439651
880,8.8,4.7242690000000005,-2.416489,-1.51705,0.22796599999999997,0.780457,0.37468
881,8.81,3.2592209999999997,-2.594702,-1.916089,0.151276,0.608963,0.322479
882,8.82,1.720064,-2.529304,-2.0353209999999997,0.039429,0.50563,0.272415
883,8.83,0.458084,-2.3100419999999997,-1.9808810000000001,-0.076691,0.45343,0.22235100000000002
884,8.84,-0.483152,-2.076454,-1.7595459999999998,-0.18748499999999998,0.439575,0.17440799999999998
885,8.85,-0.960534,-1.873949,-1.3696110000000001,-0.28442399999999995,0.44917299999999993,0.13179000000000002
886,8.86,-1.0503,-1.7096310000000001,-0.813665,-0.340881,0.476868,0.094513
887,8.87,-0.751025,-1.4955889999999998,-0.314335,-0.33981300000000003,0.5205380000000001,0.06149299999999999
888,8.88,-0.2722490000000001,-1.28706,-0.119877,-0.296143,0.569534,0.030594000000000007
889,8.89,0.113444,-1.0548540000000002,-0.25490799999999997,-0.22583000000000003,0.616409,-0.005615000000000002
890,8.9,0.383936,-0.791927,-0.510764,-0.149124,0.660095,-0.036514
891,8.91,0.465003,-0.444171,-0.754073,-0.062851,0.7026979999999999,-0.072739
892,8.92,0.32756799999999997,-0.188673,-1.153454,0.038361,0.730392,-0.11108399999999999
893,8.93,0.115053,-0.11531,-1.763064,0.134232,0.730392,-0.129196
894,8.94,-0.19861800000000002,-0.47953599999999996,-2.316348,0.16406199999999999,0.708023,-0.122803
895,8.95,-0.38110900000000003,-0.7213390000000001,-2.595814,0.10546900000000001,0.705902,-0.11322
896,8.96,-0.331597,-0.680741,-2.366271,0.002135999999999999,0.714417,-0.107895
897,8.97,0.0007159999999999943,-0.200236,-1.962221,-0.10438499999999999,0.732529,-0.110016
898,8.98,0.63802,0.6994630000000001,-1.589965,-0.204529,0.725067,-0.089783
899,8.99,1.576716,1.7372470000000002,-1.267287,-0.26310700000000004,0.66861,-0.032257
900,9.0,2.570694,2.9365650000000003,-0.914435,-0.233292,0.568481,0.055099
901,9.01,3.159128,3.8755010000000003,-0.9809549999999999,-0.124634,0.43638599999999994,0.134995
902,9.02,2.9829369999999997,4.121378,-1.349681,0.025574,0.31494099999999997,0.210632
903,9.03,1.860784,4.084596,-1.5343870000000002,0.167252,0.23825100000000002,0.26921100000000003
904,9.04,0.523903,3.920527,-1.530983,0.23435999999999998,0.256348,0.256439
905,9.05,-0.564774,3.9798620000000002,-0.511834,0.013855000000000006,0.341568,0.17866500000000002
906,9.06,-0.9007709999999999,4.004916000000001,1.739153,-0.30891399999999997,0.522675,0.087051
907,9.07,-1.464226,3.828232,3.781283,-0.33981300000000003,0.574875,0.071075
908,9.08,-1.9455790000000002,3.3128849999999996,4.711404,-0.25459299999999996,0.5088199999999999,0.16162100000000001
909,9.09,-2.240973,2.763934,5.526796,-0.23222399999999999,0.398041,0.31076
910,9.1,-2.354835,2.0266889999999997,6.416945,-0.180023,0.33624299999999996,0.452438
911,9.11,-2.153807,1.169951,6.532094,-0.044739,0.351166,0.550446
912,9.12,-1.8223779999999998,0.58475,5.438937999999999,0.155533,0.398041,0.537659
913,9.13,-2.044825,0.10764299999999996,3.5871,0.356873,0.429993,0.44604499999999997
914,9.14,-1.7320360000000001,0.176894,0.947557,0.469788,0.423599,0.326736
915,9.15,-1.431043,0.302158,-1.052089,0.452744,0.370331,0.186127
916,9.16,-0.89731,0.174931,-1.7549740000000003,0.343018,0.328796,0.04657
917,9.17,-0.07379599999999997,-0.159222,-1.460191,0.21731599999999998,0.340515,-0.082321
918,9.18,0.8742530000000001,-0.442683,-0.887117,0.101212,0.35435500000000003,-0.181396
919,9.19,1.710881,-0.484897,-0.336417,0.002135999999999999,0.32666,-0.25596599999999997
920,9.2,2.577305,-0.6834060000000001,0.242661,-0.042602999999999995,0.263809,-0.334793
921,9.21,3.15357,-1.2009370000000001,0.709566,-0.006378000000000003,0.12532000000000001,-0.397644
922,9.22,3.079409,-1.598294,0.9271809999999999,0.062851,-0.022751,-0.458359
923,9.23,2.367233,-1.854012,0.8655430000000001,0.119324,-0.134598,-0.483932
924,9.24,1.423698,-2.053429,0.50959,0.153412,-0.256042,-0.478592
925,9.25,0.423001,-2.129569,0.16855599999999998,0.153412,-0.382797,-0.45622299999999993
926,9.26,-0.7235090000000001,-2.170451,-0.11518000000000005,0.123581,-0.48507700000000004,-0.44345100000000004
927,9.27,-1.898912,-2.215129,-0.10286300000000001,0.095886,-0.550049,-0.429596
928,9.28,-2.817847,-2.226395,-0.11874100000000001,0.071381,-0.5734859999999999,-0.41255200000000003
929,9.29,-3.452329,-2.364514,-0.184402,0.042618,-0.5543060000000001,-0.388046
930,9.3,-3.505063,-2.543751,-0.336432,0.014923,-0.511703,-0.355026
931,9.31,-3.165884,-2.738743,-0.696207,-0.026626999999999998,-0.457367,-0.304962
932,9.32,-2.425007,-2.7116830000000003,-0.9183030000000001,-0.076691,-0.400909,-0.2453
933,9.33,-1.699013,-2.460224,-0.946693,-0.139542,-0.348709,-0.186722
934,9.34,-1.163693,-2.02564,-0.892858,-0.190674,-0.310364,-0.13131700000000002
935,9.35,-0.7700359999999999,-1.677271,-0.754273,-0.21304299999999998,-0.286926,-0.08551
936,9.36,-0.557363,-1.513659,-0.5820000000000001,-0.203461,-0.275208,-0.049301
937,9.37,-0.559653,-1.5976780000000002,-0.530184,-0.174698,-0.26455700000000004,-0.020538
938,9.38,-0.805322,-1.896624,-0.6235,-0.142746,-0.25711100000000003,0.006104
939,9.39,-1.0662989999999999,-2.251545,-0.810312,-0.121429,-0.241119,0.034851
940,9.4,-1.294858,-2.435168,-1.049975,-0.131027,-0.228348,0.06575
941,9.41,-1.373853,-2.309241,-1.137976,-0.149124,-0.224075,0.099838
942,9.42,-1.27995,-1.659507,-1.122004,-0.153397,-0.23793000000000003,0.145645
943,9.43,-1.0432709999999998,-0.7645529999999999,-1.239876,-0.119308,-0.259232,0.201035
944,9.44,-0.7423850000000001,0.02832400000000002,-1.6664700000000001,-0.055389,-0.291199,0.255371
945,9.45,-0.419941,0.592117,-2.1130310000000003,-0.01384,-0.32634,0.29478499999999996
946,9.46,-0.164469,0.894176,-2.211909,-0.004257,-0.347656,0.313965
947,9.47,-0.0823,1.034946,-1.8830930000000001,-0.019165,-0.361496,0.313965
948,9.48,-0.321721,1.263945,-1.1813690000000001,-0.026626999999999998,-0.380676,0.29585300000000003
949,9.49,-1.180736,1.8726580000000002,-0.56704,0.014922999999999999,-0.390259,0.260696
950,9.5,-2.038568,2.4298599999999997,-0.378474,0.090561,-0.318893,0.20849600000000001
951,9.51,-2.443629,3.107482,-0.693475,0.166183,-0.189987,0.141388
952,9.52,-2.1772970000000003,3.676943,-1.335839,0.22903400000000002,-0.07814,0.06681799999999999
953,9.53,-1.45028,3.779703,-1.964263,0.300415,-0.018478,0.005034999999999998
954,9.54,-0.456268,3.9680269999999997,-2.4238560000000002,0.363266,-0.028076,-0.039702999999999995
955,9.55,0.824686,4.499784,-2.315228,0.350479,-0.096252,-0.080185
956,9.56,1.2648110000000001,4.713712999999999,-0.840059,0.13636800000000002,-0.134598,-0.147308
957,9.57,-0.060871000000000015,4.400904,1.455917,-0.087341,-0.224075,-0.22720300000000002
958,9.58,-1.029928,3.404943,3.4533050000000003,-0.093735,-0.300781,-0.264481
959,9.59,-1.305089,2.463357,4.686884,-0.045807,-0.21875,-0.307098
960,9.6,-1.9067040000000002,1.592466,5.197146,-0.023422,-0.024872000000000002,-0.37953200000000004
961,9.61,-2.552612,0.776207,5.362507,0.057526,0.124268,-0.423203
962,9.62,-2.186982,0.356035,4.7134089999999995,0.177902,0.248901,-0.433853
963,9.63,-1.015417,0.154906,3.503744,0.281235,0.40123000000000003,-0.41787700000000005
964,9.64,-0.24562399999999998,0.5059319999999999,2.0664580000000004,0.325974,0.545044,-0.371002
965,9.65,0.356584,0.834208,0.794622,0.312134,0.629196,-0.27301
966,9.66,0.675315,0.711645,0.154449,0.258865,0.666473,-0.145172
967,9.67,0.6541859999999999,0.06410100000000002,0.051045,0.19175699999999998,0.698441,-0.022659000000000002
968,9.68,-0.3966129999999998,-0.836586,0.221914,0.120377,0.748505,0.063614
969,9.69,-1.387679,-1.898946,0.296879,0.026642000000000002,0.7857970000000001,0.137131
970,9.7,-2.740377,-2.488067,0.509794,-0.091599,0.8284,0.213821
971,9.71,-4.061306,-2.564621,1.163001,-0.20559699999999997,0.9253389999999999,0.259628
972,9.72,-5.163666,-2.018123,1.9851330000000003,-0.25885,1.0552979999999998,0.311829
973,9.73,-4.948475,-1.412312,2.5261419999999997,-0.226898,1.211899,0.39279200000000003
974,9.74,-3.60744,-0.5893470000000001,2.430422,-0.14060999999999998,1.399384,0.46948199999999995
975,9.75,-1.39936,-0.175896,1.9487240000000001,-0.031951999999999994,1.5506440000000001,0.5238189999999999
976,9.76,1.086877,-0.295126,1.364233,0.054337,1.633743,0.5451199999999999
977,9.77,3.195786,-0.82624,0.767224,0.101212,1.659302,0.5110319999999999
978,9.78,4.696549,-1.446193,0.144795,0.125702,1.589005,0.465225
979,9.79,5.400341,-1.966632,-0.33995,0.127838,1.452652,0.417282
980,9.8,5.188905999999999,-2.473205,-0.762578,0.124649,1.253448,0.377869
981,9.81,4.2343720000000005,-2.6247990000000003,-1.173244,0.10760499999999999,0.999908,0.34484899999999996
982,9.82,2.810038,-2.547149,-1.338351,0.059662,0.769806,0.307571
983,9.83,1.3827599999999998,-2.130364,-1.138046,0.0010679999999999995,0.624939,0.263885
984,9.84,0.12865599999999988,-1.6168790000000002,-0.8168949999999999,-0.03302,0.581253,0.20636
985,9.85,-1.223575,-1.483339,-0.777936,0.017044,0.659027,0.09877000000000001
986,9.86,-0.9971209999999999,-1.762361,-0.8233020000000001,0.024506,0.703766,0.068939
987,9.87,-0.6437149999999999,-1.9875990000000001,-0.862361,0.006392999999999999,0.757034,0.04657
988,9.88,-0.250058,-1.976389,-1.089623,-0.015976,0.802841,0.022078999999999998
989,9.89,0.07399799999999998,-1.757371,-1.158612,-0.035141000000000006,0.842255,0.0007629999999999997
990,9.9,0.300009,-1.233222,-1.1223809999999999,-0.017044,0.869949,-0.024796000000000002
991,9.91,0.44946099999999994,-0.5029240000000001,-1.1714799999999999,0.040482,0.896576,-0.064209
992,9.92,0.41056400000000004,0.045744000000000014,-1.4881209999999998,0.140625,0.9019010000000001,-0.101501
993,9.93,0.312076,0.025647000000000003,-2.223689,0.226913,0.827332,-0.116409
994,9.94,0.14856,-0.295476,-2.604863,0.23435999999999998,0.7261350000000001,-0.10682699999999999
995,9.95,0.086947,-0.5240229999999999,-2.493001,0.186432,0.685654,-0.092972
996,9.96,0.022048,-0.525373,-2.056908,0.118256,0.717621,-0.101501
997,9.97,0.218455,0.026546000000000014,-1.9423270000000001,0.0522,0.766617,-0.11322
998,9.98,0.831189,0.698546,-1.947183,-0.029816,0.746368,-0.101501
999,9.99,1.629751,1.403397,-1.821163,-0.103317,0.657959,-0.050369
1000,10.0,2.283598,2.177441,-1.495133,-0.129959,0.578064,0.014618000000000003
1001,10.01,2.299721,2.910327,-1.316159,-0.071365,0.525864,0.062561
1002,10.02,1.553046,3.3875040000000003,-1.417632,0.051132,0.487518,0.109421
1003,10.03,0.204367,3.9262230000000002,-1.4559790000000001,0.182159,0.46833800000000003,0.138184
1004,10.04,-1.002782,4.635594,-0.803942,0.11718800000000001,0.48219300000000004,0.125412
1005,10.05,-1.282446,4.798056,1.242222,-0.216248,0.5556949999999999,0.07428
1006,10.06,-1.184337,4.632512999999999,3.572496,-0.332352,0.5865779999999999,0.060425
1007,10.07,-1.4318959999999998,3.9592650000000003,4.669845,-0.21304299999999998,0.49177600000000005,0.156296
1008,10.08,-1.6896220000000002,3.041415,5.161912,-0.19280999999999998,0.35968,0.320343
1009,10.09,-1.707771,2.045434,5.6659,-0.19813499999999998,0.313873,0.49505600000000005
1010,10.1,-1.9467439999999998,0.9331450000000001,5.824148,-0.171494,0.390579,0.620758
1011,10.11,-1.985909,0.28178099999999995,5.260932,-0.10971099999999999,0.547165,0.606903
1012,10.12,-1.983975,0.12928399999999998,3.9576029999999998,0.003203999999999992,0.617477,0.49398800000000004
1013,10.13,-2.024387,0.272984,1.94743,0.10546900000000001,0.59404,0.343781
1014,10.14,-1.522001,0.5326960000000001,0.11343000000000016,0.119324,0.548233,0.202103
1015,10.15,-0.928782,0.637522,-0.95049,0.08416699999999999,0.50563,0.058289000000000014
1016,10.16,-0.182391,0.35321199999999997,-0.929163,0.047943,0.49498000000000003,-0.072739
1017,10.17,0.743306,-0.090115,-0.5363720000000001,0.017044,0.501358,-0.181396
1018,10.18,1.812731,-0.385969,-0.205556,-0.040466,0.49498000000000003,-0.275131
1019,10.19,2.611684,-0.48368900000000004,-0.038778,-0.10119600000000001,0.464081,-0.369949
1020,10.2,3.102969,-0.6631520000000001,0.06431100000000001,-0.126755,0.346909,-0.467941
1021,10.21,3.033492,-1.2516180000000001,0.375945,-0.111847,0.140244,-0.5212100000000001
1022,10.22,2.920511,-1.783249,0.8277979999999999,-0.060715,-0.073883,-0.5297390000000001
1023,10.23,2.4007680000000002,-1.9329779999999999,1.031588,0.017044,-0.23472600000000002,-0.518021
1024,10.24,1.49814,-2.084858,0.748732,0.100143,-0.377472,-0.499908
1025,10.25,0.3917950000000001,-2.037361,0.19372300000000006,0.141693,-0.511703,-0.48605299999999996
1026,10.26,-1.01001,-2.056593,-0.133445,0.129974,-0.6278229999999999,-0.478592
1027,10.27,-2.403122,-2.101651,-0.269902,0.091614,-0.7055819999999999,-0.46368400000000004
1028,10.28,-3.4822830000000002,-2.038567,-0.404658,0.062851,-0.7173,-0.434921
1029,10.29,-4.031413,-2.071942,-0.514766,0.035156,-0.659775,-0.39869699999999997
1030,10.3,-4.084186,-2.189522,-0.565022,-0.006378000000000004,-0.543655,-0.359283
1031,10.31,-3.649914,-2.299181,-0.733584,-0.036209,-0.407303,-0.31561300000000003
1032,10.32,-2.72704,-2.078424,-0.962685,-0.062851,-0.278412,-0.274063
1033,10.33,-1.8636580000000003,-1.828572,-1.123464,-0.093735,-0.177216,-0.23252899999999999
1034,10.34,-1.093559,-1.545623,-1.261932,-0.11398299999999999,-0.118622,-0.183517
1035,10.35,-0.51972,-1.405982,-1.201863,-0.11503599999999999,-0.099442,-0.139847
1036,10.36,-0.19809200000000002,-1.4160709999999999,-1.1845569999999999,-0.093735,-0.106903,-0.10043300000000001
1037,10.37,-0.2152,-1.553967,-1.160009,-0.059647000000000006,-0.132462,-0.068466
1038,10.38,-0.5147079999999999,-1.806293,-1.210791,-0.025558,-0.16761800000000002,-0.035446
1039,10.39,-0.807656,-2.046668,-1.242276,-0.011719,-0.197449,-0.004562
1040,10.4,-0.9391950000000001,-2.147779,-1.2725229999999998,-0.018097,-0.22195399999999998,0.025269
1041,10.41,-0.911856,-1.899591,-1.2655129999999999,-0.029816000000000002,-0.267761,0.060425
1042,10.42,-0.690008,-1.321609,-1.29277,-0.0021210000000000014,-0.34019499999999997,0.10409500000000001
1043,10.43,-0.46611800000000003,-0.684887,-1.635416,0.055404999999999996,-0.423279,0.160553
1044,10.44,-0.157275,-0.123948,-2.0979240000000003,0.099075,-0.502121,0.210632
1045,10.45,0.20083399999999998,0.237411,-2.297499,0.090561,-0.560699,0.23406999999999997
1046,10.46,0.405364,0.502526,-2.1096369999999998,0.047943,-0.600113,0.24151599999999998
1047,10.47,0.06323499999999999,0.965008,-1.5648879999999998,0.006392999999999999,-0.659775,0.23086500000000001
1048,10.48,-0.6929489999999999,1.538557,-0.901495,0.018112,-0.7173,0.193588
1049,10.49,-1.8535060000000003,2.074496,-0.49058,0.075638,-0.682144,0.13606300000000002
1050,10.5,-2.857732,2.639056,-0.7034,0.148071,-0.523422,0.052962999999999996
1051,10.51,-3.4385830000000004,3.094115,-1.268429,0.209869,-0.333801,-0.033325000000000014
1052,10.52,-3.1966189999999997,3.487881,-1.674569,0.275909,-0.201706,-0.097229
1053,10.53,-1.841991,3.9742589999999995,-2.20321,0.34834299999999996,-0.138855,-0.144104
1054,10.54,-0.2948040000000001,4.888267,-2.6144540000000003,0.362198,-0.196381,-0.189911
1055,10.55,0.7924869999999999,5.709414,-1.8573080000000002,0.151276,-0.28160100000000005,-0.249573
1056,10.56,-0.011710999999999971,6.005065,1.0128410000000003,-0.15125999999999998,-0.26455700000000004,-0.322006
1057,10.57,-0.848938,5.125487000000001,3.8529400000000003,-0.154449,-0.154831,-0.385925
1058,10.58,-1.695523,3.60705,5.309108999999999,-0.058578,0.12213099999999999,-0.46261599999999997
1059,10.59,-2.080264,1.927472,5.746861,-0.004257,0.414017,-0.519073
1060,10.6,-2.38797,0.3806499999999999,5.525049,0.110794,0.558884,-0.520142
1061,10.61,-1.951489,-0.561312,4.511131,0.25354,0.5674130000000001,-0.482864
1062,10.62,-0.715141,-0.8539770000000001,3.328582,0.313202,0.514145,-0.425339
1063,10.63,0.33630199999999993,-0.732829,2.328437,0.315323,0.5109560000000001,-0.337982
1064,10.64,1.446335,-0.286919,1.236007,0.300415,0.518402,-0.237854
1065,10.65,2.222419,0.055182000000000016,0.283744,0.24714699999999998,0.500305,-0.134521
1066,10.66,2.522014,0.07685399999999999,-0.149284,0.169388,0.461945,-0.032257
1067,10.67,2.0573240000000004,-0.26710300000000003,-0.19761700000000001,0.11398299999999999,0.41188,0.058289
1068,10.68,1.059993,-0.721375,-0.200987,0.080963,0.369278,0.139252
1069,10.69,-0.015596000000000053,-1.279001,0.09267599999999997,0.037292,0.323471,0.21595799999999998
1070,10.7,-1.439642,-1.953998,0.7908270000000001,-0.005325,0.31494099999999997,0.304367
1071,10.71,-2.461802,-2.142064,1.3679059999999998,-0.009583,0.375656,0.386398
1072,10.72,-3.212914,-2.192877,1.536542,0.005340999999999999,0.45449799999999996,0.45883199999999996
1073,10.73,-3.3780019999999995,-1.8824759999999998,1.385493,0.020248,0.5546260000000001,0.49505600000000005
1074,10.74,-2.899196,-1.5523790000000002,1.096374,0.015991,0.690979,0.50145
1075,10.75,-2.080595,-1.3430000000000002,0.690179,0.005340999999999999,0.8592989999999999,0.47268699999999997
1076,10.76,-0.626319,-1.132779,0.328549,-0.008514,1.016953,0.44604499999999997
1077,10.77,0.9401149999999999,-1.12494,0.156889,-0.02449,1.143723,0.397049
1078,10.78,2.4251840000000002,-1.121271,0.23096599999999998,-0.015976,1.225739,0.356567
1079,10.79,3.5994379999999997,-1.213135,0.141209,0.01918,1.225739,0.329941
1080,10.8,4.289648000000001,-1.351991,-0.188298,0.06072999999999999,1.136261,0.309692
1081,10.81,4.410426,-1.5549790000000001,-0.626095,0.087357,0.9551700000000001,0.29478499999999996
1082,10.82,3.848733,-1.750329,-1.02473,0.073517,0.710159,0.271347
1083,10.83,2.835728,-2.0937900000000003,-1.082427,0.038361,0.476868,0.256439
1084,10.84,1.705848,-2.178803,-1.072938,0.0042720000000000015,0.309616,0.238327
1085,10.85,0.72368,-2.264903,-1.169317,-0.023422,0.22758499999999998,0.20849600000000001
1086,10.86,-0.205616,-2.438171,-1.3573540000000002,-0.078827,0.22225999999999999,0.170151
1087,10.87,-0.45166999999999996,-2.4597900000000004,-1.486153,-0.127823,0.276596,0.141388
1088,10.88,-0.324678,-2.380433,-1.490097,-0.166168,0.33624299999999996,0.11795
1089,10.89,-0.01825899999999997,-2.264868,-1.543987,-0.190674,0.376724,0.094513
1090,10.9,0.4373550000000001,-2.004482,-1.657629,-0.21411100000000002,0.41294899999999995,0.056167999999999996
1091,10.91,0.829267,-1.5997620000000001,-1.626395,-0.249268,0.44490100000000005,0.002898999999999999
1092,10.92,1.011365,-0.925618,-1.334602,-0.26310700000000004,0.4758,-0.053558
1093,10.93,1.007159,-0.033053,-0.9882200000000001,-0.199203,0.498169,-0.103622
1094,10.94,0.7534649999999999,0.510826,-1.031554,-0.08522,0.513077,-0.136642
1095,10.95,0.25706599999999996,0.489124,-1.333821,-0.018097,0.51947,-0.13026400000000002
1096,10.96,-0.09592299999999998,0.346976,-1.341064,-0.02449,0.54184,-0.107895
1097,10.97,-0.173402,0.23466599999999999,-0.895123,-0.051132,0.582321,-0.097229
1098,10.98,0.0009959999999999967,0.460158,-0.30924,-0.043670999999999995,0.6462399999999999,-0.10682699999999999
1099,10.99,0.37169,0.9083889999999999,-0.369607,-0.01384,0.6899109999999999,-0.116409
1100,11.0,0.956284,1.5119999999999998,-1.259442,0.007462000000000001,0.669678,-0.101501
1101,11.01,1.864018,2.182371,-2.432033,0.015991,0.558884,-0.055695000000000015
1102,11.02,2.629438,2.934448,-3.178569,0.006393000000000001,0.39164699999999997,0.011429000000000002
1103,11.03,2.77522,3.5451330000000003,-3.468071,0.001068,0.248901,0.076401
1104,11.04,2.394813,3.766764,-3.255055,0.013855000000000001,0.169006,0.116882
1105,11.05,1.554922,3.8211760000000004,-2.491207,0.0522,0.13385,0.122208
1106,11.06,0.2885010000000001,4.335729,-1.399708,-0.029816,0.126389,0.130737
1107,11.07,-0.38156100000000004,4.94261,0.395004,-0.253525,0.22332800000000003,0.13606300000000002
1108,11.08,-0.21159100000000006,4.756188,2.4056610000000003,-0.348328,0.31494099999999997,0.130737
1109,11.09,-0.20561999999999997,3.8856260000000002,3.944176,-0.240738,0.226532,0.139252
1110,11.1,-0.43986499999999995,2.7197139999999997,4.994551,-0.147003,0.07206699999999999,0.194641
1111,11.11,-0.889862,1.724865,5.532154,-0.089478,0.062469000000000004,0.262817
1112,11.12,-0.987016,0.8569700000000001,5.17272,0.01492299999999999,0.099762,0.350174
1113,11.13,-1.1231360000000001,0.315834,4.172046,0.11398299999999999,0.143433,0.42581199999999997
1114,11.14,-1.348294,-0.150507,3.119081,0.202408,0.164734,0.430069
1115,11.15,-1.497576,-0.340764,1.882368,0.29509,0.158356,0.356567
1116,11.16,-1.399493,-0.107972,0.215137,0.330246,0.134918,0.231934
1117,11.17,-1.030742,-0.024850999999999998,-0.74352,0.256729,0.108276,0.07000700000000001
1118,11.18,-0.6085109999999999,-0.39138,-0.892091,0.142746,0.080582,-0.084457
1119,11.19,0.501976,-0.81486,-0.816852,0.049011,0.027328,-0.194168
1120,11.2,1.6110229999999999,-0.937699,-0.46637,-0.03727699999999999,-0.093048,-0.270874
1121,11.21,2.538675,-1.0859999999999999,0.205548,-0.11824000000000001,-0.220886,-0.326263
1122,11.22,3.3246089999999997,-0.8959010000000001,0.765835,-0.139542,-0.357239,-0.37846399999999997
1123,11.23,3.4047739999999997,-0.934851,1.276023,-0.094803,-0.517029,-0.422134
1124,11.24,3.058971,-0.923225,1.7474619999999998,0.002135999999999999,-0.659775,-0.440247
1125,11.25,1.983644,-1.0880889999999999,1.609728,0.110794,-0.72049,-0.44131499999999996
1126,11.26,0.883438,-1.175015,0.784728,0.175781,-0.7524569999999999,-0.444504
1127,11.27,-0.437749,-1.3715959999999998,-0.025725,0.15979000000000002,-0.7875979999999999,-0.45942700000000003
1128,11.28,-1.829034,-1.7572310000000002,-0.392679,0.100143,-0.819565,-0.472214
1129,11.29,-3.191448,-2.172023,-0.5950479999999999,0.045807,-0.827026,-0.470078
1130,11.3,-4.118293,-2.496334,-0.611796,-0.0031890000000000013,-0.780151,-0.45516999999999996
1131,11.31,-4.481881,-2.8020099999999997,-0.5762970000000001,-0.045807,-0.6714939999999999,-0.41255200000000003
1132,11.32,-4.119308999999999,-2.86565,-0.527193,-0.087341,-0.5266109999999999,-0.351837
1133,11.33,-3.063671,-2.6109400000000003,-0.545632,-0.111847,-0.37854,-0.28578200000000004
1134,11.34,-1.946334,-2.3823369999999997,-0.733722,-0.124634,-0.25816300000000003,-0.23465
1135,11.35,-1.037557,-2.009536,-0.9690049999999999,-0.133148,-0.193192,-0.181396
1136,11.36,-0.269923,-1.769511,-1.1564299999999998,-0.15125999999999998,-0.181473,-0.121735
1137,11.37,0.28671399999999997,-1.576488,-1.1417540000000002,-0.156586,-0.211304,-0.073792
1138,11.38,0.517826,-1.611552,-1.172231,-0.144867,-0.269882,-0.036514
1139,11.39,0.37995999999999996,-1.6710779999999998,-1.188051,-0.12356600000000001,-0.34126300000000004,-0.016281
1140,11.4,0.05274100000000001,-1.891184,-1.1850180000000001,-0.103317,-0.414764,0.0028990000000000005
1141,11.41,-0.33291,-2.083871,-1.1946700000000001,-0.083084,-0.48507700000000004,0.028473000000000002
1142,11.42,-0.607273,-2.0525900000000004,-1.151933,-0.069229,-0.531937,0.060425
1143,11.43,-0.688583,-1.6676799999999998,-0.9422719999999999,-0.052185,-0.57135,0.09877000000000001
1144,11.44,-0.6807880000000001,-0.9098290000000001,-0.679779,0.002135999999999999,-0.603317,0.14032
1145,11.45,-0.441234,-0.11898799999999997,-0.826335,0.10865799999999999,-0.629944,0.179733
1146,11.46,-0.177053,0.278851,-1.379327,0.21092199999999997,-0.63208,0.190384
1147,11.47,0.19787000000000002,0.28071199999999996,-1.790976,0.238632,-0.6022489999999999,0.170151
1148,11.48,0.368175,0.19733399999999998,-1.730056,0.202408,-0.59906,0.148834
1149,11.49,0.184406,0.446536,-1.3607420000000001,0.139557,-0.62355,0.129669
1150,11.5,-0.4794540000000001,0.9127139999999999,-0.9361430000000001,0.103333,-0.637405,0.108368
1151,11.51,-1.438525,1.60287,-0.793572,0.088425,-0.585205,0.067886
1152,11.52,-2.449534,2.441705,-1.046717,0.100143,-0.475479,-0.0045620000000000036
1153,11.53,-2.894098,3.373737,-1.737027,0.12677,-0.381744,-0.07699600000000001
1154,11.54,-2.123653,4.065434,-2.421243,0.177902,-0.334869,-0.137711
1155,11.55,-0.8773920000000001,4.723017,-2.862373,0.23330700000000001,-0.371094,-0.182449
1156,11.56,0.748688,5.405342,-2.642205,0.20559699999999997,-0.44564799999999993,-0.20695500000000003
1157,11.57,1.214742,6.025223,-0.916637,-0.075623,-0.465897,-0.254898
1158,11.58,0.433894,6.246346,2.154761,-0.3004,-0.428604,-0.33905
1159,11.59,-0.414418,5.363573000000001,4.4603720000000004,-0.285477,-0.25711100000000003,-0.460495
1160,11.6,-1.350376,3.9198809999999997,5.44693,-0.25459299999999996,0.06353800000000001,-0.572342
1161,11.61,-2.164312,1.948443,6.0964540000000005,-0.204529,0.289383,-0.6149600000000001
1162,11.62,-2.223305,0.551546,6.046725,-0.05964700000000001,0.402298,-0.576599
1163,11.63,-1.134722,-0.123378,5.114368,0.109726,0.396973,-0.48605299999999996
1164,11.64,0.24803999999999995,-0.272992,3.802311,0.24500999999999998,0.40976,-0.39231900000000003
1165,11.65,1.11153,-0.259403,2.3031099999999998,0.336624,0.41188,-0.282593
1166,11.66,1.741136,-0.185185,0.799125,0.381378,0.372467,-0.13877899999999999
1167,11.67,2.039397,-0.529584,-0.420349,0.355804,0.29470799999999997,0.009292999999999996
1168,11.68,1.9100439999999999,-1.120447,-0.801832,0.269516,0.225464,0.125412
1169,11.69,1.1933770000000001,-1.9695790000000002,-0.70304,0.170456,0.181778,0.213821
1170,11.7,-0.15871599999999994,-2.683373,-0.38926700000000003,0.044754,0.18924000000000002,0.283066
1171,11.71,-1.6939990000000003,-3.3543269999999996,0.02680099999999999,-0.093735,0.226532,0.357635
1172,11.72,-3.093713,-3.337017,0.5395,-0.236481,0.327728,0.413025
1173,11.73,-4.3617099999999995,-2.8576349999999997,1.044675,-0.360046,0.49498000000000003,0.432205
1174,11.74,-4.9909930000000005,-1.606425,1.408984,-0.430359,0.699509,0.430069
1175,11.75,-4.374082,-0.672449,1.9201169999999999,-0.434616,0.928543,0.442856
1176,11.76,-2.561123,0.06453799999999997,1.938705,-0.32595799999999997,1.1351930000000001,0.441788
1177,11.77,-0.2796979999999998,0.34189,1.750315,-0.189606,1.2854,0.44604499999999997
1178,11.78,2.33901,0.216342,1.481364,-0.071365,1.356766,0.441788
1179,11.79,4.435055,-0.266372,1.130831,0.037291999999999985,1.346115,0.413025
1180,11.8,5.878792,-0.932689,0.623092,0.129974,1.232132,0.390656
1181,11.81,6.4259059999999995,-1.619476,-0.051898,0.1875,1.045715,0.36615
1182,11.82,5.879375,-2.183856,-0.749625,0.20880100000000001,0.808167,0.336334
1183,11.83,4.610501,-2.575813,-1.310719,0.194946,0.562088,0.31076
1184,11.84,2.9550389999999997,-2.7551740000000002,-1.6625240000000001,0.158737,0.360748,0.270279
1185,11.85,1.473478,-2.693895,-1.8580349999999999,0.103333,0.232925,0.22447199999999998
1186,11.86,0.431846,-2.445723,-2.02197,0.037292,0.16687000000000002,0.179733
1187,11.87,-0.387763,-2.24416,-2.134115,-0.038345,0.139175,0.132858
1188,11.88,-0.7924329999999999,-2.026384,-2.018545,-0.111847,0.134918,0.099838
1189,11.89,-0.681986,-1.711697,-1.7593830000000001,-0.169373,0.135986,0.082794
1190,11.9,-0.13388999999999995,-1.439519,-1.344753,-0.19280999999999998,0.140244,0.072144
1191,11.91,0.4155180000000001,-1.162086,-1.011125,-0.168304,0.159409,0.062561
1192,11.92,0.72288,-0.855684,-0.847659,-0.10545299999999999,0.180725,0.048706
1193,11.93,0.835742,-0.549722,-0.80883,-0.026627,0.225464,0.030594
1194,11.94,0.797547,-0.403291,-1.020921,0.045807,0.267014,-0.006682999999999996
1195,11.95,0.614482,-0.466642,-1.275922,0.10653699999999999,0.305359,-0.040770999999999995
1196,11.96,0.203031,-0.654909,-1.562079,0.143814,0.33624299999999996,-0.061020000000000005
1197,11.97,-0.32823,-0.660542,-1.8434979999999999,0.147018,0.363953,-0.061020000000000005
1198,11.98,-0.80625,-0.46771,-1.8817990000000002,0.104401,0.437454,-0.07699600000000001
1199,11.99,-0.987442,-0.009433000000000023,-1.7795759999999998,0.011719,0.5546260000000001,-0.114273
1200,12.0,-0.426539,0.9067069999999999,-1.584522,-0.094803,0.671814,-0.136642
1201,12.01,0.833413,2.010135,-1.355995,-0.166168,0.742111,-0.121735
1202,12.02,2.230114,3.007032,-1.180617,-0.138474,0.741043,-0.080185
1203,12.03,3.36383,3.684708,-1.263886,-0.026627,0.659027,-0.012009
1204,12.04,3.7123760000000003,4.108037,-1.707268,0.10865799999999999,0.484314,0.08492999999999999
1205,12.05,2.984909,4.400947,-2.139113,0.21519499999999997,0.278717,0.204239
1206,12.06,1.8543049999999999,4.611244,-2.151528,0.19601400000000002,0.11041300000000001,0.312897
1207,12.07,1.327687,4.7710300000000005,-0.738707,-0.08415200000000002,0.056090999999999995,0.324615
1208,12.08,1.093832,4.703229,1.7558479999999999,-0.32702600000000004,0.051819000000000004,0.254303
1209,12.09,0.373704,4.010075,3.5584629999999997,-0.28442399999999995,-0.051514,0.243652
1210,12.1,-0.422018,2.806306,4.4862470000000005,-0.20559699999999997,-0.171875,0.30011
1211,12.11,-1.033643,2.023257,5.207577,-0.20239300000000002,-0.216629,0.393845
1212,12.12,-1.4410690000000002,1.249967,5.688409,-0.18748499999999998,-0.160172,0.465225
1213,12.13,-1.607016,0.683253,5.690564,-0.096939,-0.077072,0.488663
1214,12.14,-1.54233,0.389685,4.768339,0.072449,0.00708,0.436462
1215,12.15,-1.633155,0.191673,3.2117310000000003,0.288696,0.014542,0.340591
1216,12.16,-1.621652,0.19655999999999998,1.2818989999999997,0.44316099999999997,-0.033401,0.22979699999999997
1217,12.17,-1.365673,0.234368,-0.254349,0.486832,-0.10051,0.11581400000000001
1218,12.18,-0.8826809999999999,0.17463499999999998,-0.915009,0.45488,-0.139923,-0.00028999999999999865
1219,12.19,-0.18208800000000006,-0.212865,-1.0792059999999999,0.382431,-0.135666,-0.110016
1220,12.2,0.732002,-0.342279,-1.039241,0.294022,-0.131409,-0.202698
1221,12.21,1.7248689999999998,-0.237083,-0.62969,0.19708299999999998,-0.129272,-0.299637
1222,12.22,2.425738,-0.521029,-0.060999000000000025,0.14488199999999998,-0.154831,-0.400833
1223,12.23,2.623974,-1.107589,0.353582,0.158737,-0.238998,-0.48925799999999997
1224,12.24,2.448269,-1.71452,0.520679,0.193878,-0.343384,-0.5499729999999999
1225,12.25,1.641146,-2.318781,0.43248500000000006,0.21731599999999998,-0.436066,-0.589386
1226,12.26,0.702707,-2.765873,0.11928399999999999,0.213058,-0.5330050000000001,-0.582993
1227,12.27,-0.29685300000000003,-3.194573,-0.212101,0.181107,-0.625687,-0.548904
1228,12.28,-1.2069940000000001,-3.5170739999999996,-0.447025,0.11186199999999999,-0.686401,-0.5030979999999999
1229,12.29,-2.0093099999999997,-3.656118,-0.5343939999999999,0.024506,-0.714096,-0.46475200000000005
1230,12.3,-2.654601,-3.588851,-0.634702,-0.06178300000000001,-0.723694,-0.429596
1231,12.31,-2.887127,-3.40305,-0.734897,-0.164047,-0.73114,-0.382721
1232,12.32,-2.703814,-3.206656,-0.750293,-0.290817,-0.723694,-0.344376
1233,12.33,-2.177123,-2.986472,-0.402431,-0.41970799999999997,-0.70665,-0.297501
1234,12.34,-1.6380350000000001,-2.541594,0.19633300000000006,-0.5038600000000001,-0.699188,-0.237854
1235,12.35,-1.3060530000000001,-1.81303,0.7754489999999999,-0.531555,-0.668289,-0.16008
1236,12.36,-1.11514,-0.800886,1.142557,-0.497467,-0.595856,-0.080185
1237,12.37,-1.085582,-0.07438100000000003,1.056853,-0.411179,-0.5202180000000001,-0.025863999999999998
1238,12.38,-1.022291,0.185412,0.556528,-0.302536,-0.449921,0.0007629999999999997
1239,12.39,-0.9984569999999999,0.14138399999999998,-0.17986300000000002,-0.203461,-0.414764,-0.0013579999999999994
1240,12.4,-1.023616,-0.320333,-0.685846,-0.128891,-0.40518200000000004,-0.016281
1241,12.41,-1.095193,-0.8933399999999999,-0.9786549999999999,-0.08201599999999999,-0.399841,-0.027999999999999997
1242,12.42,-1.068314,-1.302461,-1.045725,-0.06604,-0.379608,-0.020538
1243,12.43,-0.9557209999999999,-1.4244299999999999,-1.035893,-0.057510000000000006,-0.357239,0.01355
1244,12.44,-0.744211,-1.108689,-1.0775,-0.034088,-0.34126300000000004,0.07746900000000001
1245,12.45,-0.615916,-0.547075,-1.280381,0.013855,-0.35191300000000003,0.156296
1246,12.46,-0.543445,0.16713299999999998,-1.7408240000000001,0.09375,-0.382797,0.231934
1247,12.47,-0.49163999999999997,0.646958,-2.450055,0.17897000000000002,-0.42222600000000005,0.27774
1248,12.48,-0.2089,0.663273,-2.906183,0.214127,-0.457367,0.29904200000000003
1249,12.49,0.151099,0.46825100000000003,-2.726608,0.176834,-0.482941,0.28625500000000004
1250,12.5,0.010879999999999999,0.385106,-2.0422849999999997,0.100143,-0.5106350000000001,0.24151599999999998
1251,12.51,-0.657166,0.784317,-1.407059,0.054337,-0.527679,0.16908299999999998
1252,12.52,-1.7477900000000002,1.47086,-1.294974,0.077774,-0.5084989999999999,0.101974
1253,12.53,-2.385431,2.1057770000000002,-1.508789,0.139557,-0.429672,0.058289
1254,12.54,-2.317296,2.743146,-1.8697689999999998,0.20134000000000002,-0.292252,0.030594
1255,12.55,-1.7521330000000002,3.2209060000000003,-2.158241,0.232239,-0.150574,0.008223999999999999
1256,12.56,-1.039319,3.256696,-2.057236,0.252472,-0.069611,-0.00029000000000000016
1257,12.57,-0.183032,3.518935,-1.858337,0.30574,-0.118622,0.008223999999999999
1258,12.58,0.968455,4.216080000000001,-1.726421,0.255676,-0.24218800000000001,-0.016281
1259,12.59,0.9061799999999999,4.730325,-0.538291,-0.06178300000000001,-0.383865,-0.101501
1260,12.6,-0.253632,4.526815,2.729366,-0.350464,-0.544724,-0.21653699999999998
1261,12.61,-0.771323,3.401989,5.911512999999999,-0.351532,-0.550049,-0.307098
1262,12.62,-1.3055290000000002,2.065389,7.697779,-0.19599900000000006,-0.332733,-0.37846399999999997
1263,12.63,-1.9257669999999998,0.812083,8.016086,0.029831,-0.04830899999999999,-0.404037
1264,12.64,-1.5522120000000001,0.237316,6.77015,0.268448,0.167938,-0.381653
1265,12.65,-0.258112,0.163269,4.32871,0.42504899999999995,0.363953,-0.346512
1266,12.66,0.7429249999999998,0.275471,2.171741,0.44528199999999996,0.438507,-0.29643200000000003
1267,12.67,1.288093,0.7951189999999999,0.6263500000000001,0.402679,0.42253100000000005,-0.20163
1268,12.68,1.5989280000000001,1.125523,-0.26635,0.325974,0.395905,-0.07913200000000001
1269,12.69,1.458393,1.1296549999999999,-0.18649200000000002,0.22903400000000002,0.3927,0.021011
1270,12.7,0.412464,0.566955,0.319619,0.174713,0.426804,0.092377
1271,12.71,-0.7300790000000001,-0.36883699999999997,0.704024,0.13742100000000002,0.48645,0.153107
1272,12.72,-2.079891,-1.543396,1.380372,0.09800700000000001,0.573807,0.23619099999999998
1273,12.73,-3.261002,-2.679178,2.06923,0.075638,0.741043,0.321411
1274,12.74,-4.246244,-3.488545,2.084181,0.086288,0.900833,0.401306
1275,12.75,-4.665039,-3.7807230000000005,1.619569,0.08949299999999999,1.026535,0.47161899999999995
1276,12.76,-4.450807,-3.34481,0.8998079999999999,0.0522,1.163956,0.49185200000000007
1277,12.77,-3.4651660000000004,-2.6905509999999997,0.273124,-0.011718999999999995,1.296051,0.5046390000000001
1278,12.78,-1.8100479999999999,-1.9057979999999999,-0.143715,-0.07989500000000001,1.371689,0.5131680000000001
1279,12.79,0.2570410000000001,-1.377858,-0.12431400000000001,-0.137405,1.4025729999999998,0.505707
1280,12.8,2.559803,-1.1061530000000002,0.196512,-0.157654,1.413239,0.478012
1281,12.81,4.581743,-1.028528,0.30699499999999996,-0.131027,1.400452,0.439651
1282,12.82,5.914752,-1.173972,0.121555,-0.088409,1.34079,0.386398
1283,12.83,6.266218,-1.412931,-0.145295,-0.051132,1.226807,0.327805
1284,12.84,5.594913,-1.535622,-0.582184,-0.010651,1.048904,0.260696
1285,12.85,4.171225,-1.63745,-0.945118,0.019180000000000003,0.844376,0.195709
1286,12.86,2.4773650000000003,-1.733888,-1.29703,0.046875,0.670746,0.149902
1287,12.87,1.0883129999999999,-1.6750900000000002,-1.586554,0.056473,0.534393,0.10304300000000001
1288,12.88,0.01612799999999992,-1.687209,-1.710272,0.037292,0.438507,0.062561
1289,12.89,-0.622223,-1.91579,-1.746429,-0.017044,0.38205,0.021011000000000002
1290,12.9,-0.794752,-2.1595150000000003,-1.5950360000000001,-0.083084,0.355423,-0.014145
1291,12.91,-0.652529,-2.226493,-1.291272,-0.125702,0.35968,-0.036514
1292,12.92,-0.45728500000000005,-2.130191,-1.082643,-0.142746,0.403366,-0.045044
1293,12.93,-0.172151,-1.669664,-1.033013,-0.12356600000000001,0.464081,-0.036514
1294,12.94,0.116664,-1.009587,-1.278532,-0.08522,0.526932,-0.025863999999999998
1295,12.95,0.399345,-0.511966,-1.7984779999999998,-0.041533999999999995,0.569534,-0.036514
1296,12.96,0.281828,-0.404771,-2.172472,-0.015976,0.578064,-0.067413
1297,12.97,-0.06566799999999999,-0.507025,-2.3217950000000003,-0.022369,0.5524899999999999,-0.092972
1298,12.98,-0.398934,-0.44599300000000003,-1.960611,-0.037277,0.562088,-0.11322
1299,12.99,-0.721299,-0.304603,-1.279191,-0.045807,0.641983,-0.143036
1300,13.0,-0.698166,0.163665,-0.857927,-0.058578,0.75383,-0.16860999999999998
1301,13.01,-0.206527,0.8626860000000001,-0.7711060000000001,-0.09906000000000001,0.816681,-0.157959
1302,13.02,0.646785,1.723397,-0.8664350000000001,-0.121429,0.78685,-0.099365
1303,13.03,1.563893,2.5931349999999997,-0.995534,-0.091599,0.723999,-0.020538
1304,13.04,2.29535,3.3587059999999997,-1.4673,-0.004257000000000004,0.619614,0.048706
1305,13.05,2.3045139999999997,3.5466050000000005,-2.039339,0.10760499999999999,0.44703699999999996,0.116882
1306,13.06,1.7918040000000002,3.5832940000000004,-2.2411060000000003,0.207733,0.324524,0.19252
1307,13.07,0.656072,3.731843,-2.135769,0.300415,0.318146,0.231934
1308,13.08,-0.697947,3.9524559999999997,-1.502838,0.254608,0.374603,0.223404
1309,13.09,-1.3256139999999998,4.164215,-0.23791700000000005,0.009597999999999995,0.5077510000000001,0.188263
1310,13.1,-1.094233,4.029577,1.837014,-0.19706700000000002,0.6270600000000001,0.162689
1311,13.11,-1.5211940000000002,3.697023,3.6458519999999996,-0.154449,0.638779,0.175476
1312,13.12,-1.9853990000000001,2.786901,4.528636,-0.07775900000000001,0.562088,0.279861
1313,13.13,-2.203205,1.724789,5.43578,-0.070297,0.4758,0.429001
1314,13.14,-2.201788,0.5279,5.947051999999999,-0.025558,0.426804,0.558975
1315,13.15,-2.007942,-0.438723,5.207113,0.07457000000000001,0.44703699999999996,0.635666
1316,13.16,-1.9032740000000001,-0.8615209999999999,3.655925,0.20880100000000001,0.450226,0.613297
1317,13.17,-2.227171,-0.875341,1.917573,0.316391,0.43638599999999994,0.5099640000000001
1318,13.18,-2.220039,-0.369317,0.14300000000000002,0.33129899999999995,0.41508500000000004,0.360825
1319,13.19,-1.808059,0.44782700000000003,-0.704651,0.213058,0.43318199999999996,0.203171
1320,13.2,-1.0951520000000001,0.864334,-0.41192700000000004,0.044754,0.522675,0.04338099999999999
1321,13.21,0.14675899999999995,0.911718,-0.055846000000000014,-0.051132,0.623871,-0.105759
1322,13.22,1.082797,1.062387,-0.22047399999999998,-0.090546,0.634521,-0.226135
1323,13.23,2.082073,0.7577649999999999,-0.058607999999999986,-0.143799,0.550369,-0.318817
1324,13.24,2.639241,0.08901699999999996,0.715138,-0.167236,0.417206,-0.39869699999999997
1325,13.25,2.86292,-0.405787,1.5074530000000002,-0.128891,0.259552,-0.44131499999999996
1326,13.26,3.26744,-0.776651,1.8865610000000002,-0.051132,0.10189800000000003,-0.47753900000000005
1327,13.27,2.290457,-1.5954700000000002,0.8632850000000001,0.10760499999999999,-0.19426,-0.49777200000000005
1328,13.28,1.0912819999999999,-1.819343,0.127832,0.110794,-0.356171,-0.493515
1329,13.29,-0.34382,-1.918075,-0.259479,0.076706,-0.465897,-0.481796
1330,13.3,-1.770425,-1.948639,-0.367194,0.040482,-0.514893,-0.473267
1331,13.31,-3.119916,-2.0677849999999998,-0.364154,0.0010679999999999995,-0.49145500000000003,-0.45196499999999995
1332,13.32,-3.81251,-2.251872,-0.304321,-0.034088,-0.41795299999999996,-0.42108199999999996
1333,13.33,-3.96781,-2.317392,-0.306372,-0.063904,-0.318893,-0.386993
1334,13.34,-3.560133,-2.538769,-0.30336799999999997,-0.097992,-0.20597800000000002,-0.346512
1335,13.35,-2.824134,-2.603264,-0.342099,-0.121429,-0.112228,-0.300705
1336,13.36,-2.001637,-2.4443900000000003,-0.45771000000000006,-0.139542,-0.037659,-0.24211100000000002
1337,13.37,-1.2141440000000001,-2.235989,-0.650882,-0.157654,0.014542,-0.176071
1338,13.38,-0.597607,-2.024337,-0.798451,-0.161911,0.039047000000000005,-0.118546
1339,13.39,-0.263671,-1.789696,-0.966383,-0.15019200000000002,0.044373,-0.062088
1340,13.4,-0.437037,-1.811261,-1.171059,-0.131027,0.045425,-0.024796000000000002
1341,13.41,-0.799708,-1.9867720000000002,-1.521654,-0.124634,0.043304,0.018875
1342,13.42,-1.224352,-2.110875,-1.8261630000000002,-0.138474,0.028381,0.06149299999999999
1343,13.43,-1.484033,-1.9864700000000002,-1.914712,-0.18321199999999999,0.027327999999999998,0.091324
1344,13.44,-1.5556729999999999,-1.7133330000000002,-1.7840349999999998,-0.23222399999999999,0.027327999999999998,0.12008699999999999
1345,13.45,-1.4439870000000001,-1.067898,-1.492787,-0.233292,0.012405,0.145645
1346,13.46,-1.143006,-0.27778800000000003,-1.406717,-0.170441,-0.021683000000000004,0.180801
1347,13.47,-0.815177,0.318968,-1.5434809999999999,-0.072433,-0.07281499999999999,0.22235100000000002
1348,13.48,-0.349613,0.702587,-1.557256,0.019180000000000003,-0.138855,0.260696
1349,13.49,0.061582000000000005,0.869526,-1.439152,0.087357,-0.214493,0.29585300000000003
1350,13.5,0.13608499999999998,1.040311,-1.134349,0.134232,-0.307175,0.31929
1351,13.51,-0.25111500000000003,1.301052,-0.799901,0.16832,-0.400909,0.336334
1352,13.52,-1.188401,1.6304040000000002,-0.5336029999999999,0.19708299999999998,-0.426483,0.329941
1353,13.53,-2.095501,2.1057639999999997,-0.644515,0.226913,-0.33061199999999996,0.28093
1354,13.54,-2.647352,2.524581,-1.300086,0.24075300000000002,-0.193192,0.193588
1355,13.55,-2.731074,3.012426,-2.172777,0.242889,-0.09411599999999999,0.099838
1356,13.56,-2.374952,3.6217989999999998,-2.9216130000000002,0.249283,-0.058960000000000005,0.026337
1357,13.57,-1.232003,4.845471,-3.1782209999999997,0.214127,-0.076004,-0.034378
1358,13.58,-0.03613,6.150104,-2.3714419999999996,-0.025558,-0.126083,-0.096176
1359,13.59,-0.444703,6.459823,0.486918,-0.370712,-0.184662,-0.166473
1360,13.6,-1.0555379999999999,5.486809,4.127489,-0.37390100000000004,-0.156967,-0.21121199999999998
1361,13.61,-1.490054,4.221915,6.098682,-0.169373,0.073135,-0.280457
1362,13.62,-2.045915,2.7247470000000003,6.523749,-0.0010529999999999984,0.396973,-0.356094
1363,13.63,-2.069655,1.150295,6.273678,0.161926,0.624939,-0.381653
1364,13.64,-1.718705,0.07237899999999993,5.246256,0.320648,0.7399899999999999,-0.374207
1365,13.65,-0.90851,-0.618084,3.6544190000000003,0.409073,0.858231,-0.323074
1366,13.66,-0.178203,-0.707808,1.969227,0.44635,0.957291,-0.23678600000000002
1367,13.67,0.249203,-0.47430500000000003,0.32900100000000004,0.449554,0.980728,-0.132385
1368,13.68,0.5498689999999999,-0.46256400000000003,-0.734644,0.39308200000000004,0.963684,-0.019469999999999998
1369,13.69,0.694029,-0.887077,-0.8226610000000001,0.298279,0.951965,0.079605
1370,13.7,0.10686,-1.433114,-0.44877,0.23117100000000002,0.975403,0.160553
1371,13.71,-0.761423,-1.9386450000000002,-0.092537,0.180038,1.03186,0.235123
1372,13.72,-1.9033639999999998,-2.582984,0.335169,0.10653699999999999,1.093658,0.33313000000000004
1373,13.73,-3.042232,-3.051246,0.698176,0.013855000000000001,1.142654,0.42794799999999994
1374,13.74,-3.860589,-2.9389540000000003,0.8589190000000001,-0.097992,1.242783,0.49612399999999995
1375,13.75,-4.493453,-2.621687,0.836116,-0.22264099999999998,1.379135,0.5227510000000001
1376,13.76,-4.724926,-1.646311,0.78233,-0.330231,1.549591,0.5131680000000001
1377,13.77,-3.8883330000000003,-0.626496,0.96824,-0.394135,1.733871,0.515289
1378,13.78,-2.123954,0.17427199999999998,1.426677,-0.39308200000000004,1.906448,0.505707
1379,13.79,0.127807,0.718063,2.103055,-0.32595799999999997,2.0417330000000002,0.49717700000000004
1380,13.8,2.295444,0.523826,2.596386,-0.177887,2.116302,0.487595
1381,13.81,4.141438,0.023245000000000016,2.244787,0.0053410000000000115,2.128021,0.470551
1382,13.82,5.311364,-0.7065130000000001,1.260192,0.1353,2.064102,0.441788
1383,13.83,5.52568,-1.462895,-0.07097200000000004,0.193878,1.911774,0.394913
1384,13.84,4.738647,-2.105253,-1.197243,0.16832,1.697662,0.340591
1385,13.85,3.222819,-2.559128,-1.9885549999999999,0.08949299999999999,1.44838,0.285202
1386,13.86,1.847766,-2.647365,-2.3165720000000003,-0.009583,1.220413,0.24258400000000002
1387,13.87,0.499463,-2.473645,-2.233761,-0.103317,1.057434,0.20742800000000003
1388,13.88,-0.42880799999999997,-2.143195,-1.8754810000000002,-0.18428,0.964752,0.17440799999999998
1389,13.89,-0.795679,-1.738882,-1.1375170000000001,-0.24394200000000002,0.907227,0.143509
1390,13.9,-0.606757,-1.321374,-0.39448,-0.24819899999999998,0.893387,0.110489
1391,13.91,-0.07421899999999998,-1.308712,-0.159979,-0.199203,0.9189450000000001,0.068939
1392,13.92,0.450715,-1.539132,-0.332758,-0.137405,0.928543,0.033798
1393,13.93,0.865401,-1.685212,-0.45518000000000003,-0.094803,0.910431,0.002898999999999999
1394,13.94,1.126665,-1.6198649999999999,-0.6603760000000001,-0.03941299999999999,0.8624879999999999,-0.021606
1395,13.95,1.1493229999999999,-1.2332670000000001,-1.109869,0.035156,0.837982,-0.037582
1396,13.96,0.704455,-0.761552,-1.8174080000000001,0.091614,0.8550260000000001,-0.069534
1397,13.97,0.26256399999999996,-0.42241999999999996,-2.479361,0.10865799999999999,0.877396,-0.114273
1398,13.98,-0.183443,-0.352094,-2.9328119999999998,0.08416699999999999,0.8518370000000001,-0.159027
1399,13.99,-0.534737,-0.35418099999999997,-2.81597,0.044754,0.798569,-0.177124
1400,14.0,-0.750638,-0.256328,-2.402287,0.029831,0.734665,-0.17926
1401,14.01,-0.699567,0.06773200000000001,-1.7795560000000001,0.045807,0.672867,-0.175003
1402,14.02,-0.398988,0.6107859999999999,-1.004305,0.073517,0.641983,-0.16860999999999998
1403,14.03,0.162293,1.347813,-0.54569,0.10653699999999999,0.666473,-0.150497
1404,14.04,0.9549979999999999,1.930882,-0.548251,0.131027,0.709091,-0.09404
1405,14.05,1.886509,2.3671580000000003,-0.784936,0.158737,0.713348,-0.023727
1406,14.06,2.6322,2.6419349999999997,-1.2896530000000002,0.19708299999999998,0.659027,0.038055
1407,14.07,2.33314,2.739361,-1.876052,0.254608,0.543976,0.078537
1408,14.08,1.395924,2.719047,-2.260868,0.315323,0.460892,0.122208
1409,14.09,0.17908999999999994,2.836257,-2.04751,0.357941,0.44917299999999993,0.12114000000000001
1410,14.1,-1.216891,3.3932919999999998,-1.438061,0.285492,0.534393,0.042312999999999996
1411,14.11,-2.0200810000000002,4.024676,0.07778099999999999,-0.054321000000000015,0.710159,-0.06953400000000001
1412,14.12,-2.145769,4.109227,3.068771,-0.357925,0.8113560000000001,-0.101501
1413,14.13,-2.437088,3.8816010000000003,5.695953,-0.250336,0.818817,-0.007751000000000002
1414,14.14,-2.7876369999999997,3.102405,6.293036,-0.029815999999999995,0.824142,0.164825
1415,14.15,-3.2986169999999997,2.037386,6.011647,0.07457000000000001,0.912552,0.33313000000000004
