,ts,ax,ay,az,wx,wy,wz
0,0.0,0.022118000000000002,-0.021277,0.048061,-0.0009609999999999999,-0.00033599999999999993,-0.00042700000000000013
1,0.01,0.005703,0.006776999999999999,-0.026086,-0.0009609999999999999,0.001801,-0.005753
2,0.02,-0.019427,0.011694,-0.040991,-0.003098,-0.001389,-0.0025629999999999997
3,0.03,-0.002239,0.011662,-0.039295,-0.008423,-0.002457,-0.003632
4,0.04,-0.021876,0.026782999999999998,-0.039337000000000004,-0.008423,-0.006714,-0.003632
5,0.05,-0.025471,0.085092,-0.024306999999999995,-0.011627,-0.00885,-0.0025629999999999997
6,0.06,-0.033338,0.069472,-0.018219,-0.011627,-0.005661,-0.0004269999999999999
7,0.07,-0.008998000000000003,0.050682,0.01551,-0.014816,-0.001389,-0.001495
8,0.08,-0.004674,-0.0044420000000000015,0.006431999999999999,-0.018005,0.0039369999999999995,0.0006259999999999999
9,0.09,0.00774,-0.046116000000000004,0.025559000000000002,-0.022278,0.000732,-0.00042700000000000013
10,0.1,-0.003972,-0.080581,-0.016605,-0.023331,-0.001389,-0.003632
11,0.11,-0.000196,-0.036017,0.04514399999999999,-0.025467,-0.006714,-0.0025629999999999997
12,0.12,-0.010056,0.013297999999999999,0.0578,-0.028671,-0.013106999999999999,-0.0025629999999999997
13,0.13,-0.025146,0.023956,0.057687,-0.026535000000000003,-0.007781999999999999,-0.001495
14,0.14,-0.002077,0.005825,-0.0005329999999999989,-0.023331,-0.00885,0.002762
15,0.15,0.0013420000000000005,-0.020685,-0.001456,-0.022278,-0.007781999999999999,0.0016940000000000002
16,0.16,-0.007932999999999999,-0.036364,-0.045044,-0.018005,-0.0013890000000000007,0.002762
17,0.17,0.032369999999999996,0.0033799999999999998,-0.032805,-0.019073,-0.000336,-0.0004270000000000003
18,0.18,0.008975,-0.040644,-0.019454,-0.022278,0.001801,-0.00042699999999999997
19,0.19,0.017961,-0.004876000000000003,-0.048692,-0.024399,0.002869,0.0006259999999999999
20,0.2,0.0020859999999999997,-0.02648,-0.0030139999999999963,-0.024399,0.006058,-0.003632
21,0.21,0.008705,-0.008838,0.022462,-0.024399,0.007126,-0.001495
22,0.22,0.045551,0.008012,0.053958000000000006,-0.024399,0.007126,-0.003632
23,0.23,0.04292,0.025223,0.02434,-0.020142,0.007126,-0.003632
24,0.24,0.013527000000000004,0.042658,0.014485,-0.018005,0.007126,-0.005753
25,0.25,0.0122,0.01676,-0.0015989999999999995,-0.016953,0.008194,-0.0047
26,0.26,-0.00298,0.025552000000000002,0.022794,-0.018005,0.010329999999999999,-0.0004269999999999994
27,0.27,-0.008636,-0.032751999999999996,0.01719,-0.018005,0.009262000000000001,-0.00042700000000000013
28,0.28,0.016475,-0.062675,0.004329,-0.016953,0.008194,0.004898
29,0.29,0.022534000000000002,-0.07133300000000001,0.012363,-0.016953,0.007126,0.0016940000000000002
30,0.3,0.01521,-0.042192,-0.019486,-0.015884,0.006058,0.004898
31,0.31,0.01028,-0.020679,-0.023096000000000002,-0.018005,0.006058,0.005966
32,0.32,-0.0032,0.025005,-0.012348,-0.023331,0.009262000000000001,0.0038299999999999996
33,0.33,0.002385,0.022966999999999998,0.02547,-0.019073,0.0028690000000000005,0.004898
34,0.34,-0.017436,0.020744,0.060061,-0.010559,0.000732,0.004898
35,0.35,-0.003001,0.067732,0.103453,0.005431999999999999,-0.001389,0.007019
36,0.36,-0.011828,0.068995,0.103762,0.016083,0.000732,0.007019
37,0.37,0.007002000000000003,0.035898,0.095728,0.021408,0.002869,0.007019
38,0.38,-0.025116,-0.024598,0.104582,0.024597,0.005005,0.007019
39,0.39,0.01069,-0.040793,0.060584000000000006,0.028854,0.005005,0.004898
40,0.4,0.023684,-0.01611,0.034404000000000004,0.030991,0.006058,0.0038299999999999996
41,0.41,-0.009141,0.004671,0.004625000000000001,0.036316,0.011382999999999999,0.0038299999999999996
42,0.42,0.012802000000000001,0.0011849999999999983,0.014605000000000002,0.038452,0.017776,0.002762
43,0.43,0.029872000000000003,0.029939999999999998,-0.009703,0.035248,0.014587000000000001,0.002762000000000001
44,0.44,0.017477,-0.003839,-0.075641,0.033127,0.016708,0.002762
45,0.45,-0.0007740000000000004,0.0006680000000000003,-0.031553,0.032059,0.017776,0.002762
46,0.46,0.0017560000000000006,-0.054914,-0.079855,0.027801999999999997,0.016708,0.0038299999999999996
47,0.47,-0.023589,-0.026027999999999996,-0.055357,0.026733,0.017776,0.0006259999999999999
48,0.48,-0.015184,-0.012208,-0.08673099999999999,0.026733,0.018844999999999997,0.004898
49,0.49,-0.040494,-0.016219,-0.065085,0.025664999999999997,0.019913,0.002762
50,0.5,-0.062467999999999996,0.001087999999999999,-0.079416,0.026733,0.022049000000000003,0.0038299999999999996
51,0.51,-0.040435000000000006,0.003799,-0.066929,0.021408,0.022049000000000003,0.0016940000000000002
52,0.52,0.0010499999999999989,0.022613,-0.017856,0.022476,0.023102,0.0016940000000000002
53,0.53,0.036167000000000005,0.026772000000000004,0.016347999999999998,0.022476,0.025238,0.0038299999999999996
54,0.54,0.045418,0.055198000000000004,-0.01014,0.025664999999999997,0.026306,0.004898
55,0.55,0.038139,0.022265,0.010272000000000002,0.027801999999999997,0.022049000000000003,0.002762
56,0.56,0.027344,0.009811999999999998,-0.012817000000000002,0.028854,0.028426999999999997,0.005966
57,0.57,0.018886,0.007484000000000002,-0.017531,0.027801999999999997,0.028426999999999997,0.002762
58,0.58,-0.012938,-0.009851,-0.018257,0.028854,0.028426999999999997,0.0038299999999999996
59,0.59,-0.011193999999999999,-0.015718,-0.014152000000000001,0.027801999999999997,0.023102,0.004898
60,0.6,0.004143,-0.04233,-0.0002720000000000001,0.026733,0.022049000000000003,0.0038299999999999996
61,0.61,0.004271,0.006072000000000001,-0.03347,0.024597,0.018844999999999997,0.005966
62,0.62,0.022702,-0.007869000000000001,-0.023313,0.026733,0.017776,0.002762
63,0.63,0.02101,0.01016,0.000222,0.029922000000000004,0.015656,0.0016940000000000002
64,0.64,0.034132,-0.0045590000000000006,-0.032755,0.032059,0.014587000000000001,0.002762
65,0.65,0.00477,0.008888,-0.014021,0.032059,0.014587000000000001,0.0016940000000000002
66,0.66,-0.010954,-0.005274000000000001,0.004682,0.032059,0.013519,0.004898
67,0.67,-0.0019619999999999985,0.009317,-3.500000000000031e-05,0.033127,0.011382999999999999,0.004898
68,0.68,-0.0047740000000000005,-0.0024129999999999985,-0.018294,0.030991,0.007126,0.0038299999999999996
69,0.69,-0.0034269999999999995,0.019278999999999998,-0.024553,0.030991,0.0039369999999999995,0.004898
70,0.7,0.0016050000000000005,-0.0061070000000000004,-0.013587999999999996,0.03418,-0.001389,0.002762
71,0.71,0.04628,0.00818,0.010851999999999999,0.036316,0.000732,0.002762
72,0.72,-0.014075999999999997,0.004268,0.004032000000000001,0.037384,-0.00033599999999999993,0.0016940000000000002
73,0.73,0.017762,-0.014878,0.030425999999999998,0.036316,-0.001389,0.0016940000000000002
74,0.74,0.015202,-0.008791,-0.015895,0.037384,-0.002457,-0.00042700000000000013
75,0.75,-0.037426999999999995,-0.026713,0.0064069999999999995,0.03952,-0.004593,0.004898
76,0.76,-0.000621,-0.008241,-0.005069,0.03952,-0.007781999999999999,0.002762
77,0.77,0.0030439999999999994,-0.027762000000000002,0.012813999999999999,0.042709,-0.009918000000000001,0.004898
78,0.78,-0.016442,-0.008482999999999997,-0.010869999999999998,0.043776999999999996,-0.00885,0.004898
79,0.79,-0.020104000000000004,0.015529,0.023343000000000003,0.042709,-0.004593,0.0038299999999999996
80,0.8,-0.043304,0.035166,-0.005228999999999999,0.045898,-0.002457,0.004898
81,0.81,-0.0503,-0.002147,-0.040565,0.043776999999999996,-0.002457,0.004898
82,0.82,-0.027510000000000003,0.017346,-0.018515,0.045898,-0.001389,0.005966
83,0.83,-0.018918000000000004,-0.007388999999999999,-0.021314,0.045898,-0.004593,0.005966
84,0.84,-0.019757,-0.020658,-0.021586,0.043776999999999996,-0.003525,0.002762
85,0.85,0.008754999999999999,0.006587000000000001,0.002744,0.043776999999999996,-0.007781999999999999,0.007019
86,0.86,0.019532,-0.00381,0.015394,0.045898,-0.007781999999999999,0.004898
87,0.87,0.0185,0.03275,-0.003501000000000001,0.045898,-0.004593,0.005966
88,0.88,-0.012617,0.02889,0.029796000000000007,0.049102999999999994,-0.002457,0.0006259999999999999
89,0.89,-0.029710000000000004,0.008043000000000002,0.012435,0.051224,0.000732,-0.00042700000000000013
90,0.9,-0.027486,-0.0001920000000000047,0.009860999999999998,0.050171,-0.001389,0.0006259999999999999
91,0.91,-0.021248,-0.024569,-0.023369,0.045898,-0.001389,0.0016940000000000002
92,0.92,-0.031407,-0.049031,0.0037239999999999977,0.041641000000000004,-0.006714,0.0038299999999999996
93,0.93,-0.008207,0.027846000000000003,0.015534000000000001,0.042709,-0.004593,0.0016940000000000002
94,0.94,-0.016638999999999998,-0.002539000000000003,0.033841,0.044846,-0.003525,0.002762000000000001
95,0.95,-0.022539,0.010242,0.011302,0.050171,0.0028690000000000005,0.0016940000000000002
96,0.96,-0.038938,0.007404000000000002,-0.0067269999999999995,0.053360000000000005,0.008194,0.0038299999999999996
97,0.97,-0.039858,-0.009599,0.011669,0.057616999999999995,0.0039369999999999995,0.004898
98,0.98,-0.020612000000000002,-0.0143,-0.006930000000000002,0.058685,-0.00033599999999999993,0.004898
99,0.99,0.021224,-0.041233,-0.05664500000000001,0.057616999999999995,-0.001389,0.005966
100,1.0,0.016238,-0.022463,-0.049269,0.053360000000000005,-0.002457,0.004898
101,1.01,0.009517999999999995,-0.023923,-0.04133,0.044846,-0.003525,0.002762
102,1.02,0.013019,0.017701999999999996,-0.06603200000000001,0.035248,-0.00033599999999999993,0.0006259999999999999
103,1.03,-0.012232999999999999,0.027387,-0.045636,0.027801999999999997,-0.00033599999999999993,0.0016940000000000002
104,1.04,-0.0063,0.019152000000000002,-0.026898000000000002,0.026733,-0.00033599999999999993,0.004898
105,1.05,0.021563,0.0026890000000000004,-0.0017859999999999996,0.025664999999999997,-0.006714,0.007019
106,1.06,0.03586,0.0009060000000000006,0.024649,0.027801999999999997,-0.009918000000000001,0.004898
107,1.07,0.054011,0.028663,0.017778,0.024597,-0.01738,0.008087
108,1.08,0.011339999999999987,0.008169,0.025988999999999998,0.025664999999999997,-0.014175,0.007019
109,1.09,0.018578,0.00945,0.049212,0.029922000000000004,-0.009918000000000001,0.008087
110,1.1,2.8999999999999946e-05,0.019232,0.018021,0.037384,-0.009918000000000001,0.0038299999999999996
111,1.11,0.012576000000000002,-0.023744,0.0013020000000000002,0.044846,-0.012054,0.004898
112,1.12,-0.020914,-0.027798,0.003226000000000001,0.048035,-0.019500999999999998,0.002762
113,1.13,0.00023899999999999966,0.009134999999999999,-0.074563,0.048035,-0.021637,0.0016940000000000002
114,1.14,0.012333,0.0033660000000000014,-0.07614299999999999,0.045898,-0.020569,0.0016940000000000002
115,1.15,-0.004836,0.040217,-0.078182,0.043776999999999996,-0.018433,0.002762
116,1.16,0.018484,0.015787,-0.055060000000000005,0.040573000000000005,-0.012054,0.0038299999999999996
117,1.17,-0.012222,-0.026814000000000004,-0.067107,0.03952,-0.010986,0.002762
118,1.18,-0.005855000000000001,-0.013980999999999995,-0.028197,0.03952,-0.007781999999999999,0.0016940000000000002
119,1.19,-0.018064,-0.048233,-0.016119999999999995,0.036316,-0.004593,-0.001495
120,1.2,-0.013537,-0.064725,-0.07874,0.030991,-0.007781999999999999,-0.001495
121,1.21,-0.010281,-0.061358,-0.048142000000000004,0.024597,-0.004593,-0.001495
122,1.22,0.011704,0.0046790000000000035,-0.041992,0.022476,-0.00885,0.0016940000000000002
123,1.23,0.040195,0.032195,-0.061637999999999984,0.018203999999999998,-0.00885,0.0038299999999999996
124,1.24,0.037986,0.016459,-0.033329000000000004,0.017136000000000002,-0.013106999999999999,0.002762
125,1.25,0.032173,0.019149,-0.032165,0.016083,-0.010986,0.0038299999999999996
126,1.26,-0.006164,-0.0018220000000000005,-0.013743,0.015015,-0.00885,0.005966
127,1.27,-0.02742,-0.04251,0.019662,0.017136000000000002,-0.00885,0.007019
128,1.28,0.024246,-0.037656999999999996,0.048289,0.019272,-0.015244,0.008087
129,1.29,0.013944,-0.054673,0.042796,0.022476,-0.019500999999999998,0.0038299999999999996
130,1.3,0.045626,-0.038017,0.015889,0.02034,-0.032288,0.004898
131,1.31,0.06658700000000001,-0.027947000000000003,0.00746,0.015015,-0.035477,0.004898
132,1.32,0.046917,-0.011366,0.033835000000000004,0.012878,-0.038681,0.008087
133,1.33,0.033331,0.028042,0.012361999999999998,0.008621,-0.036545,0.007019
134,1.34,0.039934,0.024652,0.020061000000000002,0.010757,-0.036545,0.002762
135,1.35,-0.015898999999999996,0.044233,0.006173999999999999,0.010757,-0.039749,0.004898
136,1.36,-0.015605,0.009626999999999995,0.028467000000000003,0.016083,-0.037613,0.0016940000000000002
137,1.37,-0.031813,0.050133,0.07126299999999999,0.018203999999999998,-0.037613,0.002762
138,1.38,-0.076831,0.016127000000000002,0.052904999999999994,0.022476,-0.035477,0.0038299999999999996
139,1.39,-0.077418,0.025200999999999998,0.008858,0.027801999999999997,-0.026962,0.004898
140,1.4,-0.11392100000000001,0.023613,0.014602,0.029922000000000004,-0.022705,0.005966
141,1.41,-0.06701499999999999,0.022057,0.017792,0.033127,-0.016312,0.004898
142,1.42,-0.053844,0.022193,0.013016,0.037384,-0.010986,0.008087
143,1.43,-0.023642,0.025974,-0.010028,0.037384,-0.006714,0.005966
144,1.44,-0.010265,-0.013540000000000002,0.030144000000000008,0.037384,-0.003524999999999999,0.004898
145,1.45,-0.027478,-0.027164999999999998,0.013183000000000002,0.037384,0.001801,0.002762
146,1.46,0.007527999999999998,0.008718,0.047091,0.035248,0.001801,0.0038299999999999996
147,1.47,-0.021168,0.011378000000000001,0.0014009999999999995,0.038452,0.007126,0.0016940000000000002
148,1.48,-0.023855,0.031099,0.013213999999999998,0.038452,0.011382999999999999,-0.00042700000000000013
149,1.49,-0.017431,0.03997,-0.009029,0.041641000000000004,0.015656,-0.00042700000000000013
150,1.5,-0.007245999999999999,0.021585,0.00045700000000000005,0.042709,0.014587000000000001,0.0038299999999999996
151,1.51,0.0027290000000000005,0.008062,0.002825,0.043776999999999996,0.014587000000000001,0.0016940000000000002
152,1.52,0.023936000000000002,-0.033532,-0.035015,0.041641000000000004,0.007126,0.0038299999999999996
153,1.53,0.015046,-0.023107,-0.014750999999999998,0.03952,0.006058,0.002762
154,1.54,0.038085,-0.014488999999999998,-0.012504000000000001,0.03952,0.007126,0.002762
155,1.55,0.034341,-0.021051,-0.0076370000000000006,0.043776999999999996,0.005005,0.0006259999999999999
156,1.56,-0.010038000000000002,0.004001000000000001,-0.049798000000000016,0.040573000000000005,0.008194,0.0006259999999999999
157,1.57,-0.006429000000000001,0.003327,-0.035199,0.038452,0.0039369999999999995,0.0006259999999999999
158,1.58,0.041664,-0.034102999999999994,-0.08038900000000003,0.036316,0.002869,0.0006259999999999999
159,1.59,0.02021,-0.050338,-0.0005080000000000015,0.03418,-0.0024569999999999995,0.0006259999999999999
160,1.6,0.027975999999999997,-0.002234,-0.048438999999999996,0.029922000000000004,-0.002457,0.0038299999999999996
161,1.61,0.00921,-0.019334999999999998,0.0017850000000000019,0.027801999999999997,-0.006714,0.005966
162,1.62,0.030882999999999997,0.009421,-0.024064,0.025664999999999997,-0.007781999999999999,0.004898
163,1.63,-0.016991,0.002862,-0.0376,0.025664999999999997,-0.012054,0.007019
164,1.64,-0.032692,-0.050509,-0.015571999999999999,0.026733,-0.009918000000000001,0.004898
165,1.65,-0.014062,-0.0007380000000000008,0.017001,0.028854,-0.013106999999999999,0.005966
166,1.66,-0.047593,-0.009821,-0.024380000000000002,0.030991,-0.012054,0.005966
167,1.67,-0.0247,0.027469,-0.011013,0.033127,-0.012054,0.008087
168,1.68,-0.016854,0.033438,0.025104999999999995,0.032059,-0.012054,0.008087
169,1.69,-0.013406999999999999,0.009144,0.0028160000000000012,0.028854,-0.00885,0.004898
170,1.7,-0.026459,-0.002863,0.028531,0.026733,-0.002457,0.007019
171,1.71,-0.030681,-0.010036,0.006063000000000001,0.021408,0.0028690000000000005,0.005966
172,1.72,-0.044400999999999996,-0.002766,0.014969999999999999,0.019272,0.014587000000000001,0.002762
173,1.73,-0.076698,-0.02085,-0.012428,0.012878,0.018844999999999997,-0.001495
174,1.74,-0.063685,0.020388000000000003,0.018713,0.008621,0.022049000000000003,-0.00042700000000000013
175,1.75,-0.036441,0.039589,0.005196999999999999,0.01181,0.017776,0.0016940000000000002
176,1.76,-0.036773,0.03477,0.010189,0.017136000000000002,0.016708,0.0038299999999999996
177,1.77,-0.013005000000000001,0.043026,0.003889,0.024597,0.009262000000000001,0.005966
178,1.78,0.04630299999999999,-0.0034119999999999984,-0.001871,0.027801999999999997,0.006058,0.005966
179,1.79,0.025091,0.000721,0.0019169999999999983,0.028854,0.007126,0.0038299999999999996
180,1.8,0.033388,0.024141,0.004185,0.030991,0.009262000000000001,-0.00042700000000000013
181,1.81,0.0052450000000000005,0.018843000000000002,0.035141000000000006,0.032059,0.012451,-0.001495
182,1.82,-0.0102,-0.0018269999999999988,0.034559,0.033127,0.015656,-0.005753
183,1.83,0.017361999999999995,-0.022352,0.0005399999999999988,0.033127,0.016708,-0.0025629999999999997
184,1.84,0.0062640000000000005,-0.023806,0.006504,0.032059,0.010329999999999999,-0.003632
185,1.85,0.041791,-0.018137999999999998,0.007782999999999998,0.030991,0.005005,-0.0025629999999999997
186,1.86,0.047963,-0.0031070000000000004,0.002834,0.027801999999999997,0.005005,-0.001495
187,1.87,-0.012526000000000006,0.027058,0.0016369999999999993,0.027801999999999997,0.002869,0.0006259999999999994
188,1.88,0.02927,0.045988,-0.028911000000000003,0.028854,-0.002457,-0.001495
189,1.89,0.005658,0.045918,0.010394999999999998,0.026733,-0.006714,0.0016940000000000002
190,1.9,0.030264999999999997,0.043271,0.015813,0.032059,-0.00885,-0.00042700000000000013
191,1.91,0.033964,0.017113,0.030505,0.032059,-0.009918000000000001,0.0006259999999999999
192,1.92,0.019924,-0.054817,0.02667,0.03418,-0.006714,-0.00042700000000000013
193,1.93,-0.029463,-0.055669,0.027925,0.03418,-0.003525,-0.00042700000000000013
194,1.94,-0.017473,-0.065318,-0.03420999999999999,0.028854,-0.003525,0.0038299999999999996
195,1.95,0.017762,-0.069098,-0.048753,0.024597,-0.006714,0.005966
196,1.96,0.019776,-0.065636,-0.049984,0.02034,-0.009918000000000001,0.007019
197,1.97,0.011513000000000002,-0.042703,-0.062045,0.016083,-0.009918000000000001,0.010223000000000001
198,1.98,0.028082,-0.019582,-0.091331,0.009689,-0.009918000000000001,0.007019
199,1.99,0.010563,0.004691000000000001,-0.060382000000000005,-0.004166,-0.004593,0.005966
200,2.0,-0.014212999999999996,-0.010115,-0.0025379999999999986,-0.01268,-0.003525,0.0038299999999999996
201,2.01,-0.019155,-0.020779,0.00925,-0.018005,-0.003525,0.0006259999999999999
202,2.02,-0.021368,-0.018237,-0.038978,-0.024399,-0.005661,0.002762
203,2.03,-0.011516,-0.006640000000000001,-0.024746000000000004,-0.028671,-0.00885,0.004898
204,2.04,0.009519000000000005,-0.007804999999999999,0.004055,-0.032928,-0.016312,0.007019
205,2.05,0.034697000000000006,-0.019819999999999997,0.024524,-0.033997,-0.022705,0.011292
206,2.06,0.057714999999999995,0.011085999999999995,0.052046,-0.029724,-0.023758,0.010223000000000001
207,2.07,0.045715,-0.003761000000000001,0.049565,-0.029724,-0.026962,0.009155
208,2.08,0.03265,-0.011433000000000002,0.033555,-0.023331,-0.025894,0.009155
209,2.09,0.034428,0.007750999999999998,-0.019864999999999997,-0.02121,-0.021637,0.0038299999999999996
210,2.1,0.015722999999999997,-0.004683,-0.096984,-0.026535000000000003,-0.022705,0.0016940000000000002
211,2.11,-0.0052,-0.022264,-0.136791,-0.036118,-0.021637,-0.0025629999999999997
212,2.12,-0.040486,-0.047753,-0.132183,-0.045715,-0.018433,-0.00042699999999999997
213,2.13,-0.013493999999999999,-0.023078,-0.10613,-0.056366,-0.01738,0.0016940000000000002
214,2.14,0.014366,-0.045867000000000005,-0.035351999999999995,-0.058487,-0.019500999999999998,0.0016940000000000002
215,2.15,-0.006357000000000001,0.011637000000000002,0.012488999999999991,-0.058487,-0.01738,0.0038299999999999996
216,2.16,0.030514999999999997,0.038833,0.053154999999999994,-0.05209400000000001,-0.016312,0.002762
217,2.17,0.033823,0.048775,0.08098,-0.042511,-0.015244,0.0006259999999999997
218,2.18,-0.031893,0.026833,0.053949000000000004,-0.033997,-0.014175,0.0016940000000000002
219,2.19,-0.025225,0.028693,0.029208000000000005,-0.032928,-0.006714,0.0006259999999999999
220,2.2,-0.037535,0.022865,0.036203,-0.033997,-0.012054,0.0038299999999999996
221,2.21,0.011348,-0.008730000000000002,0.010505,-0.033997,-0.01738,0.0016940000000000002
222,2.22,0.06213099999999999,-0.031301,-0.079052,-0.033997,-0.019500999999999998,0.004898
223,2.23,0.049237,-0.038383,-0.08051,-0.038254,-0.020569,0.004898
224,2.24,0.009824,-0.015189,-0.085207,-0.043579,-0.021637,0.005966
225,2.25,0.05524600000000001,-0.015992,-0.043564,-0.048904,-0.023758,0.007019
226,2.26,0.0005690000000000001,-0.021009,-0.061253999999999996,-0.053162,-0.023758,0.004898
227,2.27,0.012913999999999998,0.0003699999999999988,-0.044961,-0.051041,-0.030151,0.004898
228,2.28,0.049931,0.033641000000000004,-0.017585,-0.049973000000000004,-0.034424,0.005966
229,2.29,0.039,0.022168,-0.025457,-0.049973000000000004,-0.034424,0.008087
230,2.3,0.003865,0.076182,-0.008507999999999998,-0.053162,-0.035477,0.003830000000000001
231,2.31,-0.034613,0.033027999999999995,0.031274,-0.053162,-0.034424,0.0038299999999999996
232,2.32,-0.017573,0.0013070000000000026,0.060065999999999994,-0.051041,-0.028030000000000003,0.005966
233,2.33,-0.041926,-0.003282,0.017251000000000002,-0.046768000000000004,-0.018433,0.002762
234,2.34,-0.05124600000000001,-0.018531,0.027237,-0.044647000000000006,-0.015244,0.0006259999999999999
235,2.35,-0.073584,-0.014483000000000001,0.05099,-0.042511,-0.012054,0.0006259999999999999
236,2.36,-0.014645999999999998,-0.008274,0.021242,-0.041443,-0.009918000000000001,0.0016940000000000002
237,2.37,0.009245999999999996,0.005681000000000002,0.062186999999999985,-0.037186000000000004,-0.009918000000000001,0.002762
238,2.38,0.021189,-0.004564000000000002,0.028353,-0.03186,-0.007781999999999999,0.002762
239,2.39,0.018838999999999998,0.005718999999999999,0.01615,-0.027602999999999996,-0.007781999999999999,0.0038299999999999996
240,2.4,0.013225,0.029283999999999998,-0.032777999999999995,-0.028671,-0.006714,0.0016940000000000002
241,2.41,0.020030000000000003,-0.009614,-0.033775,-0.030792,-0.009918000000000001,0.0016940000000000002
242,2.42,0.057244,0.00476,-0.048489,-0.036118,-0.019500999999999998,0.004898
243,2.43,0.031056,-0.012699,-0.094041,-0.038254,-0.022705,0.0038299999999999996
244,2.44,0.035332,0.0036969999999999993,-0.042545,-0.040375,-0.023758,0.002762
245,2.45,-0.004579,-0.013859,-0.0032990000000000003,-0.037186000000000004,-0.024825999999999997,0.0038299999999999996
246,2.46,-0.024277,0.0072159999999999985,0.054570000000000014,-0.032928,-0.022705,0.0016940000000000002
247,2.47,-0.013568999999999998,0.012792,0.000675000000000002,-0.026535000000000003,-0.01738,0.0038299999999999996
248,2.48,-0.041408999999999994,-0.022836000000000002,0.061841999999999994,-0.024399,-0.01738,0.0038299999999999996
249,2.49,-0.03735,0.013784000000000001,0.015367999999999996,-0.024399,-0.014175,-0.00042700000000000013
250,2.5,-0.013041,0.0016970000000000006,0.031447,-0.029724,-0.009918000000000001,-0.00042699999999999997
251,2.51,-0.021823,0.01231,0.018656,-0.03186,-0.009918000000000001,-0.001495
252,2.52,-0.02895,0.013919999999999998,0.008631999999999999,-0.032928,-0.009918000000000001,-0.0004269999999999999
253,2.53,-0.006146999999999998,0.028062000000000004,0.022406,-0.028671,-0.009918000000000001,-0.0025629999999999997
254,2.54,-0.023356000000000002,0.041783999999999995,0.036993,-0.02121,-0.0013890000000000007,-0.003632
255,2.55,-0.068074,-0.010396999999999995,0.011783000000000002,-0.014816,-0.003525,-0.0047
256,2.56,-0.048922,-0.017459,0.007522,-0.010559,-0.003525,-0.0025629999999999997
257,2.57,-0.043063,0.0006379999999999997,-0.006490999999999999,-0.009491,-0.004593,-0.001495
258,2.58,-0.022415,-0.038369,-0.0136,-0.009491,-0.002457,0.0006259999999999999
259,2.59,-0.051384000000000006,0.013123,-0.046448,-0.014816,-0.0003360000000000004,0.002762
260,2.6,-0.01434,-0.035227,-0.05343200000000001,-0.016953,0.0039369999999999995,0.0038299999999999996
261,2.61,-0.050722,-0.019824,-0.008078000000000002,-0.019073,0.008194,0.0038299999999999996
262,2.62,-0.045518,-0.044239999999999995,-0.0038439999999999998,-0.020142,0.009262000000000001,0.002762
263,2.63,-0.013497,-0.028056,-0.028522000000000002,-0.018005,0.011382999999999999,0.0016940000000000002
264,2.64,-0.043592,-0.010656999999999998,-0.035619,-0.013748,0.010329999999999999,0.0016940000000000002
265,2.65,-0.022765999999999998,0.00951,-0.03386,-0.015884,0.009262000000000001,0.002762
266,2.66,-0.00016000000000000042,0.029567000000000003,-0.011542,-0.014816,0.008194,0.002762
267,2.67,0.003918999999999999,-0.021733000000000002,-0.021436,-0.011627,0.0018009999999999996,0.0006260000000000003
268,2.68,0.045179000000000004,0.023556,-0.03082,-0.008423,-0.000336,0.002762
269,2.69,0.013561000000000002,0.042212,-0.051168,-0.0073549999999999996,-0.00033599999999999993,0.002762
270,2.7,0.027322000000000003,0.039616000000000005,-0.05486900000000001,-0.008423,-0.004593,0.002762
271,2.71,-0.0013100000000000006,0.025567,-0.021543,-0.008423,-0.006714,0.005966
272,2.72,0.005622,0.020419999999999997,-0.054643,-0.013748,-0.010986,0.008087
273,2.73,-0.012133,0.028567,-0.045111,-0.016953,-0.015244,0.004898
274,2.74,-0.00427,0.012351,0.004242,-0.016953,-0.023758,0.007019
275,2.75,0.001894,0.036861999999999985,0.009758,-0.018005,-0.024825999999999997,0.004898
276,2.76,-0.027841,0.00029900000000000065,-0.010406000000000002,-0.020142,-0.022705,0.008087
277,2.77,0.0026890000000000004,0.009963,-0.011023999999999999,-0.022278,-0.021637,0.007019
278,2.78,0.0073539999999999986,-0.014341999999999997,0.04420600000000001,-0.026535000000000003,-0.022705,0.005966
279,2.79,0.032255,-0.011002,0.029873,-0.026535000000000003,-0.022705,0.0016940000000000002
280,2.8,0.028513999999999998,0.013906,0.054045,-0.023331,-0.018433,-0.00042699999999999997
281,2.81,0.027977,-0.029978000000000005,0.062221000000000005,-0.019073,-0.016312,-0.001495
282,2.82,0.055666,-0.034636,0.052754999999999996,-0.018005,-0.014175,-0.003632
283,2.83,0.003817,-0.061653,0.052497,-0.015884,-0.013106999999999999,-0.003632
284,2.84,-0.005431999999999999,-0.038658,0.033938,-0.015884,-0.014175,-0.0004269999999999994
285,2.85,-0.043788,-0.041596,-0.016993,-0.015884,-0.015244,0.0006259999999999999
286,2.86,-0.06724,-0.030405,-0.040026,-0.016953,-0.010986,-0.00042700000000000013
287,2.87,-0.046901,-0.041499,-0.10408800000000001,-0.027602999999999996,-0.010986,0.0038299999999999996
288,2.88,-0.074407,-0.069543,-0.098475,-0.033997,-0.001389,0.007019
289,2.89,-0.090085,-0.09473,-0.012797999999999995,-0.041443,0.005005,0.005966
290,2.9,-0.11148,-0.049266000000000004,-0.026177,-0.043579,0.0039369999999999995,0.0038299999999999996
291,2.91,-0.027567999999999995,0.045281,-0.040061,-0.045715,-0.00033599999999999993,0.0006260000000000003
292,2.92,0.011984999999999996,0.15046400000000001,-0.06990199999999999,-0.055298,-0.009918000000000001,-0.001495
293,2.93,-0.0425,0.171773,0.019324,-0.07020599999999999,-0.006714,-0.006821000000000001
294,2.94,-0.180619,0.078716,0.11191199999999998,-0.068085,0.012451,-0.007889
295,2.95,-0.24969899999999998,-0.017556,0.11196800000000001,-0.045715,0.011382999999999999,-0.0014949999999999998
296,2.96,-0.125628,-0.027091000000000004,0.062568,-0.023331,0.006058,0.002762
297,2.97,-0.22162600000000002,-0.036696000000000006,-0.008234,-0.019073,0.009262000000000001,0.011292
298,2.98,-0.272444,-0.15237699999999998,-0.031244,-0.030792,0.028426999999999997,0.008087
299,2.99,-0.327331,-0.23167,-0.042097,-0.049973000000000004,0.040146,-0.006821
300,3.0,-0.47732399999999997,-0.169646,-0.176084,-0.075531,0.052933,-0.029189999999999997
301,3.01,-0.63054,-0.14083099999999998,-0.171664,-0.100037,0.061462,-0.041977
302,3.02,-0.641139,-0.107003,-0.189119,-0.119217,0.073181,-0.045181
303,3.03,-0.56872,-0.053196,-0.137706,-0.13731400000000002,0.082764,-0.040909
304,3.04,-0.35451,0.111992,-0.149109,-0.16181900000000002,0.112595,-0.044113
305,3.05,-0.36841599999999997,0.13131600000000002,-0.149839,-0.16714500000000002,0.130692,-0.061157
306,3.06,-0.44871099999999997,0.23352699999999998,-0.095606,-0.15756199999999998,0.149872,-0.07499700000000001
307,3.07,-0.5623739999999999,0.268437,-0.048106,-0.141586,0.176498,-0.08992
308,3.08,-0.706723,0.160343,-0.033493,-0.12133800000000002,0.196747,-0.099503
309,3.09,-0.856648,0.024279,-0.09753400000000001,-0.098969,0.21911599999999998,-0.10482799999999999
310,3.1,-0.945831,-0.149804,-0.0534,-0.07341,0.229767,-0.110153
311,3.11,-0.9116040000000001,-0.207702,-0.065707,-0.044647000000000006,0.224442,-0.10908499999999999
312,3.12,-0.9137290000000001,-0.06724399999999997,-0.12098199999999999,-0.014815999999999998,0.218048,-0.10375999999999999
313,3.13,-0.8827950000000001,0.23527100000000006,-0.190895,0.0075530000000000016,0.223373,-0.093109
314,3.14,-0.722603,0.461121,-0.25492,0.01181,0.212723,-0.07499700000000001
315,3.15,-0.438503,0.430304,-0.160386,0.004364,0.199936,-0.052627999999999994
316,3.16,-0.175419,0.19896,-0.038055999999999986,-0.004166,0.181824,-0.036652
317,3.17,-0.053437,0.011388999999999995,0.010403000000000004,-0.009491,0.174377,-0.027069
318,3.18,0.062929,-0.180497,0.043194,-0.0009610000000000008,0.153076,-0.023865
319,3.19,0.073306,-0.363651,0.092407,0.004364,0.11471600000000001,-0.027069
320,3.2,0.130155,-0.47464300000000004,0.124222,0.00116,0.067841,-0.029189999999999997
321,3.21,0.27056399999999997,-0.517799,0.076297,-0.010559,0.017776,-0.031326
322,3.22,0.361765,-0.549424,0.08064299999999999,-0.019073,-0.031219,-0.031326
323,3.23,0.495396,-0.396897,0.021484000000000003,-0.019073,-0.077026,-0.028137
324,3.24,0.602412,-0.138453,-0.072609,-0.011627,-0.111115,-0.026001
325,3.25,0.644532,0.114451,-0.204155,0.006485000000000001,-0.15266400000000002,-0.028137
326,3.26,0.6644909999999999,0.26145,-0.340731,0.030991,-0.189941,-0.022797
327,3.27,0.5995189999999999,0.246013,-0.462715,0.056563999999999996,-0.215515,-0.012145999999999999
328,3.28,0.639468,0.04960500000000001,-0.640568,0.062943,-0.24320999999999998,-0.0025629999999999997
329,3.29,0.759143,-0.049981,-0.781377,0.044846,-0.289017,0.004898
330,3.3,0.938951,-0.056508,-0.85926,0.023528999999999998,-0.346542,0.018738
331,3.31,1.042173,-0.012085999999999993,-0.892661,0.027801999999999997,-0.384888,0.038986
332,3.32,1.076937,0.253262,-0.9914430000000001,0.042709,-0.41046099999999996,0.056029999999999996
333,3.33,0.9598040000000001,0.537633,-1.172944,0.069336,-0.39874299999999996,0.067749
334,3.34,0.786262,0.8438700000000001,-1.380651,0.107697,-0.338013,0.083725
335,3.35,0.539669,0.9400709999999999,-1.602299,0.144974,-0.260254,0.092239
336,3.36,0.22631500000000002,0.8586090000000001,-1.8556580000000003,0.162018,-0.186752,0.102905
337,3.37,-0.07572699999999999,0.691513,-1.8900419999999998,0.149231,-0.133484,0.126328
338,3.38,-0.214693,0.46193100000000004,-1.8315139999999999,0.116211,-0.10153200000000001,0.170013
339,3.39,-0.12603599999999998,0.08360799999999999,-1.660259,0.066147,-0.093002,0.217941
340,3.4,0.15543099999999999,-0.296783,-1.354084,0.006485000000000001,-0.115372,0.263748
341,3.41,0.563372,-0.635123,-0.9665590000000001,-0.029724,-0.14840699999999998,0.286118
342,3.42,0.793786,-0.726808,-0.8565389999999999,-0.06275900000000001,-0.16650399999999999,0.292511
343,3.43,0.91317,-0.815621,-0.65552,-0.09364299999999999,-0.179291,0.275467
344,3.44,0.8172699999999999,-0.7340300000000001,-0.457269,-0.116013,-0.181427,0.24563600000000002
345,3.45,0.662141,-0.576911,-0.26955,-0.114944,-0.172897,0.216888
346,3.46,0.48386999999999997,-0.39116599999999996,-0.281987,-0.098969,-0.146271,0.184921
347,3.47,0.37306,-0.281471,-0.395148,-0.074463,-0.122833,0.15403699999999998
348,3.48,0.327255,-0.259685,-0.554295,-0.036118,-0.103653,0.131653
349,3.49,0.343263,-0.185625,-0.670679,0.001160000000000001,-0.07809400000000001,0.121002
350,3.5,0.409736,-0.11854500000000001,-0.8876120000000001,0.032059,-0.055725,0.112488
351,3.51,0.462454,-0.034477999999999995,-0.9411379999999999,0.054428,-0.047195,0.107162
352,3.52,0.476934,-0.033776,-0.991799,0.076797,-0.044006,0.107162
353,3.53,0.424713,-0.0021030000000000007,-1.006988,0.104492,-0.032288,0.101837
354,3.54,0.352407,-0.061487,-1.220713,0.12579300000000002,-0.014175,0.097565
355,3.55,0.29752,-0.212179,-1.264219,0.136459,-0.0024570000000000013,0.092239
356,3.56,0.262175,-0.393692,-1.392628,0.140717,0.015656,0.076263
357,3.57,0.270366,-0.549759,-1.4309129999999999,0.136459,0.038025,0.060287
358,3.58,0.229469,-0.5842510000000001,-1.4717209999999998,0.131119,0.060394,0.042175
359,3.59,0.24848299999999998,-0.6665300000000001,-1.43973,0.126862,0.080627,0.031525
360,3.6,0.312346,-0.674083,-1.3659,0.13006600000000001,0.091278,0.019806
361,3.61,0.377012,-0.674507,-1.414574,0.131119,0.104065,0.010223000000000001
362,3.62,0.378657,-0.685163,-1.512785,0.12153599999999999,0.106201,-0.0014949999999999998
363,3.63,0.366505,-0.665359,-1.56046,0.113022,0.108322,-0.013213999999999998
364,3.64,0.354325,-0.51425,-1.590976,0.095978,0.111526,-0.026001
365,3.65,0.297175,-0.347448,-1.5264520000000001,0.084259,0.113647,-0.033463
366,3.66,0.238744,-0.22820100000000001,-1.562245,0.084259,0.121109,-0.026001
367,3.67,0.248335,-0.186199,-1.624897,0.09277300000000001,0.140289,-0.011093
368,3.68,0.327167,-0.152434,-1.7037630000000001,0.09491000000000001,0.144547,0.018738
369,3.69,0.5450619999999999,-0.092739,-1.741191,0.088516,0.161591,0.045380000000000004
370,3.7,0.786107,0.094936,-1.750733,0.062943,0.185028,0.064545
371,3.71,0.942185,0.42863999999999997,-1.6863990000000002,0.035248,0.21911599999999998,0.068802
372,3.72,0.9202610000000001,0.750695,-1.597126,0.02034,0.265991,0.054962000000000004
373,3.73,0.762391,0.891932,-1.471403,0.027801999999999997,0.322449,0.033661
374,3.74,0.664759,0.9925200000000001,-1.431023,0.054428,0.379974,0.017669999999999998
375,3.75,0.720272,0.9619690000000001,-1.558597,0.09277300000000001,0.42790200000000006,0.017669999999999998
376,3.76,0.810241,0.9895010000000001,-1.743871,0.123672,0.47052,0.033661
377,3.77,0.986454,1.023672,-1.845663,0.14283800000000002,0.504608,0.047501
378,3.78,1.24306,1.041074,-1.9642259999999998,0.162018,0.521652,0.056029999999999996
379,3.79,1.517791,1.175618,-1.975211,0.19397,0.515259,0.056029999999999996
380,3.8,1.8539970000000001,1.318669,-1.945784,0.23445100000000002,0.48542799999999997,0.045380000000000004
381,3.81,2.1829680000000002,1.526887,-1.932418,0.274933,0.45559700000000003,0.020874
382,3.82,2.4095869999999997,1.9148509999999999,-1.9522419999999998,0.312225,0.397018,0.0016939999999999993
383,3.83,2.5766,2.4201080000000004,-1.930072,0.326065,0.339493,-0.001495
384,3.84,2.66486,2.8597189999999997,-1.711257,0.323944,0.272385,0.004898
385,3.85,2.6179799999999998,3.13231,-1.2515379999999998,0.29836999999999997,0.202072,0.018738
386,3.86,2.663592,3.105738,-0.66213,0.282394,0.09874,0.029388
387,3.87,2.5097810000000003,2.735865,-0.12061300000000001,0.311157,-0.028030000000000003,0.032593000000000004
388,3.88,1.977848,2.296672,0.26783299999999993,0.377197,-0.126038,0.038986
389,3.89,1.238297,1.960533,0.320944,0.44751,-0.169708,0.053894000000000004
390,3.9,0.523489,1.545634,0.237992,0.479462,-0.169708,0.070938
391,3.91,-0.096451,0.816072,0.31308800000000003,0.46241800000000005,-0.114319,0.08052100000000001
392,3.92,-0.500336,-0.09090700000000003,0.697768,0.402771,-0.014175,0.06347699999999999
393,3.93,-0.920367,-1.052846,1.376068,0.321808,0.089157,0.025131
394,3.94,-1.451373,-1.901893,2.088562,0.219543,0.18395999999999998,-0.006821000000000001
395,3.95,-1.7815509999999999,-2.38171,2.6135740000000003,0.12260399999999999,0.25106799999999996,-0.0004270000000000003
396,3.96,-1.9113189999999998,-2.428373,2.782922,0.052292,0.3022,0.032593000000000004
397,3.97,-2.040743,-2.285931,2.640975,0.02034,0.32456999999999997,0.06668099999999999
398,3.98,-2.0684270000000002,-2.136446,2.3133340000000002,0.029922000000000004,0.275574,0.08265700000000001
399,3.99,-2.080873,-1.927066,1.7686369999999998,0.036316,0.174377,0.061355999999999994
400,4.0,-2.032787,-1.337064,1.230858,0.027801999999999997,0.084885,-0.010025000000000004
401,4.01,-1.8278020000000001,-0.4958409999999999,0.698943,-0.007355000000000001,0.017776,-0.10803200000000003
402,4.02,-1.512101,0.292555,0.41693800000000003,-0.029724,-0.013106999999999999,-0.19751
403,4.03,-1.032458,0.904325,0.283927,-0.023331,-0.009918000000000001,-0.262482
404,4.04,-0.798046,1.19634,0.253363,-0.022278,0.025238,-0.309357
405,4.05,-0.50065,1.322466,0.26016999999999996,-0.013748,0.063583,-0.339188
406,4.06,-0.13105,1.404102,0.24673699999999998,0.015015,0.083832,-0.359421
407,4.07,-0.08077999999999999,1.134263,0.178884,0.052292,0.104065,-0.374344
408,4.08,-0.11446600000000001,0.503268,0.18273399999999998,0.069336,0.108322,-0.369019
409,4.09,-0.16753900000000002,-0.28836999999999996,0.26710300000000003,0.054428,0.129639,-0.3573
410,4.1,-0.23477800000000001,-0.8873200000000001,0.299834,0.02034,0.166916,-0.359421
411,4.11,-0.528417,-1.296181,0.09597500000000002,-0.024399,0.19781500000000002,-0.377533
412,4.12,-0.770944,-1.5320850000000001,-0.134891,-0.059555,0.205261,-0.39032
413,4.13,-1.026964,-1.741668,-0.217362,-0.09364299999999999,0.218048,-0.389252
414,4.14,-1.13513,-1.768456,-0.220982,-0.144775,0.221252,-0.389252
415,4.15,-1.079177,-1.553186,-0.19459500000000002,-0.198044,0.202072,-0.389252
416,4.16,-0.9326969999999999,-1.2386549999999998,-0.14231,-0.242783,0.175446,-0.38392600000000005
417,4.17,-0.611057,-0.8947860000000001,-0.12019400000000001,-0.249176,0.140289,-0.365814
418,4.18,-0.412815,-0.7659060000000001,-0.128859,-0.223602,0.106201,-0.346649
419,4.19,-0.33419,-0.809086,-0.187198,-0.186325,0.089157,-0.323212
420,4.2,-0.344146,-0.9002120000000001,-0.23748200000000003,-0.142654,0.067841,-0.300842
421,4.21,-0.449895,-1.017724,-0.34810100000000005,-0.095779,0.034821,-0.285919
422,4.22,-0.567775,-1.171189,-0.47132700000000005,-0.06488,-0.015244,-0.267807
423,4.23,-0.651147,-1.197384,-0.555399,-0.061690999999999996,-0.058914,-0.24118
424,4.24,-0.799665,-1.17913,-0.587264,-0.078735,-0.091934,-0.21562199999999998
425,4.25,-0.9725659999999999,-0.93575,-0.408491,-0.0979,-0.123901,-0.16449
426,4.26,-0.872617,-0.687807,-0.266559,-0.077667,-0.142014,-0.11441
427,4.27,-0.729781,-0.397242,-0.325229,-0.037186000000000004,-0.159058,-0.07713300000000001
428,4.28,-0.659883,-0.22675,-0.39058400000000004,0.016083,-0.183548,-0.044113
429,4.29,-0.5595899999999999,-0.12459300000000001,-0.455028,0.079987,-0.211258,-0.01535
430,4.3,-0.37658400000000003,-0.076921,-0.580725,0.141785,-0.23149099999999997,0.009155
431,4.31,-0.267648,-0.125356,-0.8196760000000001,0.205688,-0.273041,0.017669999999999998
432,4.32,-0.36378499999999997,-0.226721,-1.025733,0.2547,-0.30925,0.026199
433,4.33,-0.42142299999999994,-0.444773,-1.274527,0.24937399999999998,-0.32629400000000003,0.041107
434,4.34,-0.398471,-0.66642,-1.4401469999999998,0.205688,-0.344406,0.056029999999999996
435,4.35,-0.504644,-0.639666,-1.533749,0.10555999999999999,-0.38169899999999995,0.060287
436,4.36,-0.705622,-0.386802,-1.494022,0.038452,-0.39447,0.054962000000000004
437,4.37,-0.928701,-0.03449299999999997,-1.365525,-0.037186000000000004,-0.38063,0.041107
438,4.38,-1.160835,0.420662,-1.195925,-0.11389200000000001,-0.340149,0.018738
439,4.39,-1.329774,0.941901,-1.0188139999999999,-0.16181900000000002,-0.302872,-0.005753
440,4.4,-1.6242940000000001,1.379918,-1.033432,-0.153305,-0.27516199999999996,-0.030257999999999997
441,4.41,-1.8218560000000001,1.5803690000000001,-1.228732,-0.094711,-0.240021,-0.040909
442,4.42,-2.037348,1.600645,-1.445039,-0.020142,-0.19953900000000002,-0.041977
443,4.43,-2.0223400000000002,1.490836,-1.735426,0.040573000000000005,-0.176102,-0.039841
444,4.44,-1.873246,1.391097,-2.1282240000000003,0.09491000000000001,-0.176102,-0.029189999999999997
445,4.45,-1.657111,1.424415,-2.505852,0.14816300000000002,-0.198471,-0.022797
446,4.46,-1.294466,1.604803,-2.699647,0.19503800000000002,-0.25811799999999996,-0.022797
447,4.47,-0.8604,1.8781700000000001,-2.735743,0.242981,-0.335892,-0.020676
448,4.48,-0.402624,2.391813,-2.4709790000000003,0.29090900000000003,-0.41685500000000003,-0.053696
449,4.49,-0.353479,2.769186,-1.8294849999999998,0.318619,-0.49247700000000005,-0.106964
450,4.5,-0.746862,2.72987,-0.472632,0.316483,-0.475433,-0.127197
451,4.51,-1.344483,2.385938,0.909412,0.273865,-0.30499299999999996,-0.143173
452,4.52,-1.755463,2.12344,2.095421,0.230194,-0.097275,-0.181534
453,4.53,-1.711666,1.919976,2.9331150000000004,0.227005,0.054001,-0.23053
454,4.54,-1.113438,1.432709,3.4304300000000003,0.235519,0.14561500000000002,-0.279526
455,4.55,-0.557062,0.533822,3.5890519999999997,0.203568,0.186096,-0.330658
456,4.56,0.13434199999999993,-0.493199,3.500378,0.15776099999999998,0.218048,-0.369019
457,4.57,1.032952,-1.252847,3.122148,0.159882,0.227631,-0.39032
458,4.58,1.7435200000000002,-1.727121,2.5564270000000002,0.190781,0.19354200000000002,-0.397781
459,4.59,2.3309130000000002,-1.8893419999999999,2.076516,0.191849,0.108322,-0.355164
460,4.6,2.7241169999999997,-1.696491,1.787467,0.12260399999999999,-0.022705000000000003,-0.275269
461,4.61,2.667973,-1.003539,1.369304,0.0022279999999999943,-0.14840699999999998,-0.177261
462,4.62,1.6713060000000002,-0.11015299999999996,0.900532,-0.134125,-0.20486500000000002,-0.07074
463,4.63,0.49907700000000005,0.677485,0.614576,-0.2332,-0.173965,0.047501
464,4.64,-0.559721,1.124459,0.496569,-0.315216,-0.058914000000000015,0.151901
465,4.65,-1.5263149999999999,1.2205059999999999,0.5650390000000001,-0.391922,0.090225,0.239258
466,4.66,-1.890021,0.917111,0.9544950000000001,-0.42068500000000003,0.241486,0.311691
467,4.67,-1.7801810000000002,0.367001,1.1900899999999999,-0.376999,0.360794,0.362823
468,4.68,-1.322425,-0.12325999999999998,1.357324,-0.308823,0.4375,0.405426
469,4.69,-0.701681,-0.6625850000000001,1.34851,-0.251297,0.45454399999999995,0.43525699999999995
470,4.7,-0.278602,-1.207257,1.198984,-0.19911199999999998,0.43536400000000003,0.461899
471,4.71,0.288143,-1.615116,0.940001,-0.14798,0.39913899999999997,0.470413
472,4.72,0.723511,-2.0006470000000003,0.648124,-0.110687,0.345886,0.466156
473,4.73,0.9782,-2.40053,0.343921,-0.10536199999999998,0.28836100000000003,0.46083100000000005
474,4.74,1.1475870000000001,-2.6504849999999998,0.043854,-0.12454200000000001,0.244675,0.456558
475,4.75,1.226274,-2.6797619999999998,-0.269279,-0.160751,0.215927,0.45018
476,4.76,1.236135,-2.2865189999999997,-0.558042,-0.216156,0.19461099999999998,0.436325
477,4.77,1.1866729999999999,-1.68275,-0.672663,-0.277939,0.18077100000000002,0.41288800000000003
478,4.78,1.084249,-1.054826,-0.6499050000000001,-0.33013899999999996,0.188217,0.371338
479,4.79,0.766115,-0.491868,-0.490816,-0.363159,0.23190300000000003,0.33619699999999997
480,4.8,0.617804,-0.211667,-0.282493,-0.353577,0.294754,0.298904
481,4.81,0.401131,-0.072515,-0.14594400000000002,-0.31309499999999996,0.36186199999999996,0.26055900000000004
482,4.82,0.277397,-0.11120799999999999,-0.097577,-0.250244,0.403412,0.221146
483,4.83,0.201722,-0.273552,-0.20180599999999999,-0.18951400000000002,0.423645,0.18066400000000002
484,4.84,0.24077300000000001,-0.598152,-0.362755,-0.146912,0.40980500000000003,0.13911400000000002
485,4.85,0.36409,-0.9687319999999999,-0.535333,-0.118149,0.377838,0.097565
486,4.86,0.536992,-1.151564,-0.705545,-0.103226,0.338425,0.065613
487,4.87,0.763778,-1.185389,-0.8860030000000001,-0.094711,0.284103,0.038986
488,4.88,0.9631940000000001,-1.0191219999999999,-0.987238,-0.092575,0.24362199999999998,0.012344
489,4.89,1.0217829999999999,-0.649767,-0.986792,-0.080856,0.223373,-0.012145999999999999
490,4.9,0.915284,-0.11294300000000003,-1.093452,-0.053162,0.23934899999999998,-0.027069
491,4.91,0.545982,0.371605,-1.206744,-0.009491,0.27131700000000003,-0.035583
492,4.92,0.197115,0.623061,-1.296935,0.037384,0.301147,-0.036652
493,4.93,-0.07567999999999997,0.550187,-1.1854559999999998,0.082123,0.313919,-0.027069
494,4.94,-0.0073539999999999986,0.19076700000000002,-0.90741,0.116211,0.312866,-0.012145999999999999
495,4.95,0.14669100000000002,-0.193855,-0.676495,0.140717,0.317123,-0.0025629999999999997
496,4.96,0.418731,-0.49568900000000005,-0.5937399999999999,0.15776099999999998,0.32456999999999997,0.0006259999999999999
497,4.97,0.683593,-0.554801,-0.655941,0.174805,0.338425,-0.010025
498,4.98,0.9469540000000001,-0.27863699999999997,-0.7258180000000001,0.177994,0.34481799999999996,-0.019608
499,4.99,1.081033,0.362483,-0.9158379999999999,0.16308599999999998,0.319244,-0.022797
500,5.0,1.3202639999999999,1.049168,-1.140973,0.137512,0.273438,-0.017471
501,5.01,1.510171,1.569871,-1.271995,0.131119,0.221252,-0.007889
502,5.02,1.5615379999999999,1.863563,-1.555138,0.153503,0.185028,0.007019
503,5.03,1.522581,1.9679349999999998,-1.966421,0.19503800000000002,0.191422,0.015549
504,5.04,1.318016,2.069197,-2.430472,0.22912600000000002,0.20953400000000003,0.02301
505,5.05,0.793788,2.325171,-2.875268,0.245102,0.23402399999999998,0.044312
506,5.06,0.10193100000000004,2.836457,-2.905048,0.222733,0.273438,0.085846
507,5.07,-0.482361,3.5154120000000004,-2.6703650000000003,0.151367,0.34481799999999996,0.16680899999999999
508,5.08,-0.420392,3.972071,-1.991905,0.03952,0.414062,0.268021
509,5.09,0.07874399999999998,3.907722,-0.707806,-0.028671,0.404465,0.34896900000000003
510,5.1,0.762601,3.3954489999999997,0.6512089999999999,-0.005233999999999999,0.334167,0.388382
511,5.11,1.610533,2.565227,1.833446,0.073608,0.25853000000000004,0.390518
512,5.12,2.06383,1.7111150000000002,2.621061,0.141785,0.179703,0.382004
513,5.13,2.016175,0.941615,2.740519,0.158829,0.205261,0.358566
514,5.14,1.5525360000000001,0.115713,2.5339650000000002,0.14816300000000002,0.27876300000000004,0.292511
515,5.15,0.587795,-0.752606,2.394735,0.14711,0.38209499999999996,0.190247
516,5.16,-0.5663819999999999,-1.621483,2.3952400000000003,0.14711,0.48968500000000004,0.0784
517,5.17,-1.6607029999999998,-2.1839779999999998,2.5401700000000003,0.11941500000000001,0.584503,-0.015350000000000003
518,5.18,-2.314074,-2.216986,2.7154220000000002,0.070404,0.6580050000000001,-0.052627999999999994
519,5.19,-2.430289,-1.975114,2.872106,0.027801999999999997,0.687836,-0.032394
520,5.2,-2.321745,-1.419301,2.643105,0.023528999999999998,0.64415,0.002762000000000001
521,5.21,-2.087273,-0.6829770000000001,2.0498819999999998,0.025664999999999997,0.5173949999999999,0.031525
522,5.22,-1.7926080000000002,-0.16530799999999998,1.311015,0.005431999999999999,0.337357,0.046432
523,5.23,-1.184332,0.138268,0.71212,-0.04783599999999999,0.116852,0.037918
524,5.24,-0.473944,0.267621,0.496883,-0.13198900000000002,-0.077026,0.028336
525,5.25,0.182016,0.197434,0.47809700000000005,-0.231064,-0.181427,0.010223000000000001
526,5.26,0.884935,0.025561,0.510638,-0.317352,-0.22616599999999998,-0.010025
527,5.27,1.2905,-0.144358,0.566408,-0.35676599999999997,-0.24320999999999998,-0.047302
528,5.28,1.5581969999999998,-0.216236,0.715804,-0.361023,-0.235748,-0.10057100000000001
529,5.29,1.523013,-0.233508,0.703947,-0.359955,-0.197403,-0.17514000000000002
530,5.3,1.2138309999999999,-0.30695,0.783881,-0.36528,-0.139877,-0.255035
531,5.31,0.802704,-0.510951,0.8804559999999999,-0.366348,-0.071701,-0.33493
532,5.32,0.453128,-0.7233310000000001,0.9658530000000001,-0.363159,-0.028030000000000003,-0.419083
533,5.33,-0.144479,-0.9653510000000001,0.903694,-0.33013899999999996,0.0007319999999999983,-0.48832700000000007
534,5.34,-0.733312,-1.053988,0.731537,-0.28112800000000004,0.005005,-0.526672
535,5.35,-1.065178,-1.140417,0.398582,-0.223602,-0.007782000000000002,-0.529877
536,5.36,-1.323366,-1.194696,0.11443299999999999,-0.182068,-0.040802000000000005,-0.523483
537,5.37,-1.445648,-1.254981,-0.166052,-0.15756199999999998,-0.093002,-0.500046
538,5.38,-1.445386,-1.354675,-0.38308000000000003,-0.143707,-0.15266400000000002,-0.45530699999999996
539,5.39,-1.37782,-1.4685780000000002,-0.45483599999999996,-0.12773099999999998,-0.205933,-0.397781
540,5.4,-1.250898,-1.572806,-0.5266850000000001,-0.10429400000000001,-0.242142,-0.332794
541,5.41,-1.1383379999999998,-1.637508,-0.618428,-0.076599,-0.264511,-0.273148
542,5.42,-0.989373,-1.658232,-0.753206,-0.047836000000000004,-0.281555,-0.223068
543,5.43,-0.8741549999999999,-1.5956620000000001,-0.8534790000000001,-0.025467,-0.277298,-0.184723
544,5.44,-0.777452,-1.391565,-1.032737,-0.003098,-0.252792,-0.16981500000000002
545,5.45,-0.817066,-1.169491,-1.128968,0.018203999999999998,-0.236816,-0.16661099999999998
546,5.46,-0.909907,-0.835624,-1.193195,0.037384,-0.225098,-0.153824
547,5.47,-0.949274,-0.497158,-1.195295,0.053360000000000005,-0.22935500000000003,-0.12826500000000002
548,5.48,-0.8024359999999999,-0.23776399999999998,-1.073017,0.082123,-0.240021,-0.092041
549,5.49,-0.6252880000000001,-0.12474600000000001,-0.902151,0.137512,-0.264511,-0.057953
550,5.5,-0.5231859999999999,-0.227088,-0.753466,0.21315,-0.298599,-0.032394
551,5.51,-0.427071,-0.49109899999999995,-0.657021,0.288788,-0.32203699999999996,-0.010025
552,5.52,-0.406659,-0.806845,-0.578547,0.330338,-0.331619,0.017669999999999998
553,5.53,-0.396477,-0.9471959999999999,-0.789288,0.334595,-0.362518,0.026199
554,5.54,-0.564283,-0.793103,-1.055342,0.30795300000000003,-0.429626,0.032593000000000004
555,5.55,-0.749742,-0.24733700000000006,-1.256722,0.257889,-0.48396300000000003,0.026199
556,5.56,-1.065193,0.431439,-1.341603,0.16095,-0.506332,0.015549
557,5.57,-1.605214,1.15262,-1.112441,0.030991000000000005,-0.466919,-0.016418000000000002
558,5.58,-2.284922,1.653191,-0.715376,-0.079803,-0.342285,-0.046234
559,5.59,-3.011134,1.865661,-0.380631,-0.107498,-0.130295,-0.063278
560,5.6,-3.199071,1.9916619999999998,-0.506757,-0.033997,0.054001000000000014,-0.088852
561,5.61,-2.41779,2.293477,-1.136815,0.103424,0.082764,-0.11761500000000001
562,5.62,-1.223907,2.552132,-1.7362799999999998,0.263214,-0.033356,-0.15596
563,5.63,0.016994999999999982,2.913675,-2.1137509999999997,0.420883,-0.255997,-0.163422
564,5.64,1.143993,3.39236,-1.903148,0.55191,-0.48503100000000005,-0.167679
565,5.65,1.659113,3.6784559999999997,-1.311097,0.62648,-0.622437,-0.18365499999999998
566,5.66,1.0463719999999999,3.331568,-0.22657600000000003,0.622208,-0.643753,-0.187912
567,5.67,-0.2466299999999999,2.598706,1.103642,0.527405,-0.518051,-0.199631
568,5.68,-1.18485,1.988833,2.355843,0.411285,-0.385956,-0.25183099999999997
569,5.69,-1.325809,1.52895,3.597608,0.31967199999999996,-0.3508,-0.31575
570,5.7,-0.5454479999999999,1.032471,4.740622,0.248306,-0.341217,-0.37114
571,5.71,0.375318,0.41032799999999997,5.162076,0.188644,-0.32843,-0.458496
572,5.72,1.20404,-0.30188000000000004,4.787461,0.237656,-0.325241,-0.513885
573,5.73,2.285684,-0.706655,4.16121,0.413422,-0.296478,-0.510696
574,5.74,3.1486330000000002,-0.791333,3.075614,0.597717,-0.25811799999999996,-0.465958
575,5.75,3.783947,-0.620525,1.8506099999999999,0.638199,-0.26239,-0.404175
576,5.76,3.5056260000000004,-0.135363,0.9040739999999999,0.519943,-0.310318,-0.335999
577,5.77,2.057093,0.43418999999999996,0.263154,0.335663,-0.307129,-0.240112
578,5.78,0.22610600000000006,0.715346,-0.08422400000000001,0.12793,-0.215515,-0.116547
579,5.79,-1.577392,0.7419359999999999,-0.112783,-0.107498,-0.066376,-0.0014950000000000033
580,5.8,-3.1398580000000003,0.753201,0.026054,-0.305634,0.09767200000000001,0.11781300000000001
581,5.81,-3.9728449999999995,0.81781,0.314197,-0.410034,0.25746199999999997,0.256302
582,5.82,-3.714626,0.39438,0.942533,-0.432404,0.357605,0.394775
583,5.83,-2.630656,-0.364695,1.554543,-0.40470900000000004,0.403412,0.515152
584,5.84,-1.11906,-1.1284530000000002,1.882712,-0.346115,0.40873699999999996,0.605698
585,5.85,0.328168,-1.8100180000000001,1.7609,-0.27261399999999997,0.36186199999999996,0.6365970000000001
586,5.86,1.5555709999999998,-2.183864,1.282275,-0.198044,0.313919,0.639786
587,5.87,2.420451,-2.551948,0.689321,-0.144775,0.290482,0.607834
588,5.88,2.79165,-2.701593,0.10844700000000003,-0.130936,0.270248,0.5524439999999999
589,5.89,2.543661,-2.602921,-0.385366,-0.171402,0.267059,0.508759
590,5.9,2.205406,-2.629371,-0.617896,-0.23425300000000002,0.242554,0.470413
591,5.91,1.6251440000000001,-2.584638,-0.671388,-0.29284699999999997,0.223373,0.43418900000000005
592,5.92,1.087782,-2.180918,-0.682103,-0.342911,0.21698,0.410767
593,5.93,0.803161,-1.6735529999999998,-0.6595810000000001,-0.36741599999999996,0.22230500000000003,0.387329
594,5.94,0.619375,-1.149482,-0.603421,-0.369553,0.241486,0.351105
595,5.95,0.46063000000000004,-0.7448520000000001,-0.456912,-0.33758499999999997,0.272385,0.308487
596,5.96,0.465834,-0.572457,-0.396777,-0.28112800000000004,0.279831,0.264816
597,5.97,0.511158,-0.745804,-0.390088,-0.206558,0.27876300000000004,0.217941
598,5.98,0.6551279999999999,-1.086644,-0.48153199999999996,-0.13731400000000002,0.25853000000000004,0.174271
599,5.99,0.8236760000000001,-1.613146,-0.6413409999999999,-0.088318,0.22551,0.126328
600,6.0,1.02552,-2.125357,-0.7854479999999999,-0.061690999999999996,0.178635,0.081589
601,6.01,1.123772,-2.292385,-0.934959,-0.071274,0.148804,0.037918
602,6.02,1.069608,-2.038739,-1.103831,-0.100037,0.140289,-0.015350000000000003
603,6.03,0.8445530000000001,-1.256779,-1.133365,-0.13945,0.160522,-0.07713300000000001
604,6.04,0.6007979999999999,-0.14806200000000005,-1.04236,-0.150101,0.201004,-0.150635
605,6.05,0.23274699999999998,0.781269,-1.012694,-0.111755,0.23934899999999998,-0.20497100000000001
606,6.06,-0.087434,1.187761,-0.8733559999999999,-0.029724,0.27771,-0.240112
607,6.07,-0.057501,1.014856,-0.6914779999999999,0.06189,0.293686,-0.259293
608,6.08,0.24718299999999999,0.400418,-0.525018,0.151367,0.300079,-0.261429
609,6.09,0.790315,-0.21584600000000004,-0.41651800000000005,0.233398,0.285156,-0.266754
610,6.1,1.351781,-0.5,-0.613333,0.300507,0.22230500000000003,-0.257156
611,6.11,1.658985,-0.19106700000000001,-1.081014,0.334595,0.177567,-0.24118
612,6.12,1.680939,0.48052399999999995,-1.466839,0.323944,0.160522,-0.22201500000000002
613,6.13,1.571552,1.2490940000000001,-1.747261,0.273865,0.113647,-0.196442
614,6.14,1.538791,1.578481,-1.7549849999999998,0.216354,-0.004593000000000007,-0.168747
615,6.15,1.100882,1.7931080000000001,-1.897398,0.16308599999999998,-0.087677,-0.131454
616,6.16,0.579072,2.145883,-2.1223259999999997,0.135391,-0.093002,-0.085648
617,6.17,0.0072880000000000176,2.647984,-2.3033580000000002,0.14283800000000002,-0.054657000000000004,-0.035583
618,6.18,-0.628167,3.455741,-2.217613,0.176926,-0.00885,0.054962000000000004
619,6.19,-0.9581299999999999,4.546416000000001,-1.758675,0.19931,0.058258000000000004,0.18598900000000002
620,6.2,-0.671676,5.545948,-1.159216,0.187592,0.15945399999999998,0.341522
621,6.21,0.234588,5.824248000000001,-0.14244100000000004,0.1716,0.187164,0.479996
622,6.22,1.721512,4.902558999999999,1.234902,0.242981,0.12004100000000001,0.571609
623,6.23,3.275153,3.195267,2.356042,0.389984,-0.015244,0.595047
624,6.24,3.863889,1.6086120000000002,2.7655119999999997,0.510361,-0.14413499999999999,0.563095
625,6.25,3.559929,0.386054,2.519413,0.495453,-0.189941,0.5311279999999999
626,6.26,2.643308,-0.8487520000000001,2.343342,0.385727,-0.143082,0.48426800000000003
627,6.27,1.0647309999999999,-2.165644,2.634478,0.282394,-0.045074,0.386261
628,6.28,-0.739929,-3.098265,2.8599799999999997,0.220612,0.047607,0.303162
629,6.29,-2.2468619999999997,-3.195769,2.792761,0.156693,0.18077100000000002,0.269073
630,6.3,-3.0706700000000002,-2.483869,2.43222,0.070404,0.29155,0.292511
631,6.31,-3.2827029999999997,-1.30807,1.985886,-0.018005,0.308594,0.309555
632,6.32,-3.237423,0.04832900000000007,1.4457149999999999,-0.08618200000000001,0.247879,0.294647
633,6.33,-2.699706,1.186809,1.1753870000000002,-0.13731400000000002,0.075302,0.252029
634,6.34,-1.501865,1.7612439999999998,1.1086049999999998,-0.198044,-0.17717,0.192383
635,6.35,-0.090213,1.550175,1.382779,-0.268341,-0.397675,0.136993
636,6.36,1.148261,1.0427,1.595284,-0.33653299999999997,-0.526566,0.097565
637,6.37,2.374492,0.48991599999999996,1.62599,-0.366348,-0.597946,0.040054
638,6.38,3.229069,0.216939,1.58346,-0.34079,-0.632034,-0.049438
639,6.39,3.4223209999999997,0.090616,1.355581,-0.296051,-0.6426850000000001,-0.176208
640,6.4,2.9252290000000003,-0.09363400000000001,1.137586,-0.271545,-0.6117859999999999,-0.292313
641,6.41,2.053291,-0.464132,1.063709,-0.28326399999999996,-0.5670470000000001,-0.391388
642,6.42,0.9340290000000001,-0.8777879999999999,1.0171370000000002,-0.282196,-0.539352,-0.467026
643,6.43,-0.160725,-1.283491,0.8730469999999999,-0.26301599999999997,-0.513794,-0.52774
644,6.44,-1.119213,-1.534498,0.7258680000000001,-0.22148099999999998,-0.49673500000000004,-0.555435
645,6.45,-2.012966,-1.833479,0.43862700000000004,-0.176743,-0.475433,-0.556503
646,6.46,-2.36668,-1.951241,-0.03656099999999998,-0.142654,-0.45094300000000004,-0.529877
647,6.47,-2.432531,-1.93262,-0.511778,-0.135193,-0.42430100000000004,-0.503235
648,6.48,-2.262586,-1.899232,-0.794488,-0.153305,-0.40299999999999997,-0.47767600000000005
649,6.49,-2.115919,-1.807062,-1.071933,-0.186325,-0.392349,-0.452103
650,6.5,-1.8056029999999998,-1.750578,-1.008359,-0.227875,-0.375305,-0.40097
651,6.51,-1.406236,-1.775679,-0.928266,-0.251297,-0.348663,-0.332794
652,6.52,-1.016443,-1.8630060000000002,-0.937118,-0.255569,-0.324173,-0.261429
653,6.53,-0.756173,-2.053071,-1.076905,-0.253433,-0.293274,-0.194305
654,6.54,-0.6222409999999999,-2.1001689999999997,-1.2258790000000002,-0.253433,-0.25811799999999996,-0.143173
655,6.55,-0.6202949999999999,-2.022082,-1.286036,-0.25663800000000003,-0.218704,-0.099503
656,6.56,-0.7356550000000001,-1.749194,-1.202453,-0.250244,-0.176102,-0.065414
657,6.57,-0.857672,-1.2760850000000001,-1.09422,-0.218277,-0.13562000000000002,-0.039841
658,6.58,-0.89704,-0.547771,-0.906141,-0.154358,-0.11750799999999999,-0.022797
659,6.59,-0.770671,0.08679500000000001,-0.7549060000000001,-0.043579,-0.128159,-0.014282
660,6.6,-0.616259,0.51252,-0.662576,0.103424,-0.16331500000000002,-0.003632
661,6.61,-0.305675,0.507116,-0.685137,0.26109299999999996,-0.20912199999999997,0.009154999999999998
662,6.62,0.009811000000000014,0.098159,-0.6619109999999999,0.385727,-0.263443,0.024063
663,6.63,0.287719,-0.35730700000000004,-0.799197,0.448578,-0.31352199999999997,0.037918
664,6.64,0.495741,-0.5842350000000001,-0.97229,0.456024,-0.375305,0.057098
665,6.65,0.5997359999999999,-0.490116,-1.00261,0.412354,-0.442413,0.08052100000000001
666,6.66,0.14307400000000006,-0.34310799999999997,-0.766188,0.32074,-0.43601999999999996,0.108231
667,6.67,-0.93837,-0.088555,-0.42658199999999996,0.16841099999999998,-0.298599,0.098633
668,6.68,-2.241559,0.315245,-0.37659899999999996,-0.0052340000000000025,-0.11644000000000002,0.037918
669,6.69,-3.241101,1.0543790000000002,-0.606577,-0.10536199999999998,0.007126,-0.040909
670,6.7,-3.6639160000000004,1.8069330000000001,-0.9877969999999999,-0.069138,0.068909,-0.11228900000000001
671,6.71,-3.328114,2.4053970000000002,-1.7110889999999999,0.056563999999999996,0.102997,-0.163422
672,6.72,-2.1209130000000003,2.803143,-2.534764,0.16734300000000002,0.12324500000000001,-0.196442
673,6.73,-0.593542,3.309558,-2.962572,0.231262,0.064651,-0.231598
674,6.74,0.8363210000000001,4.065842,-2.729174,0.294113,-0.106857,-0.276337
675,6.75,1.9343400000000002,4.926895,-2.066821,0.378265,-0.28476,-0.310425
676,6.76,2.048474,4.942563,-1.3592959999999998,0.43472299999999997,-0.43601999999999996,-0.32428
677,6.77,0.783021,3.598861,-0.4270700000000001,0.42939799999999995,-0.379562,-0.30509899999999995
678,6.78,-0.694136,1.8908310000000002,0.26056,0.394241,-0.169708,-0.283798
679,6.79,-2.13415,0.7552489999999998,0.9735229999999999,0.33992,0.014587000000000003,-0.293381
680,6.8,-3.016579,0.264542,1.9098439999999999,0.269608,0.166916,-0.31149299999999996
681,6.81,-2.8453169999999997,-0.04501200000000001,2.9095590000000002,0.176926,0.232971,-0.316818
682,6.82,-1.554919,-0.327382,3.614125,0.07572899999999999,0.129639,-0.33705100000000005
683,6.83,-0.16760399999999998,-0.727023,4.130657,0.029922000000000004,0.010330000000000006,-0.379669
684,6.84,1.335508,-1.01233,4.0486379999999995,0.09491000000000001,-0.05146799999999999,-0.415894
685,6.85,2.572781,-1.348655,3.3742,0.196106,-0.054657000000000004,-0.467026
686,6.86,3.501462,-1.479667,2.355179,0.24616999999999997,-0.025894,-0.492584
687,6.87,3.811352,-1.083261,1.2916379999999998,0.20463599999999998,0.017776,-0.480865
688,6.88,3.159267,-0.219597,0.543108,0.079987,0.092346,-0.393509
689,6.89,1.842342,0.52754,0.098808,-0.098969,0.20739699999999997,-0.246506
690,6.9,0.46533,0.788898,0.08947000000000001,-0.314148,0.309662,-0.08992
691,6.91,-0.941262,0.6687420000000001,0.385273,-0.49844399999999994,0.39595,0.041107
692,6.92,-2.256955,0.725004,0.663085,-0.5975189999999999,0.473709,0.165741
693,6.93,-2.9490950000000002,0.736075,0.913475,-0.614563,0.532303,0.309555
694,6.94,-2.79303,0.325513,1.2993430000000001,-0.580475,0.538696,0.45336899999999997
695,6.95,-1.9768029999999999,-0.3177499999999999,1.58375,-0.5431819999999999,0.521652,0.5769350000000001
696,6.96,-0.7398,-1.144001,1.7383080000000002,-0.501648,0.47798199999999996,0.650436
697,6.97,0.405679,-1.935743,1.6626490000000003,-0.441986,0.41299399999999997,0.6706850000000001
698,6.98,1.3502040000000002,-2.482736,1.219085,-0.39299,0.346954,0.662155
699,6.99,2.129819,-3.057556,0.7198399999999999,-0.36528,0.306473,0.620621
700,7.0,2.27477,-3.10827,0.155007,-0.372742,0.267059,0.564163
701,7.01,2.1238580000000002,-2.8813619999999998,-0.221766,-0.396179,0.24041700000000002,0.529007
702,7.02,1.909459,-2.636043,-0.368386,-0.41322299999999995,0.22018400000000002,0.485321
703,7.03,1.526173,-2.0434069999999998,-0.543849,-0.41322299999999995,0.21698,0.442719
704,7.04,1.21636,-1.327806,-0.550999,-0.396179,0.218048,0.39798
705,7.05,0.98779,-0.7710100000000001,-0.555044,-0.35144000000000003,0.223373,0.354294
706,7.06,0.93232,-0.520288,-0.514989,-0.27473400000000003,0.215927,0.311691
707,7.07,1.043958,-0.61617,-0.653026,-0.163956,0.190353,0.272278
708,7.08,1.020525,-0.9390360000000001,-0.8612540000000001,-0.051041,0.14561500000000002,0.236053
709,7.09,1.157403,-1.433914,-1.1553639999999998,0.029922000000000008,0.075302,0.20517
710,7.1,1.315792,-1.963546,-1.471902,0.079987,0.002868999999999997,0.182785
711,7.11,1.4632530000000001,-2.42138,-1.800124,0.090652,-0.070633,0.152969
712,7.12,1.346021,-2.5926169999999997,-2.062855,0.060822,-0.133484,0.121002
713,7.13,1.161619,-2.334575,-2.127703,-0.004166000000000003,-0.156921,0.087982
714,7.14,0.805339,-1.477031,-2.0191630000000003,-0.091507,-0.131363,0.03685
715,7.15,0.38914099999999996,-0.454024,-1.84788,-0.15223699999999998,-0.075958,-0.019608
716,7.16,-0.026719999999999997,0.377271,-1.4748430000000001,-0.160751,-0.009917999999999995,-0.07074
717,7.17,-0.269474,0.8674879999999999,-1.199984,-0.128799,0.052933,-0.10057100000000001
718,7.18,-0.481795,0.904759,-0.920319,-0.088318,0.11792000000000001,-0.11441
719,7.19,-0.5260279999999999,0.731046,-0.782143,-0.059555,0.196747,-0.11441
720,7.2,-0.5244770000000001,0.50583,-0.8573440000000001,-0.032928,0.321381,-0.125076
721,7.21,-0.310832,0.570785,-1.0116020000000001,-0.006287000000000001,0.446014,-0.143173
722,7.22,0.120781,0.90741,-1.25466,0.018203999999999998,0.491821,-0.13677999999999998
723,7.23,0.861475,1.389198,-1.2599790000000002,0.019272,0.41299399999999997,-0.084595
724,7.24,1.607582,2.056512,-1.28714,-0.008423,0.27131700000000003,0.005965999999999999
725,7.25,2.419006,2.562005,-1.362212,-0.029724,0.190353,0.10609400000000001
726,7.26,2.910336,2.993143,-1.578195,9.199999999999832e-05,0.163727,0.168945
727,7.27,2.8230880000000003,3.201017,-1.809125,0.085312,0.10939000000000002,0.182785
728,7.28,2.137357,3.4198180000000002,-1.9869290000000002,0.185455,0.081696,0.192383
729,7.29,1.107879,3.886853,-1.9099169999999999,0.262146,0.088089,0.23393200000000003
730,7.3,0.430274,4.666354,-1.544512,0.296249,0.17012,0.320206
731,7.31,0.54194,4.9570669999999994,-0.9917790000000001,0.271744,0.242554,0.42460600000000004
732,7.32,1.581057,3.793071,0.29122000000000003,0.255768,0.158401,0.503433
733,7.33,2.687771,1.8059290000000001,1.869459,0.301575,-0.008849999999999997,0.502365
734,7.34,2.873528,0.23202500000000004,3.270205,0.33778400000000003,-0.14413499999999999,0.48213199999999995
735,7.35,2.363972,-0.770529,4.36285,0.304764,-0.139877,0.503433
736,7.36,0.8995770000000001,-1.190575,4.833621,0.209961,-0.01631199999999999,0.5471189999999999
737,7.37,-0.80689,-1.352808,4.645487999999999,0.139648,0.138153,0.5588380000000001
738,7.38,-2.364979,-1.430986,3.998421,0.190781,0.20846599999999998,0.518356
739,7.39,-3.3632449999999996,-1.16371,3.231252,0.328201,0.15626500000000002,0.472549
740,7.4,-4.233858000000001,-0.940269,2.256386,0.464554,0.140289,0.415024
741,7.41,-4.450817,-0.215179,1.156764,0.500778,0.100876,0.340454
742,7.42,-3.705346,1.031348,0.189349,0.391052,0.0028690000000000035,0.288254
743,7.43,-1.935963,2.1220689999999998,-0.30399499999999996,0.203568,-0.1026,0.239258
744,7.44,0.148799,2.676308,-0.360819,0.0022279999999999943,-0.21763600000000002,0.15509
745,7.45,1.655792,2.503931,-0.151583,-0.212952,-0.362518,0.058151
746,7.46,3.011672,1.8991200000000001,0.535884,-0.42813100000000004,-0.490356,-0.030257999999999997
747,7.47,3.859403,1.424419,1.0433569999999999,-0.546387,-0.560654,-0.16128499999999998
748,7.48,3.9080199999999996,0.697685,1.4449299999999998,-0.56662,-0.586227,-0.318954
749,7.49,3.312089,-0.28011699999999995,1.6201510000000001,-0.538925,-0.580902,-0.471283
750,7.5,2.172956,-1.258678,1.607776,-0.479263,-0.5670470000000001,-0.5767359999999999
751,7.51,1.0882969999999998,-1.9834319999999999,1.34833,-0.407898,-0.52977,-0.632141
752,7.52,-0.046877999999999975,-2.547366,0.924114,-0.33226,-0.48396300000000003,-0.671555
753,7.53,-1.279133,-2.914279,0.404706,-0.285385,-0.44455,-0.702438
754,7.54,-2.145245,-3.2970839999999995,-0.120527,-0.275803,-0.393417,-0.688599
755,7.55,-2.46191,-3.346021,-0.650221,-0.28965799999999997,-0.341217,-0.661957
756,7.56,-2.584759,-3.324768,-1.082358,-0.317352,-0.31352199999999997,-0.64386
757,7.57,-2.562323,-3.0692779999999997,-1.3464399999999999,-0.33972199999999997,-0.315643,-0.620422
758,7.58,-2.536834,-2.636889,-1.45601,-0.375946,-0.331619,-0.574615
759,7.59,-2.361091,-2.299147,-1.433777,-0.41748,-0.3508,-0.519211
760,7.6,-2.0608880000000003,-1.996662,-1.3720219999999999,-0.44731099999999996,-0.35186799999999996,-0.45636000000000004
761,7.61,-1.7275029999999998,-1.841777,-1.164963,-0.44731099999999996,-0.340149,-0.38179
762,7.62,-1.431292,-1.7870150000000002,-0.991185,-0.407898,-0.32310500000000003,-0.29551700000000003
763,7.63,-1.118084,-1.818127,-0.8784190000000001,-0.33653299999999997,-0.298599,-0.21134899999999998
764,7.64,-1.046462,-1.8334560000000002,-0.931301,-0.259827,-0.270905,-0.132523
765,7.65,-0.939499,-1.723225,-1.0158280000000002,-0.18100000000000002,-0.245346,-0.064346
766,7.66,-0.841809,-1.452666,-1.188521,-0.114944,-0.22616599999999998,-0.022797
767,7.67,-0.7445390000000001,-1.056271,-1.310486,-0.054229999999999993,-0.228302,0.0006259999999999997
768,7.68,-0.703379,-0.692148,-1.463507,0.009689,-0.245346,0.0038299999999999996
769,7.69,-0.56726,-0.45647200000000004,-1.496464,0.078934,-0.263443,0.010223000000000001
770,7.7,-0.43382,-0.370299,-1.332183,0.11834700000000001,-0.274109,0.016617
771,7.71,-0.019003999999999962,-0.258008,-1.112142,0.13006600000000001,-0.299667,0.016617
772,7.72,0.418363,-0.04916899999999999,-0.9315479999999999,0.114075,-0.39021300000000003,0.018738
773,7.73,0.740348,0.340281,-0.716349,0.087448,-0.526566,0.029388
774,7.74,0.5046069999999999,0.73249,-0.34485,0.053360000000000005,-0.619247,0.040054
775,7.75,-0.40471399999999996,1.003757,0.18225400000000005,0.007552999999999997,-0.5681149999999999,0.045380000000000004
776,7.76,-2.225054,1.335389,0.353454,-0.023331,-0.3508,0.008087
777,7.77,-3.7172709999999998,2.284176,-0.32865900000000003,0.011809999999999998,-0.15478499999999998,-0.10057100000000001
778,7.78,-4.182329,3.03985,-1.045995,0.128998,-0.057846,-0.20602399999999998
779,7.79,-3.4238410000000004,3.5863690000000004,-1.748378,0.29836999999999997,-0.033356,-0.280594
780,7.8,-1.806709,4.2549019999999995,-2.162035,0.426208,-0.097275,-0.359421
781,7.81,0.20605000000000015,5.281319,-2.175679,0.454971,-0.205933,-0.486191
782,7.82,1.6700509999999997,5.893689,-1.6972599999999998,0.396378,-0.36038200000000004,-0.595917
783,7.83,1.84148,5.262969,-0.11015399999999996,0.328201,-0.433899,-0.604431
784,7.84,1.640208,4.052491000000001,1.7291299999999998,0.359085,-0.318848,-0.566086
785,7.85,0.204143,2.622652,2.963445,0.411285,-0.11750799999999999,-0.546921
786,7.86,-1.03147,1.6807509999999999,3.754579,0.42513999999999996,0.018844999999999997,-0.531998
787,7.87,-1.1660979999999999,1.052849,4.112941,0.35482800000000003,0.063583,-0.521347
788,7.88,-0.475616,0.348472,4.19652,0.256821,-0.096207,-0.478729
789,7.89,0.53369,-0.381502,4.588447,0.27919,-0.32629400000000003,-0.359421
790,7.9,2.29708,-0.6525890000000001,4.486429,0.436859,-0.417908,-0.25822399999999995
791,7.91,3.780076,-0.717851,3.7422730000000004,0.621155,-0.519119,-0.226273
792,7.92,4.3445800000000006,-0.694601,2.723172,0.726608,-0.6022029999999999,-0.207092
793,7.93,4.0553300000000005,-0.237202,1.383817,0.672287,-0.573441,-0.18898
794,7.94,2.532141,0.472051,-0.007598000000000105,0.456024,-0.45094300000000004,-0.154892
795,7.95,0.676725,0.783687,-0.796999,0.140717,-0.270905,-0.10375999999999999
796,7.96,-1.073707,0.589666,-0.834292,-0.19483900000000004,0.018844999999999997,-0.032394
797,7.97,-2.470202,0.34074099999999996,-0.336281,-0.469681,0.35228000000000004,0.057098
798,7.98,-3.4756669999999996,0.186831,0.31557399999999997,-0.648651,0.590897,0.161484
799,7.99,-3.833077,-0.20763200000000004,1.051584,-0.716827,0.6899569999999999,0.285065
800,8.0,-3.379436,-0.803392,1.6688779999999999,-0.681671,0.697418,0.415024
801,8.01,-2.226253,-1.434836,2.0166,-0.587921,0.636703,0.52475
802,8.02,-0.691055,-1.876077,1.8947889999999998,-0.46116599999999996,0.47477700000000006,0.600372
803,8.03,0.71105,-2.163514,1.5689309999999999,-0.322678,0.283035,0.646179
804,8.04,1.719817,-2.622461,1.141354,-0.193787,0.161591,0.674942
805,8.05,2.5524970000000002,-2.761367,0.6136,-0.08831800000000001,0.100876,0.688797
806,8.06,3.1871549999999997,-2.913911,0.22133899999999998,-0.029724,0.083832,0.653641
807,8.07,2.874778,-2.767066,-0.114091,-0.011627,0.09448200000000001,0.602509
808,8.08,2.32856,-2.817888,-0.400841,-0.020142,0.125366,0.554565
809,8.09,1.352531,-2.3677479999999997,-0.888275,-0.051041,0.191422,0.49491899999999994
810,8.1,0.775967,-2.012432,-1.064041,-0.078735,0.227631,0.45976300000000003
811,8.11,0.400933,-1.7480040000000001,-1.152693,-0.10429400000000001,0.25106799999999996,0.421417
812,8.12,0.15598599999999999,-1.639573,-1.173202,-0.12027,0.27876300000000004,0.386261
813,8.13,-0.07355199999999999,-1.684366,-1.160269,-0.12773099999999998,0.3022,0.35324099999999997
814,8.14,-0.205292,-1.845543,-1.0954620000000002,-0.13198900000000002,0.320312,0.318085
815,8.15,-0.040364999999999984,-2.093051,-1.039809,-0.12133800000000002,0.332031,0.282928
816,8.16,0.371108,-2.229582,-1.048443,-0.092575,0.346954,0.23393200000000003
817,8.17,0.649907,-1.9782990000000003,-1.2061389999999999,-0.065948,0.349075,0.173203
818,8.18,0.713588,-1.403124,-1.3786120000000002,-0.045715,0.346954,0.102905
819,8.19,0.777357,-0.627961,-1.523017,-0.014816,0.35121199999999997,0.034714
820,8.2,0.8538879999999999,0.05270099999999997,-1.597675,0.04377700000000001,0.360794,-0.029189999999999997
821,8.21,0.921615,0.43068,-1.551332,0.12153599999999999,0.357605,-0.07820099999999999
822,8.22,0.964517,0.41427600000000003,-1.426734,0.191849,0.338425,-0.09843400000000001
823,8.23,1.0245540000000002,0.122555,-1.262527,0.25044299999999997,0.308594,-0.083527
824,8.24,1.122233,-0.302566,-1.21445,0.273865,0.28089899999999995,-0.048369999999999996
825,8.25,1.14676,-0.465923,-1.108087,0.273865,0.301147,-0.029189999999999997
826,8.26,1.094206,-0.204036,-1.152677,0.27919,0.400208,-0.046234
827,8.27,0.8887290000000001,0.645468,-1.303064,0.282394,0.48436,-0.093109
828,8.28,1.196603,1.5810799999999998,-1.180195,0.267487,0.421509,-0.127197
829,8.29,1.9705110000000001,2.2432,-1.168347,0.25256300000000004,0.221252,-0.093109
830,8.3,2.478366,2.789565,-1.592291,0.253632,0.063583,-0.0004269999999999968
831,8.31,2.676159,3.174503,-2.1718669999999998,0.288788,0.015656,0.107162
832,8.32,2.4173720000000003,3.136794,-2.724513,0.35375999999999996,0.038025,0.167877
833,8.33,1.6340430000000001,3.4027239999999996,-2.85072,0.444321,0.082764,0.210495
834,8.34,0.478836,4.224406,-2.617182,0.53273,0.157333,0.263748
835,8.35,-0.244189,5.231039,-2.3574580000000003,0.533798,0.27771,0.315948
836,8.36,0.4055039999999999,5.06102,-1.410588,0.47734099999999996,0.253204,0.358566
837,8.37,1.775597,3.5249800000000002,0.6288859999999998,0.423004,0.03482099999999999,0.373474
838,8.38,3.175995,1.605232,2.8354060000000003,0.35482800000000003,-0.20059200000000002,0.362823
839,8.39,3.4790769999999998,0.622862,4.757854,0.197174,-0.33482399999999995,0.386261
840,8.4,2.5272240000000004,0.564766,5.537427,-0.08085600000000003,-0.25386,0.440582
841,8.41,0.6337400000000001,0.735761,5.374464,-0.252365,-0.084488,0.46295200000000003
842,8.42,-0.70293,0.308703,4.936783999999999,-0.091507,-0.073837,0.440582
843,8.43,-2.456995,-0.101667,3.926575,0.273865,-0.179291,0.420349
844,8.44,-3.871807,-0.12092,2.302618,0.5732119999999999,-0.264511,0.384125
845,8.45,-4.591747,0.23761300000000002,0.8372209999999999,0.627533,-0.332687,0.30636599999999997
846,8.46,-4.480576999999999,1.0333700000000001,-0.123792,0.44325299999999995,-0.339081,0.252029
847,8.47,-2.5167390000000003,1.7089349999999999,-0.24353699999999998,0.143906,-0.285812,0.22007800000000002
848,8.48,-0.12641799999999992,1.960551,0.33288900000000005,-0.118149,-0.211258,0.127396
849,8.49,1.482256,2.0423,0.9372590000000001,-0.282196,-0.208054,-0.01747099999999999
850,8.5,2.475302,1.016048,1.6600009999999998,-0.345047,-0.291153,-0.219879
851,8.51,2.510814,0.11009400000000004,1.7374619999999998,-0.294983,-0.32629400000000003,-0.350906
852,8.52,2.075973,-0.8157760000000001,1.5757459999999999,-0.22254899999999997,-0.364655,-0.44891400000000004
853,8.53,1.376995,-1.6451060000000002,1.327086,-0.175674,-0.42323299999999997,-0.49791
854,8.54,0.731379,-2.1925779999999997,1.032508,-0.170349,-0.467987,-0.512833
855,8.55,0.24798200000000006,-2.42141,0.732464,-0.193787,-0.51059,-0.534134
856,8.56,-0.368665,-2.54589,0.537303,-0.21934499999999998,-0.522308,-0.572479
857,8.57,-1.133589,-2.811446,0.46592,-0.236389,-0.5233760000000001,-0.579941
858,8.58,-1.657776,-2.991086,0.42199899999999996,-0.251297,-0.48715200000000003,-0.56929
859,8.59,-1.9497779999999998,-2.968456,0.380673,-0.271545,-0.457321,-0.5447850000000001
860,8.6,-2.0201759999999997,-2.8294080000000004,0.341144,-0.28433200000000003,-0.43815600000000005,-0.514954
861,8.61,-1.9390939999999999,-2.494855,0.326755,-0.28006,-0.42218,-0.47979700000000003
862,8.62,-1.9304560000000002,-2.1074349999999997,0.29143600000000003,-0.249176,-0.43495200000000006,-0.45423900000000006
863,8.63,-1.9849130000000001,-1.585431,0.165303,-0.195908,-0.46903999999999996,-0.424408
864,8.64,-1.912316,-1.2279959999999999,-0.008509000000000003,-0.135193,-0.49140900000000004,-0.38179
865,8.65,-1.627438,-1.1511790000000002,-0.23021399999999997,-0.08725,-0.49673500000000004,-0.321075
866,8.66,-1.28579,-1.422418,-0.432721,-0.051041,-0.48503100000000005,-0.255035
867,8.67,-1.209435,-2.077411,-0.556012,-0.02121,-0.43495200000000006,-0.193253
868,8.68,-1.1882840000000001,-2.726232,-0.791006,0.0022280000000000012,-0.348663,-0.132523
869,8.69,-1.060737,-2.960826,-1.262284,-0.009491,-0.22616599999999998,-0.066483
870,8.7,-0.965167,-2.359101,-1.488011,-0.044647000000000006,-0.198471,-0.045181
871,8.71,-0.834701,-1.525364,-1.533707,-0.069138,-0.23255900000000002,-0.030257999999999997
872,8.72,-0.753845,-0.69968,-1.450655,-0.05209400000000001,-0.291153,-0.014282
873,8.73,-0.534403,-0.081424,-1.1997360000000001,-0.002029000000000003,-0.34333800000000003,0.012343999999999999
874,8.74,-0.306542,0.183566,-0.8620959999999999,0.06189,-0.36891199999999996,0.044312
875,8.75,-0.129279,0.27722600000000003,-0.511185,0.11834700000000001,-0.371048,0.070938
876,8.76,0.079336,0.351748,-0.42842600000000003,0.16734300000000002,-0.396606,0.086914
877,8.77,0.282231,0.425073,-0.624304,0.203568,-0.501007,0.10609400000000001
878,8.78,0.31604299999999996,0.398624,-0.697314,0.233398,-0.622437,0.1306
879,8.79,-0.203328,0.43572,-0.611544,0.222733,-0.625641,0.13911400000000002
880,8.8,-1.079142,0.5622199999999999,-0.5361859999999999,0.164154,-0.48822,0.11460899999999999
881,8.81,-2.24742,0.9808309999999999,-0.770617,0.089584,-0.31352199999999997,0.045380000000000004
882,8.82,-3.189111,1.631443,-1.302343,0.065079,-0.185684,-0.064346
883,8.83,-3.5779650000000003,1.976246,-1.9146,0.139648,-0.134552,-0.143173
884,8.84,-2.648421,2.386278,-2.69861,0.263214,-0.128159,-0.193253
885,8.85,-0.789573,3.082461,-3.074182,0.329269,-0.20486500000000002,-0.248642
886,8.86,1.051284,4.348083,-2.735156,0.344177,-0.359329,-0.365814
887,8.87,1.860093,5.364973,-1.576224,0.361221,-0.5776979999999999,-0.463821
888,8.88,1.412153,5.007912999999999,0.47167600000000004,0.377197,-0.616058,-0.44145200000000007
889,8.89,0.347155,3.674485,2.711021,0.411285,-0.39021300000000003,-0.378601
890,8.9,-0.306635,2.94441,3.86794,0.46348599999999995,-0.179291,-0.42227200000000004
891,8.91,-0.889618,2.338202,4.555272,0.449646,-0.054657000000000004,-0.536255
892,8.92,-0.6402760000000001,1.562198,4.855906,0.394241,-0.08342000000000001,-0.61615
893,8.93,-0.154557,0.583391,4.688067,0.348434,-0.264511,-0.614029
894,8.94,0.694261,-0.30395900000000003,4.202526,0.402771,-0.261322,-0.5447850000000001
895,8.95,2.141035,-0.286956,3.0468610000000003,0.534866,-0.147339,-0.474472
896,8.96,3.197457,0.159607,1.7421520000000001,0.5700069999999999,-0.126038,-0.402039
897,8.97,3.6870910000000006,0.740621,0.750494,0.43153400000000003,-0.12176500000000001,-0.286987
898,8.98,3.350949,1.234212,0.071598,0.15776099999999998,-0.06211900000000001,-0.18365499999999998
899,8.99,1.4886030000000001,1.468658,0.020044,-0.138382,-0.004593,-0.097366
900,9.0,-0.450354,1.342231,0.23331,-0.362091,0.127502,0.010222999999999996
901,9.01,-2.063616,1.022856,0.43674799999999997,-0.5112300000000001,0.34268200000000004,0.147644
902,9.02,-3.085905,0.693653,0.58212,-0.622009,0.54509,0.296783
903,9.03,-3.4267589999999997,0.07731300000000002,0.8606879999999999,-0.697647,0.660141,0.43313599999999997
904,9.04,-3.1837419999999996,-0.767309,1.183737,-0.710434,0.691025,0.562027
905,9.05,-2.1533290000000003,-1.538575,1.364156,-0.6752779999999999,0.687836,0.6611020000000001
906,9.06,-0.8830929999999999,-2.332596,1.340739,-0.635864,0.647354,0.726074
907,9.07,0.475436,-2.9742599999999997,1.127489,-0.600708,0.558929,0.749512
908,9.08,1.592773,-3.386146,0.8350700000000001,-0.55278,0.460938,0.7303310000000001
909,9.09,2.4009139999999998,-3.609643,0.508706,-0.49418599999999996,0.394882,0.689865
910,9.1,2.906701,-3.714721,0.200949,-0.45051599999999997,0.378906,0.628067
911,9.11,2.823775,-3.462625,-0.07993,-0.41748,0.37464899999999995,0.495987
912,9.12,2.403937,-3.126356,-0.119973,-0.41429099999999996,0.365051,0.43525699999999995
913,9.13,1.622998,-2.539022,-0.211802,-0.395111,0.320312,0.369217
914,9.14,0.980598,-1.8856849999999998,-0.28733400000000003,-0.380203,0.290482,0.341522
915,9.15,0.644814,-1.410733,-0.306842,-0.347183,0.285156,0.313828
916,9.16,0.543046,-1.120249,-0.424737,-0.291779,0.287292,0.265884
917,9.17,0.543875,-0.8611139999999999,-0.524465,-0.21934499999999998,0.295822,0.214752
918,9.18,0.784126,-0.864606,-0.688129,-0.144775,0.276642,0.15403699999999998
919,9.19,1.106162,-0.977058,-0.8501190000000001,-0.07234199999999999,0.22018400000000002,0.103958
920,9.2,2.045676,-1.254453,-1.199455,0.058685,0.05506900000000001,-0.021744
921,9.21,1.929213,-0.9530569999999999,-1.384444,0.07254,0.023102,-0.10482799999999999
922,9.22,1.4803389999999998,-0.532247,-1.562324,0.069336,0.026306,-0.181534
923,9.23,1.052946,-0.11039600000000001,-1.657339,0.066147,0.061462,-0.235855
924,9.24,0.790842,0.192592,-1.606542,0.08638,0.10939000000000002,-0.257156
925,9.25,0.629191,0.284017,-1.4797799999999999,0.113022,0.136032,-0.248642
926,9.26,0.578505,0.206931,-1.3399510000000001,0.120468,0.130692,-0.214554
927,9.27,0.622218,0.02217100000000001,-1.119761,0.087448,0.14668299999999998,-0.178329
928,9.28,0.585095,0.032728999999999994,-1.054537,0.045898,0.20846599999999998,-0.17514000000000002
929,9.29,0.629941,0.253531,-1.169042,0.025664999999999997,0.286224,-0.199631
930,9.3,0.695051,0.8219429999999999,-1.280653,0.029922000000000004,0.365051,-0.23266599999999998
931,9.31,0.8040390000000001,1.5489629999999999,-1.291898,0.025664999999999997,0.397018,-0.25822399999999995
932,9.32,1.152339,2.2000290000000002,-1.2299579999999999,0.019272,0.313919,-0.256104
933,9.33,1.808657,2.461989,-1.12399,0.051224,0.181824,-0.20815999999999998
934,9.34,2.3056740000000002,2.716466,-1.43084,0.155624,0.100876,-0.137848
935,9.35,2.294022,2.8589919999999998,-2.1020689999999997,0.303696,0.073181,-0.05583200000000001
936,9.36,1.986891,3.137934,-2.61545,0.412354,0.058258000000000004,0.021942000000000003
937,9.37,1.335789,3.663464,-2.551902,0.47840900000000003,0.040146,0.10076900000000001
938,9.38,1.031299,4.349618,-2.00107,0.475204,0.023102,0.19664
939,9.39,1.786593,4.364579,-0.9797319999999999,0.376129,-0.004593,0.283997
940,9.4,2.7582259999999996,3.1625490000000003,0.777996,0.25149499999999997,-0.10153200000000001,0.305298
941,9.41,3.426049,1.3642530000000002,2.6236669999999997,0.18012999999999998,-0.25386,0.28186
942,9.42,3.4932019999999997,-0.405058,4.525743,0.12260399999999999,-0.38382,0.265884
943,9.43,2.6756279999999997,-1.202812,5.845761,-0.008423,-0.44560200000000005,0.30423
944,9.44,1.202175,-1.024886,5.708116,-0.166077,-0.421112,0.369217
945,9.45,-0.11521899999999995,-0.7350300000000001,4.693792,-0.183121,-0.365707,0.396912
946,9.46,-1.2585790000000001,-0.764994,3.555225,-0.027602999999999992,-0.399796,0.385193
947,9.47,-2.728845,-0.688533,2.400856,0.174805,-0.427505,0.373474
948,9.48,-3.910671,-0.338773,1.204006,0.309021,-0.441345,0.318085
949,9.49,-3.743178,0.47758199999999995,0.599258,0.216354,-0.506332,0.292511
950,9.5,-2.192946,1.17115,0.252486,0.028854000000000005,-0.5702510000000001,0.286118
951,9.51,0.1177490000000001,1.523937,0.18501900000000002,-0.17886399999999994,-0.638428,0.24031100000000002
952,9.52,2.004759,1.524515,0.382395,-0.380203,-0.767319,0.150833
953,9.53,3.4362190000000004,1.201283,0.85788,-0.541061,-0.9388280000000001,0.03685
954,9.54,4.33695,0.793103,1.402194,-0.604965,-1.061325,-0.085648
955,9.55,4.457106,0.134372,1.804935,-0.5740810000000001,-1.1231229999999999,-0.21562199999999998
956,9.56,3.7465089999999996,-0.577017,1.8122040000000001,-0.49311800000000006,-1.145493,-0.326401
957,9.57,2.597146,-1.241459,1.6771220000000002,-0.40470900000000004,-1.16893,-0.40522800000000003
958,9.58,0.918761,-1.962593,1.0711870000000001,-0.286453,-1.223251,-0.48832700000000007
959,9.59,0.03845799999999994,-2.2210330000000003,0.574274,-0.2332,-1.221115,-0.5352020000000001
960,9.6,-0.746534,-2.404112,0.14755700000000002,-0.216156,-1.2094120000000002,-0.577805
961,9.61,-1.271796,-2.606868,-0.17696800000000001,-0.232132,-1.204071,-0.603378
962,9.62,-1.5170190000000001,-2.648028,-0.450712,-0.260895,-1.212601,-0.609772
963,9.63,-1.6637490000000001,-2.462179,-0.530235,-0.306702,-1.228577,-0.603378
964,9.64,-1.654133,-2.313901,-0.5285340000000001,-0.348236,-1.2435,-0.568222
965,9.65,-1.675044,-2.004727,-0.502384,-0.381271,-1.2456209999999999,-0.510696
966,9.66,-1.603437,-1.8103669999999998,-0.44686899999999996,-0.401505,-1.2349700000000001,-0.42333999999999994
967,9.67,-1.426176,-1.813737,-0.5130939999999999,-0.39724699999999996,-1.195557,-0.327469
968,9.68,-1.327174,-1.9457790000000001,-0.644788,-0.37487800000000004,-1.138031,-0.236923
969,9.69,-1.472594,-2.017478,-0.7807529999999999,-0.32800300000000004,-1.0687870000000002,-0.167679
970,9.7,-1.632622,-1.93298,-1.069612,-0.271545,-0.993149,-0.101639
971,9.71,-1.70597,-1.6683270000000001,-1.29473,-0.20443699999999998,-0.932434,-0.062225
972,9.72,-1.6590470000000002,-1.0931549999999999,-1.519382,-0.13731400000000002,-0.881302,-0.034515
973,9.73,-1.526225,-0.2884109999999999,-1.688252,-0.07341,-0.817383,-0.017471
974,9.74,-1.1926510000000001,0.29184699999999997,-1.835816,-0.02121,-0.757736,-0.018539
975,9.75,-0.747041,0.5323,-1.736376,0.036316,-0.701279,-0.039841
976,9.76,-0.426357,0.534775,-1.540707,0.101303,-0.652267,-0.094177
977,9.77,-0.094266,0.310019,-1.195332,0.164154,-0.630966,-0.153824
978,9.78,0.35378699999999996,0.131233,-0.9266409999999999,0.203568,-0.636292,-0.18365499999999998
979,9.79,0.7385149999999999,0.124383,-0.8680530000000001,0.208893,-0.6948850000000001,-0.196442
980,9.8,0.81074,0.190462,-0.5764560000000001,0.20463599999999998,-0.775848,-0.177261
981,9.81,0.584073,0.288823,-0.239393,0.183319,-0.76413,-0.120804
982,9.82,-0.154748,0.5167039999999999,-0.09439,0.126862,-0.6490779999999999,-0.073929
983,9.83,-1.18134,1.1749370000000001,-0.414295,0.056563999999999996,-0.516983,-0.07180800000000001
984,9.84,-1.895505,2.1320040000000002,-1.0800610000000002,0.017136000000000002,-0.446671,-0.14212
985,9.85,-2.317169,2.822045,-1.564556,0.054428,-0.44773900000000005,-0.23053
986,9.86,-2.216873,3.229421,-1.870569,0.175873,-0.490356,-0.308289
987,9.87,-1.441798,3.307935,-1.8558419999999998,0.326065,-0.5670470000000001,-0.332794
988,9.88,0.13181800000000002,3.397783,-1.854293,0.46241800000000005,-0.711929,-0.31149299999999996
989,9.89,1.823881,3.973383,-1.441134,0.576401,-0.961197,-0.293381
990,9.9,2.8153200000000003,4.218585,-0.096603,0.625412,-1.126312,-0.304031
991,9.91,1.86484,3.131324,2.123591,0.625412,-1.0687870000000002,-0.276337
992,9.92,0.704537,1.704466,3.3457190000000003,0.6637569999999999,-0.786499,-0.262482
993,9.93,-0.007668000000000008,0.935998,3.60247,0.694656,-0.675705,-0.33705100000000005
994,9.94,0.04527500000000001,0.11328700000000005,4.0185949999999995,0.648849,-0.663986,-0.398834
995,9.95,1.033591,-0.607267,4.285373,0.529541,-0.6394810000000001,-0.461685
996,9.96,1.5697729999999999,-1.102343,4.049143,0.399567,-0.676773,-0.538391
997,9.97,2.10567,-1.006679,3.255919,0.385727,-0.635223,-0.568222
998,9.98,2.730155,-0.303257,2.001429,0.41874700000000004,-0.552139,-0.52774
999,9.99,3.083582,0.783525,0.8075680000000001,0.333527,-0.503128,-0.453171
1000,10.0,2.8804819999999998,1.765397,0.17163699999999998,0.108749,-0.480759,-0.35836799999999996
1001,10.01,1.810115,2.226841,0.227733,-0.13945,-0.47010799999999997,-0.233719
1002,10.02,0.2696740000000001,2.1100939999999997,0.566483,-0.324814,-0.418976,-0.07074
1003,10.03,-1.1830370000000001,1.676727,0.9547120000000001,-0.435593,-0.30925,0.12953199999999998
1004,10.04,-2.257937,1.423565,1.13255,-0.497375,-0.17717,0.341522
1005,10.05,-2.6004869999999998,0.7155,1.281811,-0.532532,-0.069565,0.52475
1006,10.06,-2.4797569999999998,-0.344587,1.356219,-0.508026,-0.020569,0.650436
1007,10.07,-1.8187400000000002,-1.3467049999999998,1.2861790000000002,-0.445175,0.007126,0.747375
1008,10.08,-0.6409980000000001,-2.211923,1.113826,-0.375946,0.02417,0.801712
1009,10.09,0.4992530000000001,-3.0186599999999997,0.966018,-0.30989099999999997,0.005004999999999999,0.817688
1010,10.1,1.450815,-3.750801,0.6218229999999999,-0.242783,-0.028030000000000003,0.7878569999999999
1011,10.11,2.15212,-4.17566,0.264986,-0.193787,-0.054657000000000004,0.721817
1012,10.12,2.489574,-4.319738,-0.213821,-0.165024,-0.08128400000000001,0.647247
1013,10.13,2.729245,-4.124807,-0.6593859999999999,-0.17247,-0.11644000000000002,0.5673520000000001
1014,10.14,2.355648,-3.305289,-1.029801,-0.22148099999999998,-0.120697,0.498108
1015,10.15,1.9593479999999999,-2.613586,-1.052997,-0.279007,-0.139877,0.439514
1016,10.16,1.467535,-1.7680900000000002,-0.9162520000000001,-0.317352,-0.139877,0.387329
1017,10.17,1.087971,-1.141449,-0.739604,-0.33226,-0.11218299999999999,0.350037
1018,10.18,0.86372,-0.662554,-0.48071800000000003,-0.298172,-0.065308,0.317017
1019,10.19,0.659482,-0.346831,-0.398962,-0.217209,-0.015244,0.27121
1020,10.2,0.774077,-0.294873,-0.346815,-0.11389200000000001,0.022049000000000003,0.22966
1021,10.21,0.8546739999999999,-0.568365,-0.306268,-0.0073549999999999996,0.02417,0.183853
1022,10.22,1.044442,-1.146045,-0.35497199999999995,0.083191,-0.016312,0.13911400000000002
1023,10.23,1.223518,-1.7116810000000002,-0.731722,0.143906,-0.079163,0.10609400000000001
1024,10.24,1.3668120000000001,-1.983254,-1.154043,0.16308599999999998,-0.132416,0.067749
1025,10.25,1.377534,-1.7273169999999998,-1.628662,0.152435,-0.145203,0.017669999999999998
1026,10.26,1.183131,-0.996659,-1.944184,0.120468,-0.111115,-0.036652
1027,10.27,0.884237,-0.287758,-2.066846,0.083191,-0.048264,-0.08139
1028,10.28,0.553705,0.261573,-1.9291189999999998,0.044846,0.011382999999999999,-0.105896
1029,10.29,0.43314300000000006,0.494674,-1.612671,0.024597,0.061462,-0.110153
1030,10.3,0.480666,0.52712,-1.24466,0.006485000000000001,0.121109,-0.09524500000000001
1031,10.31,0.6379670000000001,0.569148,-0.9203120000000001,-0.003098,0.177567,-0.084595
1032,10.32,0.8728370000000001,0.781311,-0.8941020000000001,0.023528999999999998,0.24041700000000002,-0.093109
1033,10.33,1.2211610000000002,1.250405,-1.0247190000000002,0.07786599999999999,0.308594,-0.11335799999999999
1034,10.34,1.357948,1.9530330000000002,-1.361577,0.134323,0.367188,-0.12294000000000001
1035,10.35,1.46014,2.844516,-1.6788029999999998,0.175873,0.377838,-0.09843400000000001
1036,10.36,1.997152,3.0946540000000002,-1.762261,0.19931,0.26811199999999996,-0.039841
1037,10.37,2.56299,2.823028,-1.8368630000000001,0.22380100000000003,0.095551,0.050705
1038,10.38,2.901332,2.339824,-1.922977,0.258957,-0.029099,0.143372
1039,10.39,2.861169,2.3052479999999997,-2.113799,0.32074,-0.093002,0.226471
1040,10.4,2.4822330000000004,2.847244,-2.0868,0.387848,-0.126038,0.292511
1041,10.41,1.9028169999999998,3.552059,-1.609953,0.393173,-0.111115,0.344711
1042,10.42,1.449978,4.0217339999999995,-0.642795,0.31967199999999996,-0.06211900000000001,0.378799
1043,10.43,1.449432,3.650946,0.8444929999999999,0.224869,-0.10153200000000001,0.403305
1044,10.44,1.927139,2.3027580000000003,2.7735939999999997,0.177994,-0.22403,0.449112
1045,10.45,2.536296,0.3849739999999999,4.8036970000000005,0.183319,-0.344406,0.48426800000000003
1046,10.46,2.290028,-0.8605860000000001,5.954928,0.174805,-0.446671,0.509827
1047,10.47,1.3826459999999998,-0.9838049999999999,5.712389,0.111954,-0.51059,0.5311279999999999
1048,10.48,-0.09009999999999996,-0.318796,4.799943,0.07786599999999999,-0.509521,0.515152
1049,10.49,-1.241396,-0.044317,3.881279,0.173737,-0.534027,0.46827700000000005
1050,10.5,-2.125651,0.013081000000000002,2.998595,0.349503,-0.610733,0.428864
1051,10.51,-2.8270470000000003,0.27858399999999994,2.0464919999999998,0.482666,-0.617111,0.369217
1052,10.52,-3.164345,0.7510859999999999,1.1648020000000001,0.495453,-0.589417,0.283997
1053,10.53,-2.886173,1.345366,0.572091,0.395309,-0.556396,0.22433499999999998
1054,10.54,-1.6510529999999999,1.662854,0.312444,0.25256300000000004,-0.530838,0.161484
1055,10.55,-0.14381999999999995,1.732025,0.29953,0.088516,-0.507401,0.084793
1056,10.56,1.045059,1.530565,0.524893,-0.06275900000000001,-0.5212399999999999,-0.004700000000000003
1057,10.57,1.8491849999999999,1.1571639999999999,0.7804760000000001,-0.150101,-0.587296,-0.118683
1058,10.58,2.136128,0.47339899999999996,1.1137110000000001,-0.177795,-0.655472,-0.233719
1059,10.59,1.95125,-0.325945,1.323685,-0.17460599999999998,-0.6895600000000001,-0.32000700000000004
1060,10.6,1.619777,-1.086547,1.491938,-0.16181900000000002,-0.712997,-0.377533
1061,10.61,1.084624,-1.60838,1.422775,-0.169281,-0.726837,-0.425476
1062,10.62,0.528729,-1.9133209999999998,1.235701,-0.177795,-0.7524109999999999,-0.44891400000000004
1063,10.63,0.064502,-2.122992,0.972564,-0.18100000000000002,-0.775848,-0.452103
1064,10.64,-0.313604,-2.294845,0.7739510000000001,-0.171402,-0.8078,-0.461685
1065,10.65,-0.651886,-2.513829,0.51548,-0.16714500000000002,-0.855743,-0.473404
1066,10.66,-0.9347059999999999,-2.621641,0.355001,-0.192719,-0.911133,-0.47767600000000005
1067,10.67,-1.123874,-2.5498279999999998,0.303082,-0.236389,-0.95694,-0.472351
1068,10.68,-1.277324,-2.426038,0.42863199999999996,-0.277939,-0.979309,-0.451035
1069,10.69,-1.382148,-2.1975759999999998,0.44452600000000003,-0.30137600000000003,-0.984634,-0.413757
1070,10.7,-1.5419479999999999,-1.895834,0.44449799999999995,-0.30777,-0.9814299999999999,-0.359421
1071,10.71,-1.7113770000000001,-1.712623,0.357503,-0.297104,-0.9643860000000001,-0.288055
1072,10.72,-1.7832029999999999,-1.6637990000000002,0.22156900000000002,-0.26301599999999997,-0.926041,-0.207092
1073,10.73,-1.801335,-1.7018790000000001,-0.029472999999999982,-0.217209,-0.8567959999999999,-0.131454
1074,10.74,-1.8417860000000001,-1.842805,-0.267847,-0.169281,-0.760925,-0.062225
1075,10.75,-2.0193119999999998,-1.9287349999999999,-0.49516099999999996,-0.119217,-0.6426850000000001,-0.012145999999999999
1076,10.76,-2.307684,-1.837932,-0.777161,-0.060623,-0.5201720000000001,0.028336
1077,10.77,-2.5362139999999997,-1.49029,-1.037588,-0.006287000000000001,-0.41471899999999995,0.062424
1078,10.78,-2.4183169999999996,-0.9670700000000001,-1.217719,0.037384,-0.333755,0.10609400000000001
1079,10.79,-1.9371470000000002,-0.53288,-1.400404,0.066147,-0.290085,0.13911400000000002
1080,10.8,-1.316843,-0.33445199999999997,-1.398834,0.087448,-0.280487,0.145508
1081,10.81,-0.753019,-0.23383099999999998,-1.236743,0.11088599999999998,-0.28476,0.127396
1082,10.82,-0.321733,-0.138844,-1.105206,0.13858,-0.274109,0.09011799999999999
1083,10.83,-0.118664,-0.07158099999999999,-0.94706,0.154556,-0.25811799999999996,0.057098
1084,10.84,0.044289,0.012804000000000005,-0.9130360000000001,0.14816300000000002,-0.26664699999999997,0.037918
1085,10.85,0.155838,0.161519,-1.035074,0.140717,-0.335892,0.043243000000000004
1086,10.86,0.18672,0.37266,-1.102603,0.134323,-0.43708800000000003,0.074142
1087,10.87,-0.09203099999999996,0.637088,-1.059922,0.11834700000000001,-0.490356,0.099701
1088,10.88,-0.812893,0.845268,-0.983296,0.083191,-0.451996,0.107162
1089,10.89,-1.691253,1.011548,-0.9508129999999999,0.050171,-0.338013,0.08265700000000001
1090,10.9,-2.434154,1.2321280000000001,-1.1370559999999998,0.036316,-0.186752,0.027267000000000003
1091,10.91,-3.119338,1.4221190000000001,-1.626055,0.057616999999999995,-0.085556,-0.033463
1092,10.92,-3.313497,1.452226,-2.111571,0.123672,-0.066376,-0.061157
1093,10.93,-2.640768,1.594433,-2.4550919999999996,0.208893,-0.082352,-0.064346
1094,10.94,-1.089537,2.2253130000000003,-2.820609,0.260025,-0.15373199999999998,-0.092041
1095,10.95,0.574839,3.419103,-2.631711,0.274933,-0.30925,-0.177261
1096,10.96,1.358178,4.497371,-1.582187,0.289856,-0.454132,-0.26461799999999996
1097,10.97,1.196418,4.584969999999999,0.33624499999999996,0.31967199999999996,-0.475433,-0.267807
1098,10.98,0.476579,3.596797,2.316878,0.348434,-0.22190900000000002,-0.26568600000000003
1099,10.99,-0.38456399999999996,2.448569,3.259134,0.394241,0.046539,-0.308289
1100,11.0,-1.3901350000000001,1.558499,3.5803059999999998,0.40063499999999996,0.22551,-0.39245599999999997
1101,11.01,-1.816037,0.9137540000000001,3.897363,0.350571,0.360794,-0.468079
1102,11.02,-1.092806,0.451323,3.694782,0.267487,0.35121199999999997,-0.5117649999999999
1103,11.03,-0.537848,-0.04945299999999997,3.7147360000000003,0.231262,0.22230500000000003,-0.47767600000000005
1104,11.04,0.53308,-0.25800300000000004,3.7601620000000002,0.304764,0.144547,-0.382858
1105,11.05,1.9281099999999998,-0.155777,3.074908,0.395309,0.082764,-0.29870599999999997
1106,11.06,2.967458,-0.094614,2.1849790000000002,0.413422,-0.024826000000000008,-0.24118
1107,11.07,3.373736,0.13053500000000004,1.383667,0.356964,-0.095139,-0.18898
1108,11.08,2.8272459999999997,0.501921,0.788134,0.25256300000000004,-0.09088099999999999,-0.13359100000000002
1109,11.09,0.755742,0.827059,0.325059,0.073608,0.064651,0.0038299999999999996
1110,11.1,-0.5802609999999999,0.581529,0.24563400000000002,-0.04997299999999999,0.25853000000000004,0.136993
1111,11.11,-1.728849,0.292421,0.24478200000000003,-0.177795,0.492889,0.249908
1112,11.12,-2.591175,-0.07694599999999999,0.402071,-0.282196,0.666519,0.343643
1113,11.13,-3.012686,-0.5771189999999999,0.685397,-0.324814,0.754944,0.417145
1114,11.14,-2.736349,-1.213969,1.017755,-0.33972199999999997,0.787964,0.498108
1115,11.15,-1.722102,-1.8242770000000001,1.205175,-0.341858,0.786896,0.562027
1116,11.16,-0.741803,-2.161884,1.118918,-0.329071,0.779449,0.5897220000000001
1117,11.17,0.15434099999999995,-2.345079,0.92555,-0.29072600000000004,0.756012,0.5907899999999999
1118,11.18,1.013881,-2.456569,0.696642,-0.239594,0.74855,0.574814
1119,11.19,1.45813,-2.20037,0.43925600000000004,-0.20762600000000003,0.7730560000000001,0.548172
1120,11.2,1.682105,-2.092592,0.373996,-0.196976,0.799683,0.514084
1121,11.21,1.361724,-1.8917259999999998,0.178826,-0.200165,0.811401,0.486389
1122,11.22,1.167255,-1.7927220000000001,0.110824,-0.215088,0.807144,0.466156
1123,11.23,0.915326,-1.7739599999999998,0.113295,-0.240646,0.811401,0.43739300000000003
1124,11.24,0.838576,-1.6095059999999999,0.07536,-0.253433,0.8167270000000001,0.39798
1125,11.25,0.8610059999999999,-1.3881569999999999,0.095598,-0.240646,0.807144,0.344711
1126,11.26,0.9931760000000001,-1.1261430000000001,0.0038559999999999983,-0.20762600000000003,0.798615,0.288254
1127,11.27,1.099699,-0.881049,-0.182869,-0.171402,0.776245,0.23072800000000002
1128,11.28,1.227227,-0.809361,-0.399677,-0.145844,0.731506,0.187057
1129,11.29,1.3128549999999999,-0.902847,-0.676671,-0.130936,0.675049,0.15403699999999998
1130,11.3,1.429818,-1.067888,-0.8920549999999999,-0.12454200000000001,0.59729,0.12953199999999998
1131,11.31,1.529368,-1.1435309999999999,-1.055321,-0.114944,0.520584,0.11355599999999999
1132,11.32,1.43677,-0.979483,-1.239511,-0.10429400000000001,0.452408,0.093307
1133,11.33,1.2045709999999998,-0.762849,-1.325356,-0.094711,0.390625,0.06987
1134,11.34,0.8676870000000001,-0.573213,-1.4084379999999999,-0.079803,0.355469,0.043243000000000004
1135,11.35,0.516955,-0.409269,-1.3159129999999999,-0.054229999999999993,0.34375,0.015549
1136,11.36,0.29589899999999997,-0.206462,-1.3165719999999999,-0.01268,0.34375,-0.012145999999999999
1137,11.37,0.170479,-0.087809,-1.270418,0.038452,0.334167,-0.027069
1138,11.38,0.21253699999999998,-0.102056,-1.140719,0.067215,0.321381,-0.036652
1139,11.39,0.242083,-0.1951,-1.047716,0.067215,0.323517,-0.045181
1140,11.4,0.380345,-0.092149,-1.02405,0.051224,0.386368,-0.069672
1141,11.41,0.557244,0.17923599999999998,-1.2000950000000001,0.042709,0.468384,-0.11761500000000001
1142,11.42,0.5771350000000001,0.5684779999999999,-1.332393,0.03418,0.5163270000000001,-0.157028
1143,11.43,0.6028899999999999,1.0670389999999998,-1.352269,0.001160000000000001,0.521652,-0.17514000000000002
1144,11.44,0.8873049999999999,1.54037,-1.229542,-0.048904,0.471588,-0.150635
1145,11.45,1.2858020000000001,1.9386970000000001,-1.224934,-0.078735,0.394882,-0.092041
1146,11.46,1.665914,2.0845700000000003,-1.51118,-0.039322,0.332031,-0.013213999999999995
1147,11.47,1.806082,2.122808,-1.883444,0.07572899999999999,0.285156,0.048569
1148,11.48,1.373824,2.171246,-2.3488759999999997,0.203568,0.25106799999999996,0.092239
1149,11.49,0.833224,2.275826,-2.547949,0.294113,0.232971,0.12953199999999998
1150,11.5,0.277967,2.575504,-2.234905,0.363358,0.22869899999999999,0.145508
1151,11.51,-0.250421,3.192754,-1.488322,0.40170300000000003,0.286224,0.160416
1152,11.52,-0.211058,3.517179,-0.24364699999999995,0.369751,0.397018,0.213684
1153,11.53,0.20868299999999998,2.8839900000000003,1.827795,0.26535,0.42896999999999996,0.282928
1154,11.54,0.709033,1.38166,4.164733,0.220612,0.373581,0.319153
1155,11.55,0.6538689999999999,0.11854900000000003,5.567307,0.253632,0.35228000000000004,0.351105
1156,11.56,-0.15324000000000002,-0.429519,5.733698,0.271744,0.32777399999999995,0.429932
1157,11.57,-0.721106,-0.485388,4.9470849999999995,0.255768,0.309662,0.517288
1158,11.58,-1.346946,-0.561185,3.861363,0.282394,0.28089899999999995,0.553497
1159,11.59,-2.276135,-0.5999899999999999,2.723604,0.374008,0.292618,0.566284
1160,11.6,-2.9265630000000002,-0.5268149999999999,1.8389830000000003,0.48053,0.30540500000000004,0.5343319999999999
1161,11.61,-3.3697160000000004,-0.11971200000000005,0.978775,0.523148,0.300079,0.451233
1162,11.62,-3.400518,0.760239,0.15575799999999998,0.45283500000000004,0.285156,0.370285
1163,11.63,-2.254195,1.6995470000000001,-0.368551,0.285583,0.307526,0.295715
1164,11.64,-0.5874659999999999,2.171086,-0.32263400000000003,0.073608,0.29794299999999996,0.20835900000000002
1165,11.65,1.141416,2.021255,0.042324,-0.146912,0.23722800000000002,0.086914
1166,11.66,2.46827,1.452248,0.41569700000000004,-0.361023,0.12324500000000001,-0.049438
1167,11.67,3.297688,0.8621059999999999,0.7848189999999999,-0.510162,0.045471,-0.200699
1168,11.68,3.5743660000000004,0.351715,1.065266,-0.5836640000000001,0.02417,-0.35836799999999996
1169,11.69,3.039463,-0.21941599999999997,1.223034,-0.5943149999999999,-0.015244,-0.510696
1170,11.7,1.7619479999999998,-0.88955,1.2258799999999999,-0.571945,-0.07489,-0.600174
1171,11.71,0.507283,-1.313874,1.173433,-0.528275,-0.10578900000000001,-0.621475
1172,11.72,-0.546925,-1.6897509999999998,1.079918,-0.482468,-0.114319,-0.61615
1173,11.73,-1.38876,-1.8910779999999998,0.82473,-0.42068500000000003,-0.120697,-0.603378
1174,11.74,-2.264802,-2.2217029999999998,0.508905,-0.363159,-0.110046,-0.567154
1175,11.75,-2.6610259999999997,-2.335299,0.1963,-0.324814,-0.099396,-0.509628
1176,11.76,-2.624469,-2.348007,-0.077265,-0.308823,-0.091934,-0.45956400000000003
1177,11.77,-2.458012,-2.3038849999999997,-0.330513,-0.306702,-0.098328,-0.432938
1178,11.78,-2.297029,-2.09937,-0.468142,-0.30456500000000003,-0.114319,-0.420151
1179,11.79,-2.133013,-1.8854790000000001,-0.607635,-0.30456500000000003,-0.12496900000000001,-0.399902
1180,11.8,-1.918684,-1.8298759999999998,-0.6285109999999999,-0.30137600000000003,-0.12709,-0.355164
1181,11.81,-1.6373309999999999,-1.847198,-0.6009979999999999,-0.279007,-0.122833,-0.284851
1182,11.82,-1.3828479999999999,-1.7652259999999997,-0.5397,-0.24597199999999997,-0.106857,-0.196442
1183,11.83,-1.249918,-1.541876,-0.554838,-0.20550500000000002,-0.09088099999999999,-0.119736
1184,11.84,-1.251942,-1.257642,-0.597353,-0.143707,-0.086609,-0.053696
1185,11.85,-1.236672,-0.951731,-0.699908,-0.06488,-0.086609,-0.0014949999999999998
1186,11.86,-1.215871,-0.6671819999999999,-0.843743,0.019272,-0.084488,0.042175
1187,11.87,-1.193622,-0.5014390000000001,-0.960946,0.101303,-0.073837,0.073074
1188,11.88,-1.195338,-0.530121,-1.042073,0.16734300000000002,-0.049332,0.096512
1189,11.89,-1.189398,-0.6774859999999999,-1.114874,0.21315,-0.028030000000000003,0.097565
1190,11.9,-1.1982540000000002,-0.7204510000000001,-1.2311370000000001,0.23445100000000002,-0.025894,0.085846
1191,11.91,-1.281484,-0.652796,-1.392978,0.239777,-0.066376,0.073074
1192,11.92,-1.277234,-0.46821899999999994,-1.625082,0.222733,-0.12176500000000001,0.06987
1193,11.93,-1.3016219999999998,-0.190966,-1.7766669999999998,0.173737,-0.16864,0.072006
1194,11.94,-1.41493,0.050432999999999985,-1.907282,0.09491000000000001,-0.180359,0.095444
1195,11.95,-1.522725,0.339702,-1.90169,-0.002029000000000003,-0.170776,0.13911400000000002
1196,11.96,-1.448151,0.74431,-1.738995,-0.07234199999999999,-0.132416,0.188126
1197,11.97,-1.7317470000000001,1.266988,-1.387386,-0.10429400000000001,-0.006713999999999998,0.20729099999999998
1198,11.98,-2.214893,1.7899479999999999,-1.1836280000000001,-0.110687,0.20314000000000002,0.174271
1199,11.99,-2.685844,2.077681,-1.097367,-0.079803,0.377838,0.10609400000000001
1200,12.0,-2.960705,2.161797,-1.07179,0.0022280000000000012,0.468384,0.032593000000000004
1201,12.01,-2.852966,2.388909,-1.208272,0.13006600000000001,0.513123,-0.03772
1202,12.02,-1.961314,3.0763529999999997,-1.632628,0.24616999999999997,0.46412700000000007,-0.13677999999999998
1203,12.03,-0.921512,3.819342,-1.6711740000000002,0.33139,0.31605500000000003,-0.267807
1204,12.04,-0.20484499999999997,3.795438,-0.7857270000000001,0.40596,0.161591,-0.354095
1205,12.05,0.269512,3.0184189999999997,1.06582,0.420883,0.085953,-0.384995
1206,12.06,0.330698,2.0254849999999998,3.0750830000000002,0.38147,0.154129,-0.402039
1207,12.07,0.09200499999999999,1.189173,4.4344790000000005,0.365479,0.246811,-0.46275299999999997
1208,12.08,0.278906,0.541279,5.1664010000000005,0.40916399999999997,0.307526,-0.55011
1209,12.09,0.8380790000000001,-0.19725100000000004,4.8730970000000005,0.46136499999999997,0.397018,-0.627869
1210,12.1,1.123683,-0.79388,3.720932,0.457092,0.492889,-0.7099
1211,12.11,1.0242950000000002,-1.081491,2.6492970000000002,0.415558,0.582367,-0.723755
1212,12.12,1.061384,-0.5691869999999999,1.7326099999999998,0.376129,0.678238,-0.665161
1213,12.13,1.235475,0.275948,1.173016,0.289856,0.683563,-0.586334
1214,12.14,1.195497,0.987188,1.02873,0.117279,0.616455,-0.48300200000000004
1215,12.15,0.794534,1.576322,1.1553360000000001,-0.08725,0.526978,-0.37114
1216,12.16,-0.320848,2.0946029999999998,1.414409,-0.223602,0.448151,-0.233719
1217,12.17,-1.301505,2.267774,1.789107,-0.270477,0.468384,-0.055831999999999986
1218,12.18,-2.016728,2.291235,1.8382209999999999,-0.26301599999999997,0.5994109999999999,0.131653
1219,12.19,-2.565156,1.857864,1.726375,-0.235321,0.7826390000000001,0.283997
1220,12.2,-2.703938,1.045388,1.593224,-0.192719,0.93924,0.399048
1221,12.21,-2.456254,-0.10929299999999996,1.492566,-0.145844,1.065994,0.4832
1222,12.22,-1.8561740000000002,-1.397923,1.376786,-0.10536199999999998,1.154419,0.5354
1223,12.23,-1.16205,-2.5090369999999997,1.114491,-0.081924,1.220459,0.556702
1224,12.24,-0.458078,-3.261513,0.758338,-0.07234199999999999,1.253494,0.5460510000000001
1225,12.25,0.078322,-3.718601,0.315071,-0.074463,1.2598719999999999,0.507706
1226,12.26,0.503268,-3.6528730000000005,-0.08943399999999999,-0.100037,1.239639,0.46295200000000003
1227,12.27,0.86095,-3.191262,-0.48253999999999997,-0.138382,1.183182,0.42674300000000004
1228,12.28,1.228364,-2.833638,-0.628939,-0.18418900000000002,1.111801,0.401169
1229,12.29,1.391988,-2.171677,-0.6825180000000001,-0.218277,1.0500180000000001,0.386261
1230,12.3,1.572122,-1.807549,-0.6814359999999999,-0.238525,1.013809,0.355362
1231,12.31,1.492875,-1.26204,-0.6629659999999999,-0.238525,0.981842,0.32447800000000004
1232,12.32,1.450996,-0.919434,-0.611684,-0.22466999999999998,0.9807739999999999,0.292511
1233,12.33,1.2732729999999999,-0.837591,-0.674354,-0.192719,0.970123,0.24244699999999997
1234,12.34,1.364456,-1.0093940000000001,-0.779528,-0.162888,0.9413600000000001,0.191315
1235,12.35,1.248848,-1.289854,-0.93148,-0.13305699999999998,0.8912959999999999,0.1306
1236,12.36,1.13123,-1.6195389999999998,-1.042982,-0.114944,0.8241879999999999,0.070938
1237,12.37,1.02691,-1.7486169999999999,-1.230326,-0.11389200000000001,0.746414,0.008087
1238,12.38,0.715938,-1.554482,-1.378709,-0.128799,0.666519,-0.031326
1239,12.39,0.443406,-1.018661,-1.450135,-0.141586,0.613266,-0.040909
1240,12.4,0.09386400000000003,-0.43516499999999997,-1.41996,-0.150101,0.584503,-0.03772
1241,12.41,-0.307734,0.131379,-1.3415139999999999,-0.130936,0.587692,-0.031326
1242,12.42,-0.577967,0.5353020000000001,-1.100752,-0.080856,0.587692,-0.018539
1243,12.43,-0.592783,0.79493,-0.833591,0.0022280000000000012,0.600479,-0.008957
1244,12.44,-0.532483,0.691254,-0.598546,0.10023500000000002,0.6175229999999999,-0.011093
1245,12.45,-0.46955,0.303998,-0.372431,0.181198,0.640961,-0.033463
1246,12.46,-0.39955100000000005,-0.117005,-0.298887,0.244049,0.691025,-0.060089
1247,12.47,-0.06856899999999999,-0.19045299999999998,-0.525566,0.285583,0.78157,-0.07713300000000001
1248,12.48,0.497134,-0.05584400000000002,-0.928477,0.29836999999999997,0.818863,-0.086716
1249,12.49,1.1684219999999998,0.257083,-1.182963,0.264282,0.764526,-0.076065
1250,12.5,2.0033819999999998,1.044252,-1.394834,0.13006600000000001,0.634567,-0.033463
1251,12.51,2.575047,1.452084,-1.5431489999999999,0.052292,0.52272,0.008086999999999999
1252,12.52,2.95173,1.5484790000000002,-1.7714159999999999,0.043776999999999996,0.426849,0.037918
1253,12.53,2.71307,1.569008,-2.179468,0.113022,0.366119,0.050705
1254,12.54,1.9361099999999998,1.647093,-2.577625,0.201431,0.34375,0.06347699999999999
1255,12.55,0.7796810000000001,1.7240509999999998,-2.814444,0.242981,0.341614,0.0784
1256,12.56,-0.32587000000000005,2.050864,-2.6490139999999998,0.22805799999999998,0.38316300000000003,0.103958
1257,12.57,-1.135892,2.791142,-2.0261869999999997,0.18971300000000002,0.48223900000000003,0.148697
1258,12.58,-0.9823850000000001,3.558524,-0.997908,0.13006600000000001,0.593018,0.222214
1259,12.59,-0.08746699999999996,3.4497660000000003,0.4918509999999999,0.093842,0.581299,0.291443
1260,12.6,1.024526,2.459908,2.082273,0.158829,0.471588,0.292511
1261,12.61,1.655757,1.254861,3.0707419999999996,0.277069,0.365051,0.268021
1262,12.62,1.579739,0.3999,3.9236699999999995,0.317551,0.296875,0.319153
1263,12.63,1.118943,-0.021378000000000008,4.626042,0.239777,0.283035,0.405426
1264,12.64,0.04004699999999994,-0.084388,4.578533,0.11834700000000001,0.330963,0.488525
1265,12.65,-1.3680510000000001,-0.102947,4.0284949999999995,0.089584,0.433228,0.544983
1266,12.66,-2.732886,-0.241367,3.3336879999999995,0.205688,0.5163270000000001,0.556702
1267,12.67,-3.830979,-0.525649,2.710677,0.413422,0.52272,0.527939
1268,12.68,-4.606948,-0.680243,1.864218,0.5817260000000001,0.43855299999999997,0.472549
1269,12.69,-4.764225,-0.03618300000000002,0.85387,0.601974,0.328842,0.42246999999999996
1270,12.7,-3.6892519999999998,0.9938030000000001,0.13307400000000005,0.468811,0.232971,0.371338
1271,12.71,-1.59362,1.649218,-0.064682,0.267487,0.186096,0.297836
1272,12.72,0.69425,1.7775299999999998,0.240706,0.056563999999999996,0.177567,0.197708
1273,12.73,2.646016,1.832884,0.559184,-0.12773099999999998,0.13176,0.048569
1274,12.74,3.832911,1.504709,0.743362,-0.24171399999999998,0.046539,-0.116547
1275,12.75,4.388937,1.08149,0.8519049999999999,-0.27368200000000004,-0.020569,-0.268875
1276,12.76,4.118567,0.673014,0.8580530000000001,-0.258759,-0.0504,-0.42227200000000004
1277,12.77,2.690442,-0.029682999999999963,0.903903,-0.240646,-0.086609,-0.538391
1278,12.78,0.883684,-0.719627,1.009678,-0.21402,-0.129227,-0.5756680000000001
1279,12.79,-0.421778,-1.135292,0.969032,-0.159698,-0.15799000000000002,-0.557571
1280,12.8,-1.374343,-1.417106,0.6442399999999999,-0.098969,-0.176102,-0.534134
1281,12.81,-2.071526,-1.821235,0.3930710000000001,-0.049973000000000004,-0.19953900000000002,-0.518158
1282,12.82,-2.564896,-2.167726,-0.052159999999999984,-0.028671,-0.225098,-0.509628
1283,12.83,-2.655519,-2.4215560000000003,-0.414958,-0.053162,-0.24853499999999998,-0.502167
1284,12.84,-2.489884,-2.6692240000000003,-0.6214109999999999,-0.10536199999999998,-0.254929,-0.49365200000000004
1285,12.85,-2.197755,-2.598287,-0.765191,-0.171402,-0.242142,-0.49365200000000004
1286,12.86,-1.939628,-2.44214,-0.831702,-0.238525,-0.24107399999999998,-0.49791
1287,12.87,-1.776039,-2.303445,-0.858231,-0.282196,-0.24960300000000002,-0.47553999999999996
1288,12.88,-1.634168,-2.144331,-0.900324,-0.30777,-0.250671,-0.42866499999999996
1289,12.89,-1.43383,-2.10738,-0.899547,-0.317352,-0.24320999999999998,-0.355164
1290,12.9,-1.33418,-2.185264,-0.9750340000000001,-0.31842,-0.23788499999999999,-0.277405
1291,12.91,-1.275937,-2.332789,-1.062259,-0.325867,-0.222977,-0.201767
1292,12.92,-1.3290469999999999,-2.42277,-1.210809,-0.33653299999999997,-0.202728,-0.145309
1293,12.93,-1.3697110000000001,-2.292289,-1.3111190000000001,-0.35463,-0.180359,-0.099503
1294,12.94,-1.542784,-1.8009669999999998,-1.399767,-0.369553,-0.164383,-0.057953
1295,12.95,-1.586233,-1.175549,-1.338961,-0.366348,-0.155853,-0.017471
1296,12.96,-1.482689,-0.337552,-1.111574,-0.33226,-0.164383,0.017669999999999998
1297,12.97,-1.396599,0.297236,-0.8784790000000001,-0.251297,-0.16864,0.051758000000000005
1298,12.98,-1.2424540000000002,0.5207470000000001,-0.672642,-0.12773099999999998,-0.160126,0.068802
1299,12.99,-1.1088770000000001,0.462395,-0.650277,0.012878,-0.151596,0.06987
1300,13.0,-1.039301,0.183079,-0.717803,0.114075,-0.14945999999999998,0.051758000000000005
1301,13.01,-1.033165,-0.073394,-0.861562,0.162018,-0.160126,0.031525
1302,13.02,-1.2185700000000002,-0.141049,-1.053655,0.16734300000000002,-0.169708,0.030456999999999998
1303,13.03,-1.2743799999999998,0.07768500000000003,-1.322961,0.149231,-0.183548,0.045380000000000004
1304,13.04,-1.125889,0.529621,-1.6744330000000003,0.11514300000000001,-0.211258,0.076263
1305,13.05,-1.1143049999999999,1.046807,-1.624363,0.074661,-0.17717,0.108231
1306,13.06,-1.40273,1.446823,-1.542339,0.042709,-0.019501000000000004,0.11142
1307,13.07,-1.625213,1.469971,-1.8321630000000002,0.032059,0.129639,0.08265700000000001
1308,13.08,-1.5815139999999999,1.688855,-2.321777,0.059753,0.139221,0.031525
1309,13.09,-1.0298040000000002,2.062398,-2.7160509999999998,0.14711,0.06784100000000001,-0.018539
1310,13.1,0.02275099999999997,2.833354,-3.153498,0.23445100000000002,-0.062119000000000014,-0.08885199999999999
1311,13.11,1.263875,4.081752,-3.1092459999999997,0.282394,-0.28369099999999997,-0.217743
1312,13.12,1.8414540000000001,5.286391,-2.031093,0.32074,-0.473312,-0.36795
1313,13.13,1.202458,5.341949,-0.12732999999999994,0.385727,-0.57663,-0.424408
1314,13.14,0.022123000000000004,3.98335,2.0527900000000003,0.43153400000000003,-0.46052600000000005,-0.404175
1315,13.15,-0.772612,2.7591080000000003,3.096556,0.469879,-0.24853499999999998,-0.42333999999999994
1316,13.16,-1.619261,1.938824,3.416436,0.45069899999999996,-0.071701,-0.509628
1317,13.17,-1.998504,0.941818,3.9833510000000003,0.347382,0.130692,-0.5756680000000001
1318,13.18,-1.570237,0.36944,4.113295,0.197174,0.244675,-0.638519
1319,13.19,-1.40219,-0.119253,4.184608,0.107697,0.246811,-0.639587
1320,13.2,-0.691415,-0.279352,3.9292870000000004,0.155624,0.273438,-0.562897
1321,13.21,0.3962589999999999,-0.135496,2.941256,0.230194,0.253204,-0.486191
1322,13.22,1.3173700000000002,-0.18648900000000002,2.386047,0.237656,0.167984,-0.399902
1323,13.23,1.9692779999999999,-0.160863,2.151446,0.183319,0.07850599999999999,-0.310425
1324,13.24,1.784195,0.094832,1.616726,0.07254,0.048676,-0.234787
1325,13.25,0.8991110000000001,0.437007,0.9575530000000001,-0.044646999999999985,0.085953,-0.14212
1326,13.26,-0.230044,0.616375,0.621112,-0.141586,0.204208,-0.017471
1327,13.27,-1.2912350000000001,0.6066010000000001,0.555292,-0.229996,0.43536400000000003,0.12207
1328,13.28,-2.062654,0.45715200000000006,0.522437,-0.31309499999999996,0.697418,0.23712199999999997
1329,13.29,-2.65777,0.186687,0.626479,-0.35676599999999997,0.894501,0.321274
1330,13.3,-2.94842,-0.199432,0.86175,-0.33972199999999997,1.007416,0.406494
1331,13.31,-2.505523,-0.6869689999999999,1.040872,-0.302444,1.0500180000000001,0.490646
1332,13.32,-1.847004,-1.3610280000000001,1.154933,-0.268341,1.051086,0.54924
1333,13.33,-1.0105979999999999,-2.0519220000000002,1.1084610000000001,-0.217209,0.998886,0.588654
1334,13.34,-0.11552899999999995,-2.4184799999999997,0.766333,-0.150101,0.9168700000000001,0.607834
1335,13.35,0.7283949999999999,-2.707763,0.44296499999999994,-0.096848,0.8327030000000001,0.607834
1336,13.36,1.498029,-3.061579,0.197633,-0.084061,0.7709199999999999,0.5812069999999999
1337,13.37,1.614757,-2.632876,-0.17144700000000002,-0.12133800000000002,0.7400359999999999,0.5652159999999999
1338,13.38,2.227303,-2.739785,-0.099385,-0.17886400000000002,0.720856,0.538589
1339,13.39,2.08093,-2.247855,-0.26957,-0.2332,0.719788,0.485321
1340,13.4,1.727071,-1.50797,-0.427076,-0.291779,0.731506,0.42674300000000004
1341,13.41,1.512769,-1.3072979999999998,-0.367361,-0.32054099999999996,0.728317,0.350037
1342,13.42,1.091148,-1.125216,-0.531586,-0.297104,0.717667,0.270142
1343,13.43,0.9279729999999999,-1.146902,-0.6930930000000001,-0.251297,0.703812,0.209427
1344,13.44,0.873659,-1.331246,-0.885914,-0.195908,0.660141,0.156158
1345,13.45,0.9133379999999999,-1.606701,-1.243491,-0.153305,0.580246,0.11781300000000001
1346,13.46,1.019759,-1.907254,-1.430931,-0.13945,0.473709,0.10928299999999999
1347,13.47,1.352394,-2.010393,-1.62107,-0.143707,0.348007,0.11142
1348,13.48,1.7263669999999998,-1.8187529999999998,-1.705086,-0.168213,0.23083499999999998,0.102905
1349,13.49,1.860913,-1.450892,-1.7395060000000002,-0.20443699999999998,0.129639,0.075195
1350,13.5,1.619484,-1.0220040000000001,-1.7124650000000001,-0.249176,0.067841,0.041107
1351,13.51,1.129305,-0.47788100000000006,-1.583066,-0.288589,0.066788,0.0006260000000000017
1352,13.52,0.58206,0.052763999999999985,-1.427823,-0.297104,0.104065,-0.036652
1353,13.53,0.07374700000000001,0.4844649999999999,-1.063659,-0.27261399999999997,0.155197,-0.063278
1354,13.54,-0.265625,0.8170609999999999,-0.706535,-0.209763,0.19461099999999998,-0.065414
1355,13.55,-0.411724,1.001776,-0.464133,-0.12133800000000002,0.212723,-0.064346
1356,13.56,-0.43207299999999993,1.036557,-0.400213,-0.020142,0.23934899999999998,-0.064346
1357,13.57,-0.272807,0.9700559999999999,-0.533046,0.082123,0.299011,-0.068604
1358,13.58,0.03478899999999999,0.959686,-0.767811,0.174805,0.366119,-0.080322
1359,13.59,0.34910599999999997,1.037615,-1.1632,0.25149499999999997,0.39169299999999996,-0.088852
1360,13.6,0.5750430000000001,1.270103,-1.613869,0.288788,0.411926,-0.080322
1361,13.61,1.086147,1.670942,-2.117021,0.244049,0.373581,-0.038787999999999996
1362,13.62,1.6653900000000001,1.702378,-2.268161,0.192917,0.294754,-0.0014949999999999998
1363,13.63,1.960784,1.672509,-2.394734,0.177994,0.22869899999999999,0.029388
1364,13.64,1.701154,1.8299020000000001,-2.591775,0.214218,0.195679,0.047501
1365,13.65,0.956458,2.1478490000000003,-2.728208,0.262146,0.22657800000000003,0.068802
1366,13.66,0.316479,2.61095,-2.511936,0.297302,0.28089899999999995,0.081589
1367,13.67,-0.683982,3.5014489999999996,-1.91642,0.314346,0.360794,0.086914
1368,13.68,-0.8868030000000001,4.256035,-1.08273,0.280258,0.45133999999999996,0.125275
1369,13.69,0.21246,3.965346,0.48524799999999996,0.224869,0.377838,0.183853
1370,13.7,1.563741,2.680531,2.314531,0.253632,0.14773600000000006,0.20729099999999998
1371,13.71,2.085602,1.363599,3.566761,0.302628,0.039093,0.23712199999999997
1372,13.72,1.9085159999999999,0.41814300000000004,4.742724,0.264282,-0.014175000000000004,0.335129
1373,13.73,1.36316,-0.100535,5.1302650000000005,0.139648,-0.013106999999999999,0.442719
1374,13.74,0.543369,-0.22782800000000003,4.506166,0.03418,0.022049000000000003,0.503433
1375,13.75,-0.663732,-0.413059,3.720942,0.068268,0.048676,0.5002439999999999
1376,13.76,-1.9020259999999998,-0.804331,2.841743,0.222733,0.045471,0.46295200000000003
1377,13.77,-2.894605,-1.0733780000000002,1.9126490000000003,0.38359099999999996,0.033752,0.387329
1378,13.78,-3.66605,-0.692246,0.966766,0.44325299999999995,0.041214,0.296783
1379,13.79,-3.787014,-0.018888000000000016,0.116765,0.363358,0.068909,0.226471
1380,13.8,-2.739185,0.6452600000000001,-0.348556,0.188644,0.07637000000000001,0.17533900000000002
1381,13.81,-1.032131,0.805172,-0.375216,-0.013747999999999995,0.062515,0.108231
1382,13.82,0.6895990000000001,0.638062,-0.10753600000000002,-0.215088,0.012451,0.012343999999999999
1383,13.83,1.989325,0.19503299999999998,0.301425,-0.391922,-0.072769,-0.08671600000000003
1384,13.84,2.907695,-0.272532,0.747528,-0.496307,-0.14840699999999998,-0.182587
1385,13.85,3.2012400000000003,-0.43887600000000004,1.059512,-0.519745,-0.197403,-0.297638
1386,13.86,2.627587,-0.6307520000000001,1.29409,-0.499512,-0.211258,-0.398834
1387,13.87,1.466538,-0.873173,1.48591,-0.44944799999999996,-0.22190900000000002,-0.465958
1388,13.88,0.477742,-1.00924,1.419746,-0.376999,-0.24853499999999998,-0.49365200000000004
1389,13.89,-0.291144,-1.213971,1.2299209999999998,-0.285385,-0.28688,-0.504303
1390,13.9,-0.981183,-1.353996,0.8512290000000001,-0.190582,-0.312454,-0.50856
1391,13.91,-1.704622,-1.566861,0.482591,-0.116013,-0.32203699999999996,-0.502167
1392,13.92,-2.090513,-1.7118229999999999,0.19170299999999998,-0.077667,-0.319916,-0.471283
1393,13.93,-2.2332970000000003,-1.911527,-0.08612399999999999,-0.06488,-0.312454,-0.444641
1394,13.94,-2.3752020000000003,-1.951984,-0.282342,-0.07234199999999999,-0.31778,-0.419083
1395,13.95,-2.457049,-1.88379,-0.460319,-0.08618200000000001,-0.325241,-0.379669
1396,13.96,-2.411149,-1.703628,-0.622959,-0.111755,-0.32629400000000003,-0.332794
1397,13.97,-2.169859,-1.634665,-0.7276189999999999,-0.130936,-0.31778,-0.283798
1398,13.98,-1.842913,-1.645525,-0.8202659999999999,-0.13945,-0.302872,-0.24224899999999996
