,ts,ax,ay,az,wx,wy,wz
0,0.0,-0.2091,-0.12513,-0.16665,-1.0628,-0.003139,-0.19258
1,0.01,-0.19758,-0.07594400000000001,-0.078865,-0.8507,0.20829,-0.24488000000000001
2,0.02,-0.14758,-0.019675,-0.00058,-0.61548,0.34071999999999997,-0.34611
3,0.03,-0.08015499999999999,0.029868000000000002,0.061713,-0.40697,0.32953000000000005,-0.45566999999999996
4,0.04,-0.00257,0.056527999999999995,0.11098,-0.25098000000000004,0.17807,-0.52665
5,0.05,0.07295499999999999,0.058744000000000005,0.1551,-0.15267,-0.072091,-0.5292399999999999
6,0.06,0.13352999999999998,0.038165,0.19537000000000002,-0.10288,-0.33578,-0.45397
7,0.07,0.1791,0.006840000000000001,0.2404,-0.063431,-0.52698,-0.32655
8,0.08,0.21674000000000002,-0.019868,0.29074,-0.018466999999999997,-0.56371,-0.20152
9,0.09,0.25374,-0.037904,0.33992,0.028849,-0.46083,-0.11089
10,0.1,0.29115,-0.043462,0.37093000000000004,0.057578,-0.30022,-0.054551
11,0.11,0.32859,-0.037173000000000005,0.37462,0.046687,-0.1574,0.004953
12,0.12,0.35491,-0.023284,0.3533,-0.011758,-0.07921399999999999,0.083702
13,0.13,0.38449,-0.011757,0.32352,-0.09324299999999999,-0.074371,0.17107999999999998
14,0.14,0.41675,-0.011944,0.2944,-0.158,-0.12930999999999998,0.23190999999999998
15,0.15,0.42773,-0.020086,0.27786,-0.18797,-0.14717,0.22335
16,0.16,0.42108,-0.019651,0.27309,-0.19447,-0.078832,0.13782
17,0.17,0.3968,0.0015220000000000001,0.25543000000000005,-0.20863,0.073797,0.011575
18,0.18,0.36143000000000003,0.010636,0.22011,-0.23521999999999998,0.27448,-0.11158
19,0.19,0.31504,0.006241,0.18017,-0.25861,0.50917,-0.18035
20,0.2,0.25871,0.012911,0.14812999999999998,-0.24279,0.74987,-0.18394000000000002
21,0.21,0.21641,0.014678,0.12460999999999998,-0.17107,0.95806,-0.11267
22,0.22,0.17818,0.022508,0.096299,-0.044866,1.0784,0.016491
23,0.23,0.13963,0.037491000000000003,0.062726,0.15412,1.1159999999999999,0.18435
24,0.24,0.1065,0.027161,0.037870999999999995,0.44943999999999995,1.0590000000000002,0.35575
25,0.25,0.0854,0.001953,0.016133,0.80604,0.91209,0.49859
26,0.26,0.082163,-0.027191000000000003,-0.013552000000000002,1.1407,0.65882,0.58608
27,0.27,0.086656,-0.060689,-0.076333,1.3321,0.30985,0.5977
28,0.28,0.087983,-0.0806,-0.17285,1.3185,-0.08318500000000001,0.54286
29,0.29,0.08997999999999999,-0.11578,-0.28608,1.0944,-0.42223,0.45021000000000005
30,0.3,0.084716,-0.15875999999999998,-0.39684,0.70613,-0.58413,0.37617
31,0.31,0.052221000000000004,-0.19551,-0.47695,0.25106999999999996,-0.5239,0.36887
32,0.32,-0.00137,-0.22795,-0.51967,-0.18827,-0.32106999999999997,0.42966000000000004
33,0.33,-0.073035,-0.22899,-0.5473899999999999,-0.57071,-0.059075,0.51713
34,0.34,-0.1379,-0.19393,-0.5594,-0.86884,0.1767,0.55996
35,0.35,-0.18555,-0.13113,-0.55579,-1.0624,0.36588000000000004,0.52407
36,0.36,-0.22155999999999998,-0.06539299999999999,-0.52122,-1.1202,0.53271,0.40413000000000004
37,0.37,-0.22956,-0.017093,-0.44861,-1.0456,0.6772,0.22574
38,0.38,-0.21599000000000002,0.0073739999999999995,-0.35139000000000004,-0.8774799999999999,0.78257,0.047591
39,0.39,-0.1962,0.012865000000000001,-0.24670999999999998,-0.67698,0.8247399999999999,-0.08129199999999999
40,0.4,-0.17263,0.00298,-0.14332,-0.49554,0.79772,-0.13323
41,0.41,-0.14323,-0.00016999999999999999,-0.043687000000000004,-0.36315,0.67835,-0.12959
42,0.42,-0.097067,-0.000331,0.034171,-0.29696,0.4295,-0.10662
43,0.43,-0.045254,0.007406,0.081005,-0.29068,0.015989,-0.10480999999999999
44,0.44,0.005209,0.020061000000000002,0.09644900000000001,-0.31894,-0.47073000000000004,-0.13389
45,0.45,0.043592,0.029548,0.11362,-0.35299,-0.88705,-0.17805
46,0.46,0.038904,0.046130000000000004,0.1402,-0.38799999999999996,-1.1233,-0.17449
47,0.47,-0.014622999999999999,0.057665999999999995,0.1696,-0.46362,-1.0854,-0.13946
48,0.48,-0.06186900000000001,0.093769,0.19329000000000002,-0.58527,-0.7850699999999999,-0.079361
49,0.49,-0.099311,0.13145,0.20190999999999998,-0.74725,-0.31176,-0.0036229999999999995
50,0.5,-0.11936,0.13404000000000002,0.20182999999999998,-0.90699,0.17539000000000002,0.077432
51,0.51,-0.13826,0.12294000000000001,0.19067,-1.0305,0.5269,0.16305999999999998
52,0.52,-0.17328,0.09450599999999999,0.16623,-1.064,0.6581600000000001,0.24602
53,0.53,-0.20895,0.06217999999999999,0.13885999999999998,-0.988,0.59567,0.30391
54,0.54,-0.25284,0.047282,0.11825999999999999,-0.78238,0.42561000000000004,0.30563
55,0.55,-0.28343,0.04659,0.11897,-0.46365,0.21100000000000002,0.23290999999999998
56,0.56,-0.30301999999999996,0.062068,0.11578,-0.0914,-0.012517,0.11227000000000001
57,0.57,-0.32538,0.089533,0.10375999999999999,0.28547,-0.20196,-0.025509999999999998
58,0.58,-0.34338,0.1194,0.099384,0.64472,-0.32625,-0.1645
59,0.59,-0.36667,0.16341,0.093784,0.9712799999999999,-0.40445,-0.30469
60,0.6,-0.35708,0.17193,0.099023,1.2491,-0.43112,-0.43225
61,0.61,-0.35581999999999997,0.16253,0.1053,1.4376,-0.41336000000000006,-0.55257
62,0.62,-0.35345,0.16646,0.09152300000000001,1.4963,-0.36151,-0.67425
63,0.63,-0.34093,0.16144,0.062725,1.4151,-0.31062,-0.7982899999999999
64,0.64,-0.33234,0.15812,0.018741,1.1909,-0.28307,-0.92895
65,0.65,-0.32111999999999996,0.15305,-0.04158,0.87571,-0.29204,-1.0715
66,0.66,-0.31482,0.13777999999999999,-0.08610599999999999,0.5496300000000001,-0.32226,-1.199
67,0.67,-0.33551,0.1094,-0.10954000000000001,0.27244,-0.35079,-1.2869
68,0.68,-0.35891999999999996,0.07896900000000001,-0.12185,0.076171,-0.3715,-1.3353
69,0.69,-0.37556999999999996,0.054698000000000004,-0.12175,-0.041485,-0.41421,-1.345
70,0.7,-0.39608000000000004,0.038486,-0.12808,-0.13302999999999998,-0.50832,-1.3226
71,0.71,-0.40798,0.023033,-0.14895999999999998,-0.23235,-0.6311399999999999,-1.2873
72,0.72,-0.41696000000000005,0.013984,-0.16968,-0.37845,-0.73973,-1.2586
73,0.73,-0.40685,0.014668,-0.19234,-0.55609,-0.79476,-1.2406
74,0.74,-0.38921,-0.0018559999999999998,-0.19941,-0.7129300000000001,-0.769,-1.2025
75,0.75,-0.38921999999999995,-0.024717,-0.17981,-0.81919,-0.66272,-1.1196
76,0.76,-0.39221999999999996,-0.025112,-0.14536,-0.8411299999999999,-0.53159,-1.0004
77,0.77,-0.3849,-0.016109000000000002,-0.10240999999999999,-0.7589100000000001,-0.43545,-0.85841
78,0.78,-0.36436,-0.011025,-0.044833,-0.5716399999999999,-0.4222,-0.73536
79,0.79,-0.31722,0.0012,0.019007,-0.30913,-0.50755,-0.6664399999999999
80,0.8,-0.24831999999999999,0.016404,0.078888,-0.033174,-0.6899,-0.67098
81,0.81,-0.17492,0.025873,0.12613,0.20534000000000002,-0.9241,-0.73633
82,0.82,-0.099248,0.032266,0.16969,0.37151,-1.1587,-0.8413
83,0.83,-0.025644,0.038162,0.20822,0.44403000000000004,-1.3638,-0.95076
84,0.84,0.034069,0.03755,0.22973000000000002,0.40274,-1.5168,-1.0434
85,0.85,0.095348,0.035562,0.24090999999999999,0.26174000000000003,-1.5721,-1.0991
86,0.86,0.14112,0.026545,0.25179,0.048815,-1.5032,-1.0846
87,0.87,0.16634000000000002,0.002349,0.2614,-0.19534,-1.2946,-1.0
88,0.88,0.18438,-0.028675,0.26639,-0.42398,-0.98272,-0.86541
89,0.89,0.18313,-0.044969,0.27032,-0.57529,-0.60652,-0.72864
90,0.9,0.18688,-0.045444,0.28076,-0.62532,-0.25777,-0.62047
91,0.91,0.19343,-0.050699,0.28176,-0.58955,-0.016239,-0.55999
92,0.92,0.19324000000000002,-0.0569,0.26423,-0.49054,0.085247,-0.5664
93,0.93,0.19523,-0.055587,0.24274,-0.3367,0.055300999999999996,-0.65467
94,0.94,0.20179,-0.06423999999999999,0.21728000000000003,-0.15364,-0.08884500000000001,-0.79714
95,0.95,0.20285999999999998,-0.073533,0.17831,0.029011000000000002,-0.29265,-0.9512299999999999
96,0.96,0.19292,-0.08808099999999999,0.13409000000000001,0.21689,-0.48482,-1.0658
97,0.97,0.16447,-0.099485,0.096068,0.40276999999999996,-0.6195,-1.1155
98,0.98,0.14096,-0.12329000000000001,0.057998,0.5865,-0.7148100000000001,-1.0958
99,0.99,0.12214000000000001,-0.15705999999999998,0.006504,0.75954,-0.7802399999999999,-1.0249
100,1.0,0.10859,-0.18424000000000001,-0.047008999999999995,0.9132,-0.84555,-0.91991
101,1.01,0.088227,-0.20858000000000002,-0.10318,1.0221,-0.89346,-0.79795
102,1.02,0.054214,-0.21336999999999998,-0.15739,1.0683,-0.9344299999999999,-0.71134
103,1.03,0.023551,-0.20505,-0.21119000000000002,1.0283,-0.9927299999999999,-0.69102
104,1.04,-0.011793999999999999,-0.20054,-0.27336,0.87397,-1.099,-0.7316600000000001
105,1.05,-0.045277,-0.20199999999999999,-0.3443,0.6144,-1.1938,-0.8216100000000001
106,1.06,-0.07792400000000001,-0.21466999999999997,-0.39839,0.2946,-1.2198,-0.92245
107,1.07,-0.12613,-0.22266999999999998,-0.43256000000000006,-0.057429999999999995,-1.1284,-1.0022
108,1.08,-0.18627,-0.21066999999999997,-0.44853999999999994,-0.40972,-0.9165700000000001,-1.0512
109,1.09,-0.24483000000000002,-0.17903,-0.44555,-0.73129,-0.5867600000000001,-1.0801
110,1.1,-0.28334000000000004,-0.13425,-0.41935,-0.97665,-0.19257,-1.1026
111,1.11,-0.29946,-0.09160800000000001,-0.36585,-1.1206,0.20504,-1.1206
112,1.12,-0.29959,-0.057726,-0.28913,-1.1605,0.53785,-1.1405
113,1.13,-0.27742,-0.030322,-0.20324,-1.1159,0.76022,-1.1643
114,1.14,-0.24244000000000002,-0.014875,-0.11792000000000001,-1.0086,0.8392700000000001,-1.177
115,1.15,-0.20823000000000003,-0.007045999999999999,-0.037739999999999996,-0.87685,0.76466,-1.1767
116,1.16,-0.17406,0.000128,0.029580000000000002,-0.75588,0.5505399999999999,-1.1761
117,1.17,-0.13584000000000002,0.006359,0.07764800000000001,-0.6613899999999999,0.2354,-1.1604
118,1.18,-0.11257,0.011554,0.11861,-0.58145,-0.14361,-1.1073
119,1.19,-0.10275999999999999,0.013337,0.14377,-0.52108,-0.5406,-1.0126
120,1.2,-0.10322,0.012875999999999999,0.14768,-0.46123000000000003,-0.85344,-0.8913200000000001
121,1.21,-0.12433,0.025487,0.15298,-0.35768,-1.0303,-0.75954
122,1.22,-0.1594,0.03322,0.16174000000000002,-0.23192,-1.0932,-0.61831
123,1.23,-0.20581,0.047306,0.15207,-0.1117,-1.0613,-0.49754
124,1.24,-0.24605,0.0823,0.13357,-0.007784999999999999,-0.96741,-0.43241999999999997
125,1.25,-0.27991,0.11846,0.11553,0.094723,-0.8297200000000001,-0.44209
126,1.26,-0.30022,0.14576,0.10761,0.20301,-0.6877300000000001,-0.53288
127,1.27,-0.30703,0.16932,0.10434,0.29636,-0.5807100000000001,-0.68234
128,1.28,-0.30489,0.19563,0.095795,0.36474,-0.5352899999999999,-0.8424200000000001
129,1.29,-0.29563,0.20576,0.085126,0.41776,-0.53557,-0.99069
130,1.3,-0.27063000000000004,0.20415999999999998,0.089852,0.44795,-0.5698,-1.1091
131,1.31,-0.24026,0.19818,0.086565,0.45533,-0.622,-1.1751
132,1.32,-0.21921,0.1933,0.080838,0.45175,-0.6795,-1.1911
133,1.33,-0.20288,0.19124000000000002,0.075403,0.45124,-0.72428,-1.1622
134,1.34,-0.19789,0.18752,0.066133,0.45941000000000004,-0.74251,-1.1162
135,1.35,-0.20397,0.19985,0.052073,0.50121,-0.70877,-1.0991
136,1.36,-0.20419,0.2092,0.053835,0.58399,-0.6412399999999999,-1.1183
137,1.37,-0.19694,0.19053,0.056655,0.6626,-0.5768399999999999,-1.1588
138,1.38,-0.19964,0.16954,0.039857,0.6805100000000001,-0.5183,-1.2336
139,1.39,-0.19351,0.15723,0.012698000000000001,0.60142,-0.46746000000000004,-1.3385
140,1.4,-0.18282,0.1334,-0.02677,0.44115,-0.43299,-1.4498
141,1.41,-0.16689,0.08327000000000001,-0.060980999999999994,0.25719000000000003,-0.40369,-1.527
142,1.42,-0.14955,0.011233,-0.081857,0.09854500000000001,-0.37572,-1.5508
143,1.43,-0.1414,-0.053277,-0.092188,-0.008301000000000001,-0.36955,-1.5105
144,1.44,-0.15283,-0.08390299999999999,-0.1039,-0.098901,-0.43071000000000004,-1.4145
145,1.45,-0.16847,-0.098401,-0.1394,-0.21497,-0.60887,-1.3172
146,1.46,-0.17203,-0.10330999999999999,-0.19655999999999998,-0.36646,-0.8389200000000001,-1.2594
147,1.47,-0.17729,-0.10119,-0.23353000000000002,-0.4928,-1.0254,-1.2561
148,1.48,-0.18603,-0.10755999999999999,-0.23726999999999998,-0.57313,-1.0887,-1.2946
149,1.49,-0.20281,-0.11308,-0.22119,-0.5907,-1.0331,-1.3203
150,1.5,-0.22921,-0.10918,-0.19284,-0.56188,-0.8894799999999999,-1.3077
151,1.51,-0.24402,-0.09753400000000001,-0.15798,-0.49028999999999995,-0.7047100000000001,-1.2481
152,1.52,-0.24903000000000003,-0.084123,-0.10511,-0.3678,-0.53427,-1.1447
153,1.53,-0.24331999999999998,-0.079538,-0.044349,-0.22582,-0.44925,-1.0229
154,1.54,-0.22236,-0.068997,-0.0026780000000000003,-0.12523,-0.48428000000000004,-0.92448
155,1.55,-0.18612,-0.046647,0.017747,-0.070018,-0.62438,-0.8803700000000001
156,1.56,-0.15217,-0.027932,0.037169,-0.040483,-0.80789,-0.89387
157,1.57,-0.12687,-0.012439,0.06376799999999999,-0.015916,-0.9817100000000001,-0.9639700000000001
158,1.58,-0.106,0.005324000000000001,0.092305,0.0060799999999999995,-1.0915,-1.0598
159,1.59,-0.09324400000000001,0.018659000000000002,0.12147999999999999,0.030824,-1.1226,-1.1504
160,1.6,-0.076269,0.025869999999999997,0.16138,0.059201,-1.0822,-1.2124
161,1.61,-0.059965,0.026782999999999998,0.20099,0.084452,-1.0046,-1.2306
162,1.62,-0.047404,0.028620999999999997,0.23546,0.10318,-0.9142399999999999,-1.2062
163,1.63,-0.037382,0.036216000000000005,0.26885,0.11635,-0.84086,-1.1625
164,1.64,-0.020436000000000003,0.028069999999999998,0.29261,0.12715,-0.8005,-1.1231
165,1.65,-0.010072,0.025245,0.30614,0.13151,-0.78563,-1.1178
166,1.66,-0.000285,0.039655,0.31756,0.14035999999999998,-0.77712,-1.1669
167,1.67,0.012504000000000001,0.048816000000000005,0.32274,0.15168,-0.75261,-1.2587
168,1.68,0.024439,0.04845,0.31856999999999996,0.14504,-0.71515,-1.3644
169,1.69,0.036591000000000005,0.039113,0.29916,0.10967,-0.6551,-1.45
170,1.7,0.041754,0.027466,0.26538,0.046588,-0.5586399999999999,-1.4812
171,1.71,0.037176,0.017912,0.22428,-0.017529,-0.41323999999999994,-1.4421
172,1.72,0.020936,0.009726,0.18124,-0.050766000000000006,-0.23192,-1.3347
173,1.73,-0.0013050000000000002,0.000458,0.141,-0.017888,-0.026691000000000003,-1.1802
174,1.74,-0.020947999999999998,-0.009094,0.11565999999999999,0.11074,0.15216,-1.0127
175,1.75,-0.026622000000000003,-0.021903,0.08924299999999999,0.30806999999999995,0.22925,-0.8790899999999999
176,1.76,-0.010986,-0.044614,0.0403,0.55772,0.14825,-0.78992
177,1.77,-0.00134,-0.05654,-0.016204,0.81152,-0.10325,-0.7378
178,1.78,-0.003461,-0.045301,-0.084709,1.012,-0.5109,-0.72926
179,1.79,-0.008556999999999999,-0.041641000000000004,-0.16383,1.1214,-0.99874,-0.7719699999999999
180,1.8,-0.013056,-0.04455,-0.24391,1.0933,-1.5014,-0.8672
181,1.81,-0.022613,-0.042839,-0.33455,0.92332,-1.8909,-0.9917
182,1.82,-0.046866000000000005,-0.04365,-0.39525,0.67404,-2.0486,-1.1061
183,1.83,-0.086645,-0.050487,-0.40281,0.39884000000000003,-1.9408,-1.1622
184,1.84,-0.14719000000000002,-0.048721,-0.38432,0.10236,-1.6474,-1.1494
185,1.85,-0.19760999999999998,-0.033073000000000005,-0.37033,-0.22216999999999998,-1.2441,-1.1079999999999999
186,1.86,-0.22536,-0.011085,-0.34907,-0.55602,-0.80772,-1.0688
187,1.87,-0.23134000000000002,-0.001628,-0.3169,-0.85882,-0.37793000000000004,-1.0626
188,1.88,-0.20569,0.001215,-0.26093,-1.0913,0.010858,-1.117
189,1.89,-0.16159,0.012634999999999999,-0.18506,-1.2376,0.33503,-1.199
190,1.9,-0.11647,0.023325,-0.09752999999999999,-1.3018,0.53915,-1.2656
191,1.91,-0.06945599999999999,0.038033,-0.017599,-1.3313,0.57033,-1.2988
192,1.92,-0.020163,0.066258,0.039787,-1.3530000000000002,0.38722,-1.2943
193,1.93,0.019272,0.087479,0.075281,-1.3711,0.031407,-1.2435
194,1.94,0.035878,0.099704,0.10284000000000001,-1.3737,-0.39488,-1.1787
195,1.95,0.044413,0.12369000000000001,0.12882000000000002,-1.3558,-0.78191,-1.1139
196,1.96,0.034841000000000004,0.14924,0.15006,-1.32,-1.0508,-1.0141
197,1.97,-0.002688,0.13067,0.15789,-1.2528,-1.204,-0.8291
198,1.98,-0.065479,0.073701,0.14579,-1.1432,-1.2232,-0.59191
199,1.99,-0.12550999999999998,0.026195,0.13915,-0.96809,-1.0821,-0.39011999999999997
200,2.0,-0.17365,0.009287,0.14498,-0.74832,-0.87516,-0.27162
201,2.01,-0.2129,0.003009,0.13143,-0.53165,-0.71181,-0.24164000000000002
202,2.02,-0.24291999999999997,-0.0008449999999999999,0.10572999999999999,-0.34092,-0.6461899999999999,-0.298
203,2.03,-0.2588,0.007571,0.085356,-0.18795,-0.68034,-0.43217
204,2.04,-0.26249,0.02332,0.071167,-0.08336,-0.78864,-0.61326
205,2.05,-0.27263000000000004,0.044201,0.053446,-0.020481,-0.9264100000000001,-0.8199799999999999
206,2.06,-0.27521,0.05467999999999999,0.043883,0.018154,-1.0299,-1.0311
207,2.07,-0.2753,0.059302,0.043311,0.034975,-1.0394,-1.2104
208,2.08,-0.28115999999999997,0.064583,0.045725,0.029862,-0.94868,-1.3237
209,2.09,-0.28800000000000003,0.06804500000000001,0.047094,0.021845,-0.777,-1.3667
210,2.1,-0.29338000000000003,0.062068,0.048636,0.050217000000000005,-0.55561,-1.3531
211,2.11,-0.29473,0.06609,0.066692,0.13288,-0.33255,-1.3118
212,2.12,-0.28841999999999995,0.074067,0.089835,0.24691,-0.19607,-1.2777
213,2.13,-0.27234,0.077127,0.095444,0.37176,-0.18965,-1.2689
214,2.14,-0.26106,0.06566,0.096511,0.50246,-0.2738,-1.3006
215,2.15,-0.26050999999999996,0.054367,0.10249000000000001,0.6117100000000001,-0.41101000000000004,-1.3919
216,2.16,-0.25049,0.062825,0.10269,0.6888,-0.61074,-1.5515
217,2.17,-0.21178000000000002,0.055035,0.091128,0.71891,-0.8356299999999999,-1.7464
218,2.18,-0.17493,0.027747000000000004,0.07195599999999999,0.75392,-0.9795799999999999,-1.935
219,2.19,-0.15252000000000002,-0.007634999999999999,0.093635,0.8419,-1.0015,-2.0693
220,2.2,-0.13366,-0.045906,0.13018,0.94945,-1.0428,-2.0926
221,2.21,-0.13368,-0.073741,0.12172000000000001,0.9527399999999999,-1.2305,-1.9834
222,2.22,-0.14744000000000002,-0.092413,0.044223,0.75722,-1.5594,-1.8145
223,2.23,-0.1426,-0.11444000000000001,-0.070839,0.40726999999999997,-1.8678,-1.6683
224,2.24,-0.14005,-0.1497,-0.14681,0.009928,-1.9947,-1.5695
225,2.25,-0.17782,-0.18285,-0.18216,-0.3582,-1.8329,-1.5181
226,2.26,-0.23274,-0.20255,-0.19654000000000002,-0.66508,-1.369,-1.4971
227,2.27,-0.28481,-0.20407,-0.1923,-0.92342,-0.71687,-1.4954
228,2.28,-0.30499,-0.18899000000000002,-0.18348,-1.1234,-0.10357999999999999,-1.4851
229,2.29,-0.28455,-0.18029,-0.17662,-1.2696,0.3185,-1.453
230,2.3,-0.23463,-0.17762,-0.1649,-1.3312,0.5139600000000001,-1.4001
231,2.31,-0.18887,-0.15938,-0.13957999999999998,-1.2941,0.52745,-1.3424
232,2.32,-0.14289000000000002,-0.14315,-0.097388,-1.1407,0.39187,-1.2918
233,2.33,-0.09009099999999999,-0.12507000000000001,-0.047027,-0.9082,0.12672,-1.2674
234,2.34,-0.031105,-0.094207,-0.013588,-0.64195,-0.20047,-1.2685
235,2.35,0.018823,-0.064348,0.022958000000000003,-0.36155,-0.50008,-1.2782
236,2.36,0.053967999999999995,-0.048458999999999995,0.06959800000000001,-0.10092999999999999,-0.73451,-1.2858
237,2.37,0.075003,-0.034323,0.10569,0.096333,-0.89915,-1.3108
238,2.38,0.097613,-0.017796,0.12711,0.21211999999999998,-0.9895700000000001,-1.3532
239,2.39,0.11635999999999999,-0.011571,0.14528,0.25603000000000004,-1.0016,-1.4054
240,2.4,0.13677,-0.008971999999999999,0.16747,0.22873000000000002,-0.9715,-1.4428
241,2.41,0.14633,-0.010179,0.18508,0.15143,-0.9005299999999999,-1.4463
242,2.42,0.15517999999999998,-0.012759999999999999,0.2055,0.057374,-0.7868,-1.4477
243,2.43,0.17232,-0.014981,0.23059000000000002,-0.025904000000000003,-0.65399,-1.4374
244,2.44,0.17528,-0.020402,0.24856999999999999,-0.079446,-0.52784,-1.41
245,2.45,0.17399,-0.027129,0.25995,-0.08300700000000001,-0.42553,-1.3878
246,2.46,0.17703,-0.027905000000000003,0.27263000000000004,-0.044334,-0.36835,-1.3504
247,2.47,0.17135999999999998,-0.037880000000000004,0.26402,-0.009288,-0.35484,-1.296
248,2.48,0.16899999999999998,-0.047304,0.23378000000000002,0.011954000000000001,-0.33483,-1.2426
249,2.49,0.16243,-0.042761,0.20201,0.039792,-0.27014,-1.1583
250,2.5,0.14099,-0.051041,0.17820999999999998,0.095927,-0.11089,-1.0347
251,2.51,0.12062,-0.05809400000000001,0.16696,0.20263,0.12888,-0.86629
252,2.52,0.10119,-0.060214,0.15492,0.37848000000000004,0.36059,-0.66999
253,2.53,0.10255,-0.081512,0.14702,0.6098399999999999,0.45971999999999996,-0.47763
254,2.54,0.12913,-0.12359,0.10993,0.78418,0.36006,-0.29463
255,2.55,0.13615,-0.16309,0.024924,0.83901,0.11009000000000001,-0.13505
256,2.56,0.12087,-0.18454,-0.073062,0.76653,-0.21975,-0.03639
257,2.57,0.10265999999999999,-0.21241,-0.17456,0.59997,-0.49543999999999994,-0.027652999999999997
258,2.58,0.06894700000000001,-0.22286,-0.25205,0.39337,-0.63431,-0.11529
259,2.59,0.027870999999999996,-0.21005,-0.31040999999999996,0.20636999999999997,-0.6241,-0.25547
260,2.6,-0.022162,-0.19418,-0.33784000000000003,0.066258,-0.47789,-0.37978
261,2.61,-0.068457,-0.18563,-0.34178000000000003,-0.027972000000000004,-0.28951,-0.43792
262,2.62,-0.09653300000000001,-0.17985,-0.34478000000000003,-0.12169,-0.12891,-0.42768999999999996
263,2.63,-0.10602,-0.17603,-0.35903,-0.23739000000000002,-0.021454,-0.37578
264,2.64,-0.10472000000000001,-0.18995,-0.36837,-0.35886999999999997,0.044479000000000005,-0.30351999999999996
265,2.65,-0.10323,-0.214,-0.3665,-0.46551000000000003,0.086859,-0.24828000000000003
266,2.66,-0.10057,-0.22635999999999998,-0.34886999999999996,-0.51765,0.1171,-0.22386999999999999
267,2.67,-0.10467,-0.22164,-0.30546999999999996,-0.493,0.13394,-0.22065
268,2.68,-0.11965,-0.19205999999999998,-0.24495,-0.39392,0.10437,-0.23751
269,2.69,-0.13410999999999998,-0.141,-0.17924,-0.23240999999999998,-0.000288,-0.27226999999999996
270,2.7,-0.14273,-0.087474,-0.11345,-0.045848,-0.18719,-0.32392
271,2.71,-0.13998,-0.03872,-0.055033000000000006,0.14128,-0.44228,-0.38719000000000003
272,2.72,-0.13404000000000002,0.00441,-0.002172,0.30465,-0.73233,-0.45257
273,2.73,-0.12837,0.042281,0.048429,0.42532,-1.021,-0.50736
274,2.74,-0.13275,0.06442,0.087247,0.5013,-1.2858,-0.5515899999999999
275,2.75,-0.13885999999999998,0.074613,0.12444000000000001,0.52765,-1.4778,-0.58003
276,2.76,-0.14217,0.07646599999999999,0.15853,0.4969,-1.5777,-0.56389
277,2.77,-0.15509,0.081444,0.18094000000000002,0.41005,-1.5846,-0.48931
278,2.78,-0.16405999999999998,0.084341,0.19087,0.29261,-1.5262,-0.37968
279,2.79,-0.1703,0.082735,0.19484,0.16721,-1.4176,-0.3075
280,2.8,-0.17847000000000002,0.1067,0.2005,0.046669999999999996,-1.2759,-0.30049000000000003
281,2.81,-0.19227,0.13745,0.19647,-0.082013,-1.1224,-0.35222
282,2.82,-0.20651999999999998,0.16607,0.18017,-0.22096999999999997,-0.95071,-0.45203000000000004
283,2.83,-0.22218000000000002,0.19804000000000002,0.16514,-0.35222,-0.7694,-0.586
284,2.84,-0.23615999999999998,0.22459,0.14745,-0.45361,-0.58728,-0.71672
285,2.85,-0.25399,0.23806,0.13257,-0.48167,-0.41326999999999997,-0.80247
286,2.86,-0.26894,0.23196999999999998,0.12672,-0.4226,-0.24536999999999998,-0.82401
287,2.87,-0.28146,0.21358000000000002,0.1256,-0.27953,-0.070768,-0.77818
288,2.88,-0.28909,0.19391,0.12618,-0.068584,0.084039,-0.68308
289,2.89,-0.29046,0.16946,0.12352,0.18557,0.18731,-0.56221
290,2.9,-0.28720999999999997,0.14481,0.12634,0.45448,0.25106999999999996,-0.46792
291,2.91,-0.26666,0.13152,0.13235999999999998,0.69128,0.27039,-0.42485
292,2.92,-0.24989,0.12767,0.12759,0.8375299999999999,0.25856,-0.4598
293,2.93,-0.22104000000000001,0.12190999999999999,0.099843,0.86655,0.19879000000000002,-0.59734
294,2.94,-0.17115999999999998,0.09573200000000001,0.058136,0.79104,0.1101,-0.7873100000000001
295,2.95,-0.13278,0.049397,0.012473999999999999,0.64573,-0.021725,-0.9591799999999999
296,2.96,-0.10485,-0.014736,-0.032824,0.48291999999999996,-0.1886,-1.1001
297,2.97,-0.070995,-0.07365,-0.063193,0.31533,-0.38745999999999997,-1.1875
298,2.98,-0.06694800000000001,-0.09817000000000001,-0.09937,0.11548,-0.56803,-1.1961
299,2.99,-0.087017,-0.093654,-0.14303,-0.13228,-0.70349,-1.1525
300,3.0,-0.10128999999999999,-0.084652,-0.1819,-0.38573,-0.73557,-1.0889
301,3.01,-0.11220999999999999,-0.083524,-0.19667,-0.59863,-0.6401,-1.0328
302,3.02,-0.11907999999999999,-0.091271,-0.18848,-0.7455,-0.43221000000000004,-0.98649
303,3.03,-0.12415999999999999,-0.10174,-0.16912,-0.80887,-0.1824,-0.93047
304,3.04,-0.12880999999999998,-0.10977999999999999,-0.13695,-0.77863,0.042108,-0.85396
305,3.05,-0.12326,-0.11695,-0.09310299999999999,-0.6635800000000001,0.21261999999999998,-0.7590600000000001
306,3.06,-0.11025,-0.11424000000000001,-0.035105000000000004,-0.48513,0.31122,-0.65859
307,3.07,-0.08894500000000001,-0.10042000000000001,0.030325,-0.2861,0.30629,-0.5696399999999999
308,3.08,-0.061421,-0.080325,0.075311,-0.13480999999999999,0.17712,-0.51898
309,3.09,-0.013841999999999998,-0.052461,0.099872,-0.038486,-0.048519,-0.51308
310,3.1,0.040568,-0.038454,0.12855,0.025692000000000003,-0.29414,-0.51147
311,3.11,0.07230700000000001,-0.034333999999999996,0.16563,0.06644299999999999,-0.5129600000000001,-0.47579
312,3.12,0.095664,-0.032394,0.1903,0.086245,-0.6666300000000001,-0.41463999999999995
313,3.13,0.11075,-0.038329,0.20753000000000002,0.096934,-0.73715,-0.31737
314,3.14,0.10407999999999999,-0.053810000000000004,0.21949000000000002,0.093249,-0.7255199999999999,-0.19998
315,3.15,0.085108,-0.06249,0.22443000000000002,0.097858,-0.63293,-0.12007999999999999
316,3.16,0.071517,-0.052667,0.2353,0.13205999999999998,-0.4883,-0.11494000000000001
317,3.17,0.068415,-0.047761,0.25611999999999996,0.18914,-0.31822,-0.1621
318,3.18,0.059773,-0.045263,0.27604,0.25377,-0.15245,-0.23487
319,3.19,0.063584,-0.042033999999999995,0.29124,0.28733000000000003,-0.017296000000000002,-0.32791
320,3.2,0.089891,-0.049463,0.29431999999999997,0.2874,0.065919,-0.42306000000000005
321,3.21,0.11544000000000001,-0.062477,0.29257,0.24749000000000002,0.09723,-0.50003
322,3.22,0.13719,-0.071355,0.28631,0.16645,0.070247,-0.55243
323,3.23,0.15572,-0.082711,0.2588,0.046608,0.011587,-0.57815
324,3.24,0.16330999999999998,-0.09303099999999999,0.22016999999999998,-0.081717,-0.015075999999999999,-0.56338
325,3.25,0.14972,-0.098041,0.19296,-0.15842,0.037706,-0.5017
326,3.26,0.13571,-0.10082999999999999,0.16833,-0.17094,0.13574,-0.40156
327,3.27,0.1223,-0.099944,0.12732000000000002,-0.12143,0.26521,-0.28108
328,3.28,0.10908,-0.076997,0.094468,0.043717,0.44061999999999996,-0.16796
329,3.29,0.10640999999999999,-0.051555,0.091786,0.33034,0.60224,-0.046068
330,3.3,0.096026,-0.057383,0.087974,0.6318600000000001,0.63584,0.095292
331,3.31,0.09979099999999999,-0.06437799999999999,0.036035000000000005,0.8508100000000001,0.47086999999999996,0.21231
332,3.32,0.11238,-0.044433999999999994,-0.045603,0.94932,0.15245,0.27282
333,3.33,0.13052,-0.045909,-0.12935,0.92801,-0.2491,0.26708000000000004
334,3.34,0.14862,-0.074512,-0.21058000000000002,0.8111,-0.63275,0.20351
335,3.35,0.15971,-0.099757,-0.28025,0.65032,-0.9201,0.10447000000000001
336,3.36,0.13978,-0.097651,-0.32592,0.50137,-1.0371,0.046781
337,3.37,0.079033,-0.079847,-0.33365,0.41541000000000006,-0.97778,0.048662000000000004
338,3.38,0.028374,-0.06337000000000001,-0.31187,0.39534,-0.79118,0.09312899999999999
339,3.39,-0.013131,-0.043601999999999995,-0.28319,0.39058000000000004,-0.5461199999999999,0.15566
340,3.4,-0.038026,-0.024746,-0.26509,0.33451,-0.32725,0.19361
341,3.41,-0.038105,-0.023831,-0.25868,0.2035,-0.16952,0.18883
342,3.42,-0.028752999999999997,-0.041972,-0.24645999999999998,0.024208,-0.061454999999999996,0.15950999999999999
343,3.43,-0.024211,-0.066189,-0.21305,-0.16039,0.030706,0.097121
344,3.44,-0.016968,-0.085241,-0.16085,-0.31396999999999997,0.12476,0.020904
345,3.45,-0.011048,-0.091899,-0.09778099999999999,-0.4143,0.21195999999999998,-0.044535000000000005
346,3.46,-0.013597,-0.087092,-0.0314,-0.47653,0.27752,-0.08532100000000001
347,3.47,-0.020479,-0.078623,0.024537,-0.52741,0.3078,-0.10361
348,3.48,-0.029738999999999998,-0.05545,0.070749,-0.58946,0.287,-0.10475
349,3.49,-0.038611,-0.03242,0.10097,-0.66583,0.2226,-0.08341699999999999
350,3.5,-0.050388,-0.025693,0.11965,-0.7361300000000001,0.11873,-0.058804999999999996
351,3.51,-0.055005,-0.024777,0.13682,-0.78522,-0.001307,-0.035195
352,3.52,-0.07308200000000001,-0.018353,0.14595,-0.79681,-0.10885,-0.02115
353,3.53,-0.097242,-0.006207,0.15127000000000002,-0.76763,-0.19115,-0.015616999999999999
354,3.54,-0.12537,0.010125,0.15269000000000002,-0.70492,-0.2215,-0.014387
355,3.55,-0.15143,0.03719,0.15175999999999998,-0.61827,-0.19983,-0.024949000000000002
356,3.56,-0.16239,0.056511,0.149,-0.52586,-0.13981,-0.061187
357,3.57,-0.16452999999999998,0.073272,0.1375,-0.45666999999999996,-0.066788,-0.12630999999999998
358,3.58,-0.16352,0.10869000000000001,0.12007999999999999,-0.40326999999999996,0.012793,-0.22349000000000002
359,3.59,-0.15766,0.14629,0.10509,-0.35407,0.10092999999999999,-0.32069000000000003
360,3.6,-0.1589,0.14804,0.09134199999999999,-0.29455,0.17296,-0.37409000000000003
361,3.61,-0.16355999999999998,0.14593,0.07444400000000001,-0.22261999999999998,0.22353,-0.38259
362,3.62,-0.16795,0.1536,0.051882000000000005,-0.1361,0.25474,-0.35047
363,3.63,-0.18428,0.17684,0.026417000000000003,-0.029677,0.26764,-0.27453
364,3.64,-0.21694000000000002,0.19777999999999998,0.001825,0.10530999999999999,0.27388,-0.16222999999999999
365,3.65,-0.24699000000000002,0.21219000000000002,-0.009438,0.29801,0.2871,-0.05731
366,3.66,-0.26033,0.21806999999999999,-0.007287,0.54232,0.33828,0.02628
367,3.67,-0.27353,0.21220999999999998,0.012431999999999999,0.82675,0.44458000000000003,0.071416
368,3.68,-0.27956,0.20314000000000002,0.042102,1.0699,0.55343,0.046028
369,3.69,-0.26784,0.19674,0.039017,1.2,0.62384,-0.037127999999999994
370,3.7,-0.25016,0.18151,0.021159,1.2049,0.61648,-0.17587
371,3.71,-0.20822,0.13466,-0.007913,1.1002,0.48007,-0.35727
372,3.72,-0.15974000000000002,0.063816,-0.048048,0.9230799999999999,0.2345,-0.5418
373,3.73,-0.1427,0.002074,-0.072449,0.71338,-0.059859,-0.6825399999999999
374,3.74,-0.15089,-0.031472,-0.081083,0.4951,-0.32969,-0.77531
375,3.75,-0.16616,-0.038079,-0.083285,0.26826,-0.56116,-0.80198
376,3.76,-0.18503,-0.04525,-0.10171000000000001,0.003082,-0.7529399999999999,-0.77862
377,3.77,-0.19055999999999998,-0.070601,-0.14078,-0.30622,-0.84954,-0.74269
378,3.78,-0.19282,-0.09018,-0.17178,-0.61858,-0.7873399999999999,-0.69424
379,3.79,-0.20859,-0.10662,-0.17919000000000002,-0.89892,-0.5868800000000001,-0.64065
380,3.8,-0.2189,-0.12603,-0.17801,-1.1201,-0.31448000000000004,-0.56679
381,3.81,-0.22295,-0.14402,-0.16962,-1.242,-0.02159,-0.47998999999999997
382,3.82,-0.21497,-0.14461,-0.13179000000000002,-1.2295,0.24889,-0.40359
383,3.83,-0.19049000000000002,-0.1174,-0.066871,-1.0862,0.45543999999999996,-0.3482
384,3.84,-0.15100999999999998,-0.097572,0.005783,-0.87445,0.5453,-0.30956999999999996
385,3.85,-0.10082,-0.098044,0.064919,-0.67214,0.51058,-0.28461
386,3.86,-0.035568999999999996,-0.097333,0.10464000000000001,-0.51658,0.35584,-0.27339
387,3.87,0.030773000000000002,-0.10497000000000001,0.13305999999999998,-0.41735,0.10032,-0.25676
388,3.88,0.082993,-0.12287000000000001,0.14864000000000002,-0.35593,-0.20496999999999999,-0.22623000000000001
389,3.89,0.11700999999999999,-0.13567,0.16222999999999999,-0.30353,-0.54647,-0.15508
390,3.9,0.12483,-0.16351,0.16352,-0.26145999999999997,-0.8325,-0.061642999999999996
391,3.91,0.11423,-0.17867,0.16660999999999998,-0.18717999999999999,-0.9844700000000001,-0.011078
392,3.92,0.10469,-0.16064,0.18205,-0.076213,-0.98326,-0.007684999999999999
393,3.93,0.084854,-0.14662999999999998,0.19691,0.073086,-0.8715200000000001,-0.027904
394,3.94,0.068364,-0.14339000000000002,0.21905,0.23284000000000002,-0.6703100000000001,-0.07921900000000001
395,3.95,0.07069600000000001,-0.13857,0.23765999999999998,0.36111,-0.423,-0.15842
396,3.96,0.089159,-0.13452,0.2473,0.4244,-0.17514000000000002,-0.25695
397,3.97,0.11515999999999998,-0.13053,0.24841999999999997,0.41386000000000006,0.043503,-0.35982
398,3.98,0.15085,-0.12619,0.23744,0.3558,0.20284000000000002,-0.44346
399,3.99,0.18767999999999999,-0.12427,0.22141999999999998,0.28008,0.31965,-0.47796000000000005
400,4.0,0.21549000000000001,-0.12419000000000001,0.20222,0.21031999999999998,0.4161,-0.45263000000000003
401,4.01,0.23755,-0.10682,0.17065999999999998,0.16466,0.48993000000000003,-0.37811999999999996
402,4.02,0.25163,-0.076491,0.12583,0.18045999999999998,0.54082,-0.25756999999999997
403,4.03,0.2624,-0.049873,0.088145,0.28118000000000004,0.56752,-0.086654
404,4.04,0.26034,-0.034054,0.050944,0.4582,0.54668,0.11223
405,4.05,0.24386,-0.014098,0.017787,0.70968,0.48049,0.28356
406,4.06,0.247,-0.009627,-0.006143,0.98649,0.33851,0.3889
407,4.07,0.25766999999999995,-0.022598,-0.050037,1.2065,0.11395999999999999,0.4185
408,4.08,0.26074,-0.030519,-0.11058,1.31,-0.15967,0.39568000000000003
409,4.09,0.25511999999999996,-0.047031,-0.17812,1.274,-0.44275,0.32993
410,4.1,0.25229,-0.069966,-0.25461999999999996,1.1103,-0.68639,0.22866999999999998
411,4.11,0.24831999999999999,-0.081098,-0.31983,0.8769,-0.8452799999999999,0.14423
412,4.12,0.20986999999999997,-0.083978,-0.35683000000000004,0.63252,-0.8528600000000001,0.14275
413,4.13,0.15052000000000001,-0.08581799999999999,-0.36032,0.43591,-0.71491,0.20834
414,4.14,0.10034,-0.071676,-0.35048,0.27831999999999996,-0.48246999999999995,0.30266
415,4.15,0.053140999999999994,-0.047718,-0.34333,0.12641,-0.21384,0.38518
416,4.16,0.024918,-0.024746,-0.34075,-0.035056,0.028276,0.41863
417,4.17,0.014762,-0.019367,-0.33843,-0.19873,0.22571999999999998,0.39345
418,4.18,0.012813999999999999,-0.028221,-0.32189,-0.33987,0.40492,0.31176
419,4.19,0.020318,-0.031341,-0.2785,-0.4192,0.54956,0.19075999999999999
420,4.2,0.034032,-0.024469,-0.21411,-0.44676000000000005,0.62983,0.071018
421,4.21,0.045752999999999995,-0.008412000000000001,-0.14968,-0.43053,0.60634,-0.01217
422,4.22,0.057384000000000004,0.017384,-0.084018,-0.39069,0.49523,-0.050332
423,4.23,0.066664,0.041125,-0.018798,-0.34726,0.33501,-0.029693999999999998
424,4.24,0.063747,0.05628300000000001,0.03642,-0.33065,0.18349000000000001,0.035713999999999996
425,4.25,0.06306,0.07639,0.087737,-0.3481,0.056736,0.12237
426,4.26,0.0521,0.098028,0.12529,-0.38793,-0.046419999999999996,0.24095999999999998
427,4.27,0.028036000000000002,0.10012,0.14683,-0.43613,-0.1133,0.38403000000000004
428,4.28,-0.003403,0.09789099999999999,0.16477,-0.46478,-0.14305,0.52066
429,4.29,-0.035833,0.09876900000000001,0.17572000000000002,-0.46963999999999995,-0.14952000000000001,0.6306
430,4.3,-0.078388,0.10925,0.17268,-0.43238000000000004,-0.12005,0.6914600000000001
431,4.31,-0.11632,0.12844,0.17257,-0.34543,-0.057887,0.68509
432,4.32,-0.13977,0.15029,0.18325,-0.21859,0.018928,0.61793
433,4.33,-0.15472,0.17227,0.17987999999999998,-0.09828200000000001,0.060660000000000006,0.52307
434,4.34,-0.16299,0.18839,0.16458,-0.0024809999999999997,0.10685,0.43243000000000004
435,4.35,-0.16082,0.19984000000000002,0.15242,0.063552,0.1831,0.36409
436,4.36,-0.15219000000000002,0.2123,0.13138,0.0845,0.26924000000000003,0.36291
437,4.37,-0.15225999999999998,0.21988000000000002,0.089923,0.075181,0.35129,0.43746
438,4.38,-0.16706,0.22757,0.043207,0.06452000000000001,0.42372,0.5526
439,4.39,-0.18028,0.24276,0.000711,0.090193,0.49586,0.65499
440,4.4,-0.20974,0.26971,-0.02915,0.1685,0.5804199999999999,0.70621
441,4.41,-0.24683000000000002,0.29652,-0.040007,0.31878,0.67405,0.6732100000000001
442,4.42,-0.26943,0.30772,-0.032143,0.50894,0.76318,0.55384
443,4.43,-0.26966,0.30763,-0.026771,0.7054199999999999,0.81714,0.39397
444,4.44,-0.25432,0.29041999999999996,-0.007675,0.87892,0.8084,0.24911999999999998
445,4.45,-0.23076,0.24508000000000002,0.016377000000000003,0.96429,0.746,0.14477
446,4.46,-0.19291,0.19523,0.014768,0.92196,0.6100399999999999,0.070221
447,4.47,-0.1533,0.15728,-0.008195000000000001,0.77571,0.43015,0.011578
448,4.48,-0.11827,0.10303,-0.0256,0.58331,0.23143000000000002,-0.020427
449,4.49,-0.11045999999999999,0.049803,-0.033204000000000004,0.39637,0.06780800000000001,-0.023663999999999998
450,4.5,-0.11939000000000001,0.011290999999999999,-0.03166,0.23769,-0.026797,-0.018435
451,4.51,-0.13298,-0.014563,-0.028030000000000003,0.09664400000000001,-0.060786,-0.031428
452,4.52,-0.14603,-0.025095,-0.03469,-0.039974,-0.093711,-0.076438
453,4.53,-0.1518,-0.040007999999999995,-0.054451,-0.19150999999999999,-0.14779,-0.15773
454,4.54,-0.14245,-0.055032000000000005,-0.072753,-0.36967,-0.2059,-0.254
455,4.55,-0.12824000000000002,-0.074932,-0.088122,-0.58535,-0.27437,-0.33216999999999997
456,4.56,-0.11517000000000001,-0.10036,-0.11042,-0.8352299999999999,-0.32449,-0.36774
457,4.57,-0.11052999999999999,-0.11825,-0.12672,-1.0542,-0.33976999999999996,-0.33607
458,4.58,-0.11067,-0.1307,-0.11805999999999998,-1.1856,-0.29723,-0.24138
459,4.59,-0.10826,-0.12977,-0.088936,-1.2057,-0.20235,-0.11669000000000002
460,4.6,-0.096278,-0.11512,-0.044489999999999995,-1.1233,-0.091264,0.0017350000000000002
461,4.61,-0.065464,-0.10121000000000001,0.006516,-0.9767600000000001,0.00335,0.08187699999999999
462,4.62,-0.022807,-0.089158,0.050504,-0.8166,0.048868,0.13011
463,4.63,0.014280000000000001,-0.077338,0.076639,-0.6675,0.020988999999999997,0.14002
464,4.64,0.052839,-0.065912,0.08975,-0.53696,-0.08129600000000001,0.11695
465,4.65,0.094608,-0.07345,0.099812,-0.42058,-0.22926,0.076847
466,4.66,0.12307,-0.09204,0.11687,-0.31589,-0.36862,0.04205
467,4.67,0.139,-0.10799,0.13594,-0.23653000000000002,-0.46834,0.013544
468,4.68,0.15622,-0.12409,0.14469,-0.19516,-0.51235,-0.006587000000000001
469,4.69,0.1661,-0.1369,0.151,-0.17786,-0.48478999999999994,-0.009807999999999999
470,4.7,0.17658,-0.14453,0.16045,-0.16752999999999998,-0.39004,-0.002486
471,4.71,0.18634,-0.14309000000000002,0.16884000000000002,-0.15671,-0.22710999999999998,0.014324000000000002
472,4.72,0.19222999999999998,-0.13283,0.17006,-0.15515,-0.011904000000000001,0.044902
473,4.73,0.19763,-0.12028,0.16265,-0.14715999999999999,0.19580999999999998,0.059493
474,4.74,0.22039,-0.099223,0.14675,-0.10428,0.33614,0.030501
475,4.75,0.26033,-0.08759,0.13005999999999998,0.004164999999999999,0.39177,-0.017443
476,4.76,0.30525,-0.082088,0.11232,0.16734000000000002,0.36808,-0.042736
477,4.77,0.34601,-0.076641,0.08281000000000001,0.36828,0.29925999999999997,-0.010245
478,4.78,0.36955,-0.055808,0.056874,0.5775,0.24308000000000002,0.09375499999999999
479,4.79,0.371,-0.021603,0.026367,0.7599600000000001,0.21477,0.26064
480,4.8,0.36463,0.015322,-0.01703,0.91161,0.23248000000000002,0.47328000000000003
481,4.81,0.35069,0.05667899999999999,-0.048936,1.0614,0.30133000000000004,0.70611
482,4.82,0.33404,0.078136,-0.068094,1.2297,0.39989,0.92291
483,4.83,0.33155999999999997,0.080081,-0.078595,1.4173,0.4717,1.0811
484,4.84,0.34313,0.078264,-0.09109099999999999,1.5811,0.46706000000000003,1.1796
485,4.85,0.35528000000000004,0.06955800000000001,-0.11621,1.6664,0.36080999999999996,1.229
486,4.86,0.36411,0.062986,-0.1652,1.6231,0.15444000000000002,1.2293
487,4.87,0.3662,0.063553,-0.24179,1.4496,-0.09876,1.1782
488,4.88,0.35639,0.067523,-0.31292,1.2053,-0.28314,1.0981
489,4.89,0.3422,0.063275,-0.34536999999999995,0.96009,-0.30555,1.0155
490,4.9,0.32009,0.041703,-0.34219,0.73948,-0.16727999999999998,0.9711
491,4.91,0.27731999999999996,0.027306,-0.32734,0.5290600000000001,0.074201,0.97778
492,4.92,0.23190999999999998,0.029419999999999998,-0.31795999999999996,0.30146999999999996,0.31262,0.99724
493,4.93,0.19382,0.048426,-0.3241,0.039368,0.49591999999999997,1.0039
494,4.94,0.16622,0.066778,-0.33187,-0.22724,0.62708,0.97549
495,4.95,0.14624,0.06912599999999999,-0.32635,-0.46724,0.72716,0.9087200000000001
496,4.96,0.1308,0.061551,-0.31037,-0.6623,0.81945,0.80575
497,4.97,0.11697,0.05861,-0.27681999999999995,-0.78582,0.9164899999999999,0.6975600000000001
498,4.98,0.10274000000000001,0.066488,-0.22798000000000002,-0.8455,0.99913,0.60231
499,4.99,0.083357,0.081527,-0.17522000000000001,-0.85134,1.0397,0.55313
500,5.0,0.059786,0.098195,-0.12112,-0.8237,1.0288,0.5563899999999999
501,5.01,0.042923,0.10728,-0.068759,-0.76559,0.97824,0.58967
502,5.02,0.037086,0.12053,-0.015771,-0.68743,0.90828,0.63583
503,5.03,0.03282,0.13364,0.028727,-0.60961,0.8095399999999999,0.70445
504,5.04,0.019571,0.13828,0.05454199999999999,-0.53952,0.69377,0.80405
505,5.05,0.003925,0.13871,0.08061,-0.46216,0.55982,0.91009
506,5.06,-0.006241,0.13534000000000002,0.098262,-0.37961999999999996,0.40347,1.0066
507,5.07,-0.017708,0.13130999999999998,0.098899,-0.29151,0.25987,1.0796
508,5.08,-0.029910000000000003,0.13562000000000002,0.098204,-0.19111,0.16735999999999998,1.1237
509,5.09,-0.045093,0.13824,0.097118,-0.08369800000000001,0.14087,1.1506
510,5.1,-0.05975900000000001,0.14661,0.098152,0.02737,0.157,1.1582
511,5.11,-0.068923,0.16036,0.093497,0.12802,0.20092000000000002,1.1573
512,5.12,-0.074214,0.1735,0.084788,0.21803000000000003,0.24175,1.1456
513,5.13,-0.068727,0.19644,0.0745,0.30696,0.2794,1.1307
514,5.14,-0.061653999999999994,0.2191,0.064276,0.38609,0.30113,1.1276
515,5.15,-0.059194000000000004,0.24531,0.04865,0.45433999999999997,0.30695,1.1438
516,5.16,-0.045965,0.27155999999999997,0.036102999999999996,0.50042,0.33533,1.147
517,5.17,-0.02866,0.29596999999999996,0.021414,0.53181,0.39687,1.1565
518,5.18,-0.018486000000000002,0.31018,0.020871,0.52445,0.54824,1.1637
519,5.19,0.0017100000000000001,0.31821,0.018558,0.47268999999999994,0.74368,1.158
520,5.2,0.024725,0.32445,-0.0023309999999999997,0.39381,0.8828600000000001,1.1533
521,5.21,0.043424000000000004,0.29207,-0.032264999999999995,0.33141,0.9505100000000001,1.1520000000000001
522,5.22,0.059396000000000004,0.23473000000000002,-0.034087,0.31266,0.98054,1.1082
523,5.23,0.086531,0.19966,-0.031649000000000004,0.29698,0.94776,0.9897100000000001
524,5.24,0.11015,0.17478,-0.062310000000000004,0.26591,0.8320299999999999,0.83189
525,5.25,0.12135,0.14093,-0.09529299999999999,0.27729000000000004,0.70314,0.6955100000000001
526,5.26,0.1089,0.10534,-0.084004,0.36033000000000004,0.6343300000000001,0.62212
527,5.27,0.08166699999999999,0.083801,-0.055951,0.44028999999999996,0.60707,0.59135
528,5.28,0.06525299999999999,0.08076599999999999,-0.062763,0.41643,0.55825,0.59033
529,5.29,0.04836,0.067351,-0.097107,0.2578,0.48493,0.6179399999999999
530,5.3,0.037548000000000005,0.030906,-0.1432,-0.047024,0.41175,0.64956
531,5.31,0.030574,-0.002786,-0.19938,-0.45691000000000004,0.40338,0.67235
532,5.32,0.011047,-0.027137,-0.24881999999999999,-0.87554,0.49738999999999994,0.68853
533,5.33,-0.026713999999999998,-0.037364999999999995,-0.26135,-1.1814,0.69276,0.71008
534,5.34,-0.05658099999999999,-0.048358,-0.24279,-1.3336,0.90176,0.75321
535,5.35,-0.079606,-0.055203999999999996,-0.2262,-1.3221,1.0497,0.82235
536,5.36,-0.08076,-0.049537,-0.19834000000000002,-1.1578,1.0952,0.9068700000000001
537,5.37,-0.066774,-0.050868000000000003,-0.16005,-0.87803,1.0416,0.98644
538,5.38,-0.037405,-0.056945,-0.10935999999999998,-0.52964,0.8809799999999999,1.045
539,5.39,0.002467,-0.05599199999999999,-0.063411,-0.20218,0.61506,1.0652
540,5.4,0.049955,-0.04855,-0.04241,0.049235,0.28375,1.0406
541,5.41,0.10169,-0.046607,-0.023596000000000002,0.22205,-0.020250999999999998,0.9870200000000001
542,5.42,0.13994,-0.05435,0.005011,0.31256,-0.217,0.9202799999999999
543,5.43,0.17107,-0.056500999999999996,0.03266,0.31777,-0.27664,0.8499399999999999
544,5.44,0.18875,-0.053897,0.054292999999999994,0.25459,-0.20574,0.79847
545,5.45,0.1985,-0.054685000000000004,0.073496,0.15914,-0.017377,0.77022
546,5.46,0.20834,-0.052125,0.10540999999999999,0.062113999999999996,0.25516,0.7653
547,5.47,0.21628000000000003,-0.034232,0.13546,-0.018581999999999998,0.58081,0.7806
548,5.48,0.22726999999999997,-0.016048,0.16813,-0.065185,0.9083,0.80983
549,5.49,0.25076,-0.006443000000000001,0.20670999999999998,-0.069475,1.1949,0.8456100000000001
550,5.5,0.28564,0.0019210000000000002,0.23654,-0.058615,1.3824,0.8890600000000001
551,5.51,0.32629,0.015627000000000002,0.25012,-0.036164999999999996,1.4205,0.9413299999999999
552,5.52,0.36449000000000004,0.025356999999999998,0.24145,-0.015797,1.3286,0.9917
553,5.53,0.40005,0.030288,0.22074000000000002,0.010393000000000001,1.1547,1.0241
554,5.54,0.42625,0.042628,0.19694,0.048336000000000004,0.97745,1.0501
555,5.55,0.43404,0.064478,0.16255999999999998,0.08544600000000001,0.84283,1.0952
556,5.56,0.42536,0.093164,0.11365,0.11216,0.7753800000000001,1.1904
557,5.57,0.40214,0.11679,0.05584600000000001,0.14257,0.80375,1.3419
558,5.58,0.37024,0.13701,0.004523,0.20115999999999998,0.91175,1.5351
559,5.59,0.33576999999999996,0.15705,-0.041098,0.2932,1.0738,1.7377
560,5.6,0.31127,0.1677,-0.089005,0.42913,1.2366,1.9138
561,5.61,0.30213,0.17284000000000002,-0.12519,0.62148,1.3564,2.0441
562,5.62,0.30976,0.16652999999999998,-0.14631,0.8527600000000001,1.3736,2.1192
563,5.63,0.3252,0.15052000000000001,-0.16904,1.0786,1.2161,2.1487
564,5.64,0.34087,0.1353,-0.20467,1.2512,0.91206,2.1474
565,5.65,0.3629,0.11307,-0.237,1.3541,0.54788,2.1077
566,5.66,0.3907,0.078292,-0.25529,1.3817,0.23124,2.0453
567,5.67,0.41291000000000005,0.041355,-0.26194,1.3217,0.021882,1.9751
568,5.68,0.42455,0.000953,-0.27026999999999995,1.1496,-0.050177,1.9280000000000002
569,5.69,0.41607,-0.031986,-0.2873,0.8639600000000001,-0.021175,1.9189
570,5.7,0.38868,-0.047311,-0.31624,0.47752,0.088559,1.9234
571,5.71,0.35763,-0.042513999999999996,-0.34704,0.021221,0.2575,1.9106
572,5.72,0.31293000000000004,-0.015243000000000001,-0.38004,-0.45252,0.48843000000000003,1.8538
573,5.73,0.2649,0.017797,-0.40021,-0.8668100000000001,0.78499,1.7501
574,5.74,0.22234,0.047672000000000006,-0.39066999999999996,-1.1706,1.1382,1.6166
575,5.75,0.18338,0.074792,-0.35958,-1.3378,1.5019999999999998,1.4876
576,5.76,0.16146,0.10705999999999999,-0.31432,-1.3708,1.8466,1.3994
577,5.77,0.14609,0.14439000000000002,-0.25273,-1.2705,2.11,1.3895
578,5.78,0.13644,0.17720999999999998,-0.18705,-1.0862,2.2619,1.4653
579,5.79,0.13038,0.20162,-0.12561,-0.86572,2.2877,1.5852
580,5.8,0.1374,0.2175,-0.069891,-0.64267,2.2324,1.6999
581,5.81,0.15895,0.2116,-0.013874000000000001,-0.45105,2.0922,1.7752
582,5.82,0.18291,0.20895999999999998,0.013253000000000001,-0.30029,1.8874,1.8089
583,5.83,0.1873,0.21879,0.036209,-0.15094000000000002,1.6453,1.8544
584,5.84,0.17132999999999998,0.21322,0.07360900000000001,0.012962999999999999,1.3562,1.9011
585,5.85,0.16607,0.1941,0.099731,0.16789,1.0054,1.9362
586,5.86,0.14784,0.18868,0.10601,0.30578,0.6440600000000001,1.9499
587,5.87,0.12099000000000001,0.18615,0.11656,0.43482,0.36701,1.9463
588,5.88,0.09,0.17107999999999998,0.13652999999999998,0.53514,0.23619,1.9435
589,5.89,0.055041999999999994,0.16228,0.14265999999999998,0.5808800000000001,0.21663000000000002,1.9404
590,5.9,0.02673,0.16157,0.13283,0.58021,0.25715,1.9254
591,5.91,0.008202,0.1603,0.11350999999999999,0.57115,0.31584,1.9093
592,5.92,-0.012704,0.15824000000000002,0.1029,0.59518,0.37214,1.89
593,5.93,-0.025952999999999997,0.15453,0.095675,0.6543399999999999,0.41112,1.8569
594,5.94,-0.026968000000000002,0.15704,0.081592,0.73693,0.435,1.8079
595,5.95,-0.028883,0.16809000000000002,0.066707,0.83237,0.45558999999999994,1.744
596,5.96,-0.023702,0.17004,0.051448,0.9119299999999999,0.48058999999999996,1.6619
597,5.97,-0.011943,0.16043,0.032233,0.9833700000000001,0.53341,1.5424
598,5.98,0.014269,0.13764,0.023873,1.0468,0.6332,1.3982
599,5.99,0.044131000000000004,0.09610199999999999,0.023898,1.0856,0.73532,1.27
600,6.0,0.064014,0.044991,0.010103000000000001,1.0372,0.74542,1.1525
601,6.01,0.075779,0.0361,-0.036733,0.88436,0.6338600000000001,1.0212
602,6.02,0.088969,0.053471000000000005,-0.096216,0.6711,0.43968999999999997,0.89092
603,6.03,0.089634,0.04989,-0.13439,0.47392,0.26666999999999996,0.78628
604,6.04,0.076568,0.039826,-0.14013,0.3142,0.1242,0.7104699999999999
605,6.05,0.060453,0.052783000000000004,-0.15969,0.14918,-0.004378,0.6474300000000001
606,6.06,0.045614999999999996,0.057811,-0.19642,-0.011470999999999999,-0.11275,0.59397
607,6.07,0.036795999999999995,0.033055,-0.22096,-0.1842,-0.13046,0.54247
608,6.08,0.026399000000000002,0.012872999999999999,-0.23653000000000002,-0.37618,-0.031835,0.47258
609,6.09,0.021536000000000003,0.0053560000000000005,-0.24120999999999998,-0.5877899999999999,0.14049,0.39186
610,6.1,0.022837,-0.004464,-0.24111999999999997,-0.80666,0.34269,0.32066999999999996
611,6.11,0.034373,-0.008751,-0.23765999999999998,-1.0053,0.5606899999999999,0.27831
612,6.12,0.04576,0.0021149999999999997,-0.20819000000000001,-1.1348,0.7791399999999999,0.28411
613,6.13,0.059999000000000004,0.010985,-0.15475999999999998,-1.1862,0.91911,0.32966999999999996
614,6.14,0.096872,0.013472,-0.11248,-1.1866,0.9073100000000001,0.39799999999999996
615,6.15,0.15402000000000002,0.011878,-0.10287,-1.1307,0.7714,0.51149
616,6.16,0.18907000000000002,0.013106999999999999,-0.081479,-0.97503,0.59412,0.68179
617,6.17,0.20600000000000002,0.008634999999999999,-0.036581,-0.7446699999999999,0.43643999999999994,0.8778
618,6.18,0.21878000000000003,0.011065,-6.4e-05,-0.48185,0.31156999999999996,1.0322
619,6.19,0.2596,0.009618999999999999,0.022043,-0.2453,0.19657,1.1257
620,6.2,0.28669,-0.009741,0.026545,-0.051271000000000004,0.097924,1.2094
621,6.21,0.294,-0.044893999999999996,0.038318,0.12165,0.027147000000000004,1.2952
622,6.22,0.29463,-0.074554,0.062087,0.27919,0.021522,1.3585
623,6.23,0.2958,-0.088139,0.09150499999999999,0.40762,0.086504,1.3842
624,6.24,0.29986999999999997,-0.09678300000000001,0.11581,0.48328999999999994,0.19991,1.3724
625,6.25,0.30132,-0.092336,0.12567,0.49732,0.32877,1.3327
626,6.26,0.31222,-0.081569,0.13077,0.47522,0.46647,1.278
627,6.27,0.32647,-0.074702,0.14042000000000002,0.4306,0.5915699999999999,1.2265
628,6.28,0.3435,-0.069384,0.14012,0.38277,0.72414,1.1867
629,6.29,0.35896999999999996,-0.059358,0.13848,0.34443,0.8544799999999999,1.1682
630,6.3,0.36848000000000003,-0.046519,0.13076,0.30923,0.9901,1.1679
631,6.31,0.36824,-0.031457,0.1184,0.28686999999999996,1.1426,1.189
632,6.32,0.36193000000000003,-0.017048,0.1094,0.28041,1.2918,1.2228
633,6.33,0.35555,0.002046,0.088909,0.28338,1.4228,1.2653
634,6.34,0.3488,0.02588,0.06496299999999999,0.31813,1.5259,1.3132
635,6.35,0.34124,0.038592,0.047591,0.37718,1.6042,1.3644
636,6.36,0.33266999999999997,0.045686000000000004,0.022458000000000002,0.44451,1.6473,1.4125
637,6.37,0.32493,0.052767999999999995,-0.013751,0.52537,1.6540000000000001,1.4692
638,6.38,0.31543000000000004,0.050292,-0.041923,0.6188,1.6425,1.5366
639,6.39,0.30151999999999995,0.047483,-0.066085,0.71204,1.598,1.5966
640,6.4,0.28955,0.06340499999999999,-0.10724000000000002,0.78587,1.5089,1.63
641,6.41,0.28429,0.069342,-0.15384,0.8713,1.3963,1.6485
642,6.42,0.27926,0.045892,-0.18011,0.99092,1.2855,1.6574
643,6.43,0.28010999999999997,0.014212,-0.18878,1.1053,1.1706,1.6344
644,6.44,0.28965,-0.019481000000000002,-0.21713000000000002,1.1105,0.97775,1.5759999999999998
645,6.45,0.28481999999999996,-0.025818,-0.30119,0.94234,0.70325,1.4791
646,6.46,0.28984,-0.016944999999999998,-0.39593,0.6433300000000001,0.45116999999999996,1.3434
647,6.47,0.29248,-0.037141,-0.4529,0.27603,0.35733000000000004,1.2469
648,6.48,0.2393,-0.058953,-0.48078999999999994,-0.10586,0.49793999999999994,1.2438
649,6.49,0.16833,-0.04147,-0.48988999999999994,-0.44456,0.8800100000000001,1.3109
650,6.5,0.11373,0.0032869999999999996,-0.4854,-0.67766,1.4338,1.444
651,6.51,0.065955,0.044322,-0.45738999999999996,-0.76139,2.0321,1.6478
652,6.52,0.029117,0.06744700000000001,-0.39683,-0.7016600000000001,2.5694,1.8753
653,6.53,0.030992000000000002,0.07879,-0.32509,-0.52149,2.9354,2.0618
654,6.54,0.038568,0.097979,-0.23501,-0.25861,3.045,2.1528
655,6.55,0.054572,0.10538,-0.14361,0.0028469999999999997,2.9033,2.1279
656,6.56,0.066173,0.1148,-0.060589,0.20457999999999998,2.5544,1.9837
657,6.57,0.074425,0.12019,0.013322,0.30653,2.0722,1.7339
658,6.58,0.090616,0.12683,0.074384,0.30706999999999995,1.5642,1.4498
659,6.59,0.10999,0.12565,0.12513,0.20973000000000003,1.3564,1.1671
660,6.6,0.12470999999999999,0.078556,0.18661,0.24425999999999998,1.0675,1.0545
661,6.61,0.06400499999999999,0.14497000000000002,0.27093,0.055578999999999996,0.8494700000000001,1.1005
662,6.62,0.071325,0.13964000000000001,0.19027,-0.14424,0.75189,1.2177
663,6.63,0.078748,0.10864000000000001,0.25444,-0.29115,0.74231,1.3519999999999999
664,6.64,0.054225999999999996,0.11893,0.28642,-0.46738,0.79265,1.469
665,6.65,0.016998,0.12072000000000001,0.27066999999999997,-0.62495,0.8589100000000001,1.507
666,6.66,0.004539,0.09981699999999999,0.27841,-0.737,0.94516,1.4352
667,6.67,0.000587,0.052425,0.2802,-0.79777,0.9927,1.2887
668,6.68,-0.0022329999999999997,-0.008839,0.2614,-0.80681,0.9514,1.1084
669,6.69,-0.009956999999999999,-0.062386000000000004,0.23878000000000002,-0.75726,0.76576,0.93163
670,6.7,-0.013999000000000001,-0.09281299999999999,0.18575999999999998,-0.6311,0.442,0.7872600000000001
671,6.71,-0.006927,-0.10795999999999999,0.1213,-0.38576,0.11506,0.70286
672,6.72,-0.026722000000000003,-0.086212,0.08746799999999999,0.012853,-0.08959600000000001,0.6751
673,6.73,-0.067578,-0.030374,0.0768,0.5292399999999999,-0.097037,0.6664
674,6.74,-0.087365,0.027815,0.072755,1.0674,0.060538,0.63076
675,6.75,-0.08166799999999999,0.070138,0.058711,1.4708,0.29173000000000004,0.5542
676,6.76,-0.045872,0.08531699999999999,0.005943,1.6029,0.47084,0.44737
677,6.77,0.002262,0.082703,-0.0652,1.4602,0.57229,0.33594
678,6.78,0.046932,0.074314,-0.11612,1.1318,0.55483,0.26815
679,6.79,0.07178999999999999,0.045177999999999996,-0.13877,0.72132,0.44953999999999994,0.24841
680,6.8,0.075335,0.040202999999999996,-0.13209,0.3121,0.2568,0.2758
681,6.81,0.065843,0.041599000000000004,-0.12941,-0.078677,-0.001123,0.34496
682,6.82,0.040339,0.021896000000000002,-0.15309,-0.43171000000000004,-0.21459,0.40129000000000004
683,6.83,0.015972,0.010459999999999999,-0.17054,-0.6925,-0.2753,0.39561
684,6.84,-0.002729,0.005117,-0.16379000000000002,-0.8620700000000001,-0.16729000000000002,0.34175
685,6.85,-0.019775,-0.009521,-0.15419000000000002,-0.94221,0.048681999999999996,0.28253
686,6.86,-0.034925,-0.013209,-0.14029,-0.9355899999999999,0.30656,0.22338000000000002
687,6.87,-0.034019,-0.003319,-0.11548,-0.8558399999999999,0.5052300000000001,0.16766
688,6.88,-0.01178,0.0035619999999999996,-0.098848,-0.7591399999999999,0.5599,0.11863
689,6.89,0.027363,0.016619,-0.10819000000000001,-0.6699,0.48355,0.074089
690,6.9,0.080453,0.024089,-0.099271,-0.5633100000000001,0.33243,0.068136
691,6.91,0.12158,0.012641,-0.074433,-0.44786000000000004,0.12150999999999999,0.11354000000000002
692,6.92,0.15475,0.007691,-0.052334000000000006,-0.32949,-0.10226,0.1974
693,6.93,0.17865999999999999,0.001132,-0.021668,-0.1961,-0.29103,0.31858000000000003
694,6.94,0.18182,-0.00561,0.018358000000000003,-0.058088,-0.43083999999999995,0.44822
695,6.95,0.18079,-0.009238,0.05153200000000001,0.066692,-0.5055,0.5531699999999999
696,6.96,0.18281,-0.0163,0.078735,0.14749,-0.50515,0.6088100000000001
697,6.97,0.17590999999999998,-0.019615999999999998,0.094599,0.15444000000000002,-0.43914,0.60444
698,6.98,0.1709,-0.018504,0.094971,0.097216,-0.299,0.53685
699,6.99,0.17210999999999999,-0.027077999999999998,0.10432999999999999,0.016205,-0.076601,0.44986000000000004
700,7.0,0.16216,-0.045188,0.12961,-0.06017,0.19371,0.36706
701,7.01,0.15711,-0.054219,0.15342999999999998,-0.11417999999999999,0.46383,0.29177
702,7.02,0.16601,-0.050485,0.17288,-0.13685,0.66547,0.23586999999999997
703,7.03,0.18455,-0.046936,0.18531,-0.13171,0.7581600000000001,0.21116
704,7.04,0.2049,-0.04328,0.19084,-0.10402,0.7568600000000001,0.21975999999999998
705,7.05,0.22336999999999999,-0.034276999999999995,0.19238,-0.065164,0.6936399999999999,0.24341999999999997
706,7.06,0.24181999999999998,-0.027923000000000003,0.18436,-0.025456,0.6091,0.27459
707,7.07,0.24128000000000002,-0.005084,0.16213,0.009163,0.56402,0.32063
708,7.08,0.24372,0.00843,0.13514,0.054735,0.5572,0.37089
709,7.09,0.24216,0.008435,0.10966,0.13374,0.60443,0.43712
710,7.1,0.22998000000000002,0.022757,0.10644,0.22691,0.70586,0.5289
711,7.11,0.21735,0.019274,0.091116,0.31182,0.8425299999999999,0.62487
712,7.12,0.22186,0.012137,0.081263,0.38691,0.9536899999999999,0.7219399999999999
713,7.13,0.22518000000000002,-0.002721,0.070201,0.45811999999999997,0.96901,0.80102
714,7.14,0.23743000000000003,-0.013453999999999999,0.060864,0.55905,0.8061699999999999,0.84098
715,7.15,0.25037,-0.031154,0.05572100000000001,0.6940000000000001,0.47365,0.8460700000000001
716,7.16,0.25246999999999997,-0.054702999999999995,0.050338,0.8710399999999999,0.055554,0.8321700000000001
717,7.17,0.24703000000000003,-0.066091,0.051240999999999995,1.0747,-0.38404,0.78846
718,7.18,0.23665999999999998,-0.067705,0.041238,1.2546,-0.75946,0.71259
719,7.19,0.21829,-0.063561,0.008511,1.3497,-0.9370299999999999,0.60846
720,7.2,0.19207,-0.052053999999999996,-0.028216,1.3485,-0.89428,0.49523999999999996
721,7.21,0.17112,-0.045731,-0.050272000000000004,1.258,-0.65687,0.39859
722,7.22,0.17428,-0.07492599999999999,-0.056258,1.0765,-0.31856999999999996,0.3283
723,7.23,0.18835,-0.10665,-0.067239,0.79802,0.057785,0.28873000000000004
724,7.24,0.20794,-0.11639000000000001,-0.078712,0.42954,0.40821,0.28534
725,7.25,0.22759000000000001,-0.11356,-0.084967,0.008102,0.69084,0.30866
726,7.26,0.24306,-0.11034000000000001,-0.09072999999999999,-0.42698,0.88192,0.35453
727,7.27,0.24378000000000002,-0.10132000000000001,-0.10024,-0.83095,0.98001,0.43158
728,7.28,0.23139,-0.094693,-0.11057,-1.1640000000000001,1.0253,0.5312600000000001
729,7.29,0.21615,-0.092611,-0.11682000000000001,-1.3821,1.0248,0.62375
730,7.3,0.19759000000000002,-0.079135,-0.11672,-1.4811,0.9797299999999999,0.72826
731,7.31,0.15925,-0.053114999999999996,-0.11739000000000001,-1.4514,0.91009,0.85546
732,7.32,0.11865999999999999,-0.021053,-0.10425999999999999,-1.2916,0.81914,0.97331
733,7.33,0.081554,0.018394999999999998,-0.085792,-1.0483,0.72649,1.0422
734,7.34,0.053305,0.06348,-0.077346,-0.75576,0.61646,1.0322
735,7.35,0.038728,0.094654,-0.061027,-0.43655,0.48386999999999997,0.99566
736,7.36,0.022580000000000003,0.098566,-0.03863,-0.14645,0.31422,0.9569700000000001
737,7.37,0.019762000000000002,0.094627,-0.029220999999999997,0.073063,0.12384,0.9213899999999999
738,7.38,0.013671,0.097164,-0.017371,0.22635999999999998,-0.064946,0.90171
739,7.39,0.004932,0.09807,0.001382,0.31694,-0.21806,0.89146
740,7.4,0.003532,0.09464299999999999,0.02316,0.35581999999999997,-0.30361,0.8724700000000001
741,7.41,-0.001573,0.08693300000000001,0.043786,0.35609,-0.29185,0.8372200000000001
742,7.42,-0.0061,0.089292,0.069141,0.33058000000000004,-0.18609,0.77722
743,7.43,-0.004954999999999999,0.098758,0.089762,0.28115,-0.011904999999999999,0.69677
744,7.44,-0.004397,0.11043,0.10427,0.22751999999999997,0.16976,0.62164
745,7.45,-0.012188,0.11372,0.11123,0.18617999999999998,0.30761,0.57329
746,7.46,-0.019790000000000002,0.10538,0.11507,0.1645,0.38136,0.5421699999999999
747,7.47,-0.02118,0.097323,0.10478,0.14858,0.36768,0.50267
748,7.48,-0.018288,0.096816,0.072526,0.13856,0.29213,0.46863
749,7.49,-0.034424,0.098764,0.042513,0.17642,0.21511,0.45496000000000003
750,7.5,-0.06851499999999999,0.10019,0.043394999999999996,0.28284000000000004,0.17908,0.452
751,7.51,-0.094027,0.098847,0.050523,0.42685,0.17257,0.44586000000000003
752,7.52,-0.11135,0.089393,0.042466000000000004,0.5794100000000001,0.15748,0.4248
753,7.53,-0.11514,0.06525800000000001,0.028807999999999997,0.71918,0.12015999999999999,0.36534
754,7.54,-0.11273,0.021231,0.004598,0.8403200000000001,0.009491,0.28569
755,7.55,-0.11827,-0.03701,-0.042957999999999996,0.9402,-0.11055999999999999,0.17506
756,7.56,-0.12866,-0.079574,-0.077904,1.033,-0.19964,0.041953
757,7.57,-0.14966,-0.10400000000000001,-0.10225,1.1,-0.17447000000000001,-0.096737
758,7.58,-0.17762,-0.11460999999999999,-0.11157,1.1149,-0.001819,-0.23578000000000002
759,7.59,-0.19285,-0.11445,-0.10702,1.0418,0.24827,-0.3655
760,7.6,-0.18042,-0.11767999999999999,-0.11097,0.8576,0.50243,-0.46447
761,7.61,-0.15103,-0.13087000000000001,-0.11531,0.60552,0.70489,-0.51223
762,7.62,-0.11099,-0.14970999999999998,-0.10829000000000001,0.32475,0.8254799999999999,-0.5011899999999999
763,7.63,-0.067022,-0.15819,-0.093686,0.050386,0.84472,-0.43872
764,7.64,-0.039807999999999996,-0.15444000000000002,-0.08289099999999999,-0.21125,0.74765,-0.32799
765,7.65,-0.025807,-0.14506,-0.094779,-0.45468000000000003,0.54386,-0.19249000000000002
766,7.66,-0.012771,-0.13469,-0.11800000000000001,-0.63248,0.27346,-0.062103
767,7.67,0.004070000000000001,-0.13333,-0.1354,-0.70116,0.035204,0.063084
768,7.68,0.000883,-0.12555999999999998,-0.13741,-0.64408,-0.089005,0.18615
769,7.69,-0.020028999999999998,-0.099731,-0.11963,-0.48036999999999996,-0.093666,0.29852
770,7.7,-0.047424,-0.060007000000000005,-0.08959099999999999,-0.24756999999999998,-0.011492,0.38738
771,7.71,-0.066791,-0.027973,-0.052372,0.006908,0.092912,0.44527
772,7.72,-0.07102699999999999,-0.0032770000000000004,-0.011059000000000001,0.25397,0.18143,0.46796000000000004
773,7.73,-0.055408000000000006,0.008822,0.034611,0.46133,0.20959,0.43838
774,7.74,-0.025197999999999998,0.016372,0.081478,0.60334,0.1893,0.38209
775,7.75,-0.0063939999999999995,0.027622000000000004,0.12987,0.6662399999999999,0.14409,0.3193
776,7.76,0.022369,0.033561,0.17424,0.64798,0.077197,0.23506
777,7.77,0.059636,0.030382,0.20139,0.54538,0.022686,0.18268
778,7.78,0.065307,0.019674,0.22664,0.38466999999999996,0.069832,0.18018
779,7.79,0.05338300000000001,0.008926,0.26111,0.21863000000000002,0.29065,0.23928000000000002
780,7.8,0.025651999999999998,0.010946,0.30254000000000003,0.065738,0.7191,0.3482
781,7.81,-0.000797,0.021131,0.33503,-0.057683000000000005,1.24,0.47196000000000005
782,7.82,0.000633,0.028312,0.34313,-0.17908,1.7109,0.53603
783,7.83,0.017013999999999998,0.030659,0.3213,-0.28498,2.0485,0.49149
784,7.84,0.039444,0.041533999999999995,0.29815,-0.32276,2.1726,0.35136999999999996
785,7.85,0.076067,0.048062,0.27516,-0.27185,2.0349,0.19159
786,7.86,0.10272,0.054397,0.2538,-0.13359000000000001,1.6385,0.07191399999999999
787,7.87,0.15003,0.046023,0.22533000000000003,0.040356,1.083,0.030499000000000002
788,7.88,0.17687999999999998,0.046004,0.18488,0.20728000000000002,0.63936,0.078536
789,7.89,0.17804,0.070499,0.15855,0.39476,0.41497,0.20735
790,7.9,0.18283,0.072995,0.14275,0.56553,0.40485,0.39232
791,7.91,0.1802,0.07427,0.12567,0.7327899999999999,0.5013,0.59525
792,7.92,0.17457,0.074045,0.13840999999999998,0.9051600000000001,0.54871,0.77051
793,7.93,0.18919,0.053775,0.14648,0.99293,0.36888000000000004,0.85424
794,7.94,0.22354000000000002,0.016794,0.11621,0.86445,0.14835,0.80424
795,7.95,0.27458,-0.001529,0.049962,0.64484,-0.14175,0.7328600000000001
796,7.96,0.27893,-0.053787,0.019482,0.29635,-0.31455,0.5895199999999999
797,7.97,0.32345,-0.077829,-0.032772,-0.039310000000000005,-0.32979,0.47903
798,7.98,0.30549,-0.064085,-0.038404,-0.29633000000000004,-0.21147,0.42927
799,7.99,0.31308,-0.047695,-0.044509,-0.44138999999999995,-0.051533,0.46396000000000004
800,8.0,0.32361999999999996,-0.056229999999999995,-0.03904,-0.48031,0.07549600000000001,0.5565399999999999
801,8.01,0.32232,-0.06777999999999999,-0.027825,-0.46136000000000005,0.10827,0.66005
802,8.02,0.3236,-0.07078200000000001,-0.032073000000000004,-0.45461999999999997,0.053809,0.71673
803,8.03,0.33625,-0.086453,-0.056846,-0.53233,-0.059566999999999995,0.71359
804,8.04,0.33916,-0.11442999999999999,-0.10844000000000001,-0.6826800000000001,-0.20747,0.67303
805,8.05,0.32654,-0.14314000000000002,-0.15306,-0.8730100000000001,-0.32406999999999997,0.5683
806,8.06,0.31639,-0.16268,-0.17025,-1.0974,-0.35506,0.37477
807,8.07,0.28726,-0.14524,-0.1863,-1.3258,-0.35615,0.16196
808,8.08,0.23081999999999997,-0.096631,-0.17948,-1.5569,-0.28481999999999996,-0.0018780000000000001
809,8.09,0.1727,-0.061297000000000004,-0.15366,-1.7667,-0.13809000000000002,-0.077218
810,8.1,0.12036,-0.032138,-0.10765,-1.9265,0.023065000000000002,-0.076713
811,8.11,0.089865,-0.0073349999999999995,-0.08216,-2.0172,0.21977,0.028455
812,8.12,0.029285000000000002,-0.000502,-0.041223,-2.0073,0.38145,0.23206
813,8.13,-0.019941999999999998,-0.023107,-0.008698000000000001,-1.8799,0.56347,0.44117
814,8.14,-0.008989,-0.08581799999999999,0.021228,-1.6474,0.67113,0.61537
815,8.15,-0.043664999999999995,-0.10452,0.021515,-1.3904,0.70302,0.70649
816,8.16,-0.056526,-0.08756599999999999,-0.002938,-1.1226,0.55272,0.67733
817,8.17,-0.043194,-0.089388,-0.044128,-0.89764,0.17593,0.53322
818,8.18,-0.017135,-0.10336,-0.10525,-0.71049,-0.29959,0.32731
819,8.19,-0.013338,-0.084616,-0.12272000000000001,-0.50256,-0.70603,0.12878
820,8.2,-0.037968,-0.054532000000000004,-0.096813,-0.2528,-0.90402,0.002539
821,8.21,-0.081387,-0.015616999999999999,-0.061685000000000004,-9.9e-05,-0.82399,-0.049466
822,8.22,-0.10826,0.025102,-0.035305,0.2486,-0.54686,-0.049523000000000005
823,8.23,-0.11316,0.052273,-0.0148,0.47433000000000003,-0.17687,-0.007088
824,8.24,-0.10975,0.06701599999999999,0.0031030000000000003,0.6623899999999999,0.17422,0.06947
825,8.25,-0.10217999999999999,0.078859,0.013399000000000001,0.7886,0.40645,0.16535
826,8.26,-0.09449500000000001,0.088814,-0.003973,0.83026,0.46143,0.24431
827,8.27,-0.076163,0.10245,-0.047258999999999995,0.81994,0.39435,0.2807
828,8.28,-0.071763,0.12174000000000001,-0.07215099999999999,0.8360200000000001,0.28231,0.29907
829,8.29,-0.083726,0.12525,-0.070475,0.9088200000000001,0.18473,0.30791
830,8.3,-0.098094,0.12322000000000001,-0.062854,1.0364,0.12295,0.30077
831,8.31,-0.10733,0.13912,-0.06112000000000001,1.1942,0.08970800000000001,0.27228
832,8.32,-0.10733,0.13912,-0.06112000000000001,1.1942,0.08970800000000001,0.27228
833,8.33,-0.11309000000000001,0.15089,-0.08860499999999999,1.413,0.03368,0.15855
834,8.34,-0.10979000000000001,0.15292999999999998,-0.068337,1.3318,0.056659,0.22348
835,8.35,-0.11437,0.1311,-0.12053,1.3253,0.04307,0.017482
836,8.36,-0.10853,0.10223,-0.12947999999999998,1.137,0.079847,-0.038416000000000006
837,8.37,-0.10538,0.089214,-0.12836,0.8738799999999999,0.11934000000000002,-0.065626
838,8.38,-0.10162,0.073033,-0.11843,0.5583100000000001,0.14751,-0.068357
839,8.39,-0.092817,0.042102999999999995,-0.11012999999999999,0.20611999999999997,0.14294,-0.056151
840,8.4,-0.077785,0.011281,-0.11127000000000001,-0.14602,0.14583,-0.041822000000000005
841,8.41,-0.060695000000000006,-0.008719,-0.09912699999999999,-0.44975,0.18775999999999998,-0.045625
842,8.42,-0.040999,-0.014016999999999998,-0.087436,-0.67976,0.23655,-0.054648
843,8.43,-0.028268,-0.023391,-0.077086,-0.8044600000000001,0.25888,-0.046363999999999995
844,8.44,-0.017652,-0.043123,-0.058122,-0.81005,0.25461,0.0006
845,8.45,-0.005821,-0.062426999999999996,-0.028697000000000004,-0.6945,0.21520999999999998,0.086262
846,8.46,0.009537,-0.073777,0.007409000000000001,-0.48328999999999994,0.13984000000000002,0.18603
847,8.47,0.018973,-0.057732000000000006,0.044051,-0.21802,0.013954,0.27744
848,8.48,0.032543,-0.04004,0.07081599999999999,0.058047,-0.11944,0.33259
849,8.49,0.050018,-0.025611000000000002,0.097885,0.30226,-0.25149,0.35886
850,8.5,0.056405,-0.017871,0.12532000000000001,0.48701000000000005,-0.35851,0.36791
851,8.51,0.064714,-0.014193,0.15224000000000001,0.5675600000000001,-0.44227,0.34151
852,8.52,0.07985700000000001,-0.0037020000000000004,0.15880999999999998,0.52892,-0.50369,0.28712
853,8.53,0.098412,-0.017011000000000002,0.15675,0.40192,-0.54627,0.22613000000000003
854,8.54,0.10562,-0.041054,0.15728,0.2304,-0.55971,0.15434
855,8.55,0.10494,-0.059609,0.17009000000000002,0.07881200000000001,-0.49017,0.067496
856,8.56,0.090661,-0.046981,0.20463,-0.000781,-0.3541,-0.012936000000000001
857,8.57,0.072397,-0.009535,0.23765999999999998,-0.005261999999999999,-0.14728,-0.066679
858,8.58,0.07304400000000001,0.015806999999999998,0.26832,0.064774,0.061019000000000004,-0.08507100000000001
859,8.59,0.084216,0.037709,0.29034,0.18575999999999998,0.2497,-0.081992
860,8.6,0.10705,0.063636,0.29491,0.31171,0.39250999999999997,-0.078824
861,8.61,0.14272,0.078377,0.28115,0.41575,0.46837,-0.065968
862,8.62,0.17976,0.089817,0.26149,0.46502,0.5020399999999999,-0.048863
863,8.63,0.20781,0.10053,0.23558,0.47502,0.46565,0.025936
864,8.64,0.2149,0.098971,0.20770999999999998,0.4414,0.47326,0.14540999999999998
865,8.65,0.23995999999999998,0.077123,0.18268,0.39715,0.49906000000000006,0.28831999999999997
866,8.66,0.25876,0.078402,0.14485,0.35289,0.52165,0.4291
867,8.67,0.27185,0.08102899999999999,0.10328,0.32766,0.51639,0.55929
868,8.68,0.28091,0.09375800000000001,0.069912,0.37708,0.50945,0.69388
869,8.69,0.28499,0.10121000000000001,0.05733200000000001,0.5193800000000001,0.51559,0.8392799999999999
870,8.7,0.2809,0.091874,0.054273,0.71038,0.47444,0.9837899999999999
871,8.71,0.27063000000000004,0.082059,0.027856,0.86175,0.39741,1.1027
872,8.72,0.27899999999999997,0.042525,-0.025763,0.93096,0.28064,1.1564
873,8.73,0.29085,0.0027129999999999997,-0.07728099999999999,0.92,0.10066,1.1385
874,8.74,0.29184,-0.010598999999999999,-0.11699999999999999,0.7672899999999999,0.030602999999999998,1.0573
875,8.75,0.29408,0.0023239999999999997,-0.16005,0.5932,-0.009491,1.0282
876,8.76,0.24928000000000003,-0.017136000000000002,-0.14873,0.37371,0.039184,1.0459
877,8.77,0.24454,-0.047586,-0.16627,0.12469000000000001,0.12966,1.0624
878,8.78,0.24269000000000002,-0.043669,-0.1812,-0.15506,0.24065,1.0681
879,8.79,0.22273,-0.05078,-0.18155,-0.48594,0.36272,1.0758
880,8.8,0.20034000000000002,-0.057187,-0.20122,-0.8928,0.45664,1.0803
881,8.81,0.15446,-0.041218,-0.23970999999999998,-1.3399,0.5754199999999999,1.0719
882,8.82,0.08345599999999999,-0.027591,-0.25865,-1.7380000000000002,0.78017,0.99715
883,8.83,0.024696,0.0039310000000000005,-0.24686999999999998,-2.0324,1.1035,0.8498399999999999
884,8.84,-0.00436,0.03872,-0.20519,-2.1675,1.4713,0.71233
885,8.85,-0.033667,0.05191799999999999,-0.1267,-2.1984,1.8339,0.64439
886,8.86,-0.043489,0.048861,-0.048362999999999996,-2.1731,2.0618,0.65897
887,8.87,-0.015513999999999998,0.030610000000000002,0.007905,-2.1795,2.0959,0.7069300000000001
888,8.88,0.033476,-0.011198,0.031062,-2.1908,1.9094,0.75421
889,8.89,0.055991,-0.059115,0.059858,-2.1686,1.5234,0.8061699999999999
890,8.9,0.050998,-0.10712999999999999,0.086102,-2.0954,1.0785,0.8252200000000001
891,8.91,0.040707,-0.13064,0.10475999999999999,-1.9483,0.6318699999999999,0.78677
892,8.92,0.013591999999999998,-0.12555999999999998,0.11158,-1.7656,0.22019,0.71096
893,8.93,-0.023448,-0.10835,0.09638,-1.5661,-0.13084,0.58597
894,8.94,-0.036217,-0.084358,0.067139,-1.3348,-0.38406999999999997,0.43738
895,8.95,-0.054417999999999994,-0.063055,0.050628,-1.0705,-0.49906999999999996,0.30995
896,8.96,-0.07624299999999999,-0.039213,0.040513,-0.7594,-0.46958,0.23359000000000002
897,8.97,-0.09162200000000001,-0.00866,0.036926,-0.39645,-0.31273,0.23287
898,8.98,-0.10185,0.035688,0.044349,0.012913999999999998,-0.058276,0.27903
899,8.99,-0.086851,0.066104,0.060851999999999996,0.44205,0.1491,0.35306
900,9.0,-0.08014199999999999,0.069523,0.059124,0.8198,0.21728000000000003,0.4518
901,9.01,-0.07635700000000001,0.076111,0.035528,1.125,0.14329,0.5314399999999999
902,9.02,-0.063574,0.091304,0.01889,1.354,-0.005716,0.59828
903,9.03,-0.074635,0.1092,0.009814,1.5061,-0.16577999999999998,0.63726
904,9.04,-0.078874,0.13398,-0.000755,1.5939,-0.28156,0.60345
905,9.05,-0.068763,0.14811,-0.001678,1.6414,-0.28291,0.5021399999999999
906,9.06,-0.063959,0.14160999999999999,0.013522,1.6751,-0.16687000000000002,0.34722
907,9.07,-0.047807999999999996,0.14385,0.026202999999999997,1.6826,-0.001584,0.16975
908,9.08,-0.019163,0.13126,0.019727,1.5936,0.12822,0.041277999999999995
909,9.09,-0.014661000000000002,0.095169,-0.029708,1.3492,0.085525,-0.0049689999999999995
910,9.1,-0.030056,0.087882,-0.1306,0.95185,-0.11152000000000001,-0.023455
911,9.11,-0.052324,0.094248,-0.22813000000000003,0.49349,-0.34108,-0.049462
912,9.12,-0.09032899999999999,0.1111,-0.27205999999999997,0.08218500000000001,-0.43568,-0.09483899999999999
913,9.13,-0.13138,0.12430999999999999,-0.26104,-0.23295,-0.37337,-0.13179000000000002
914,9.14,-0.15405,0.10812000000000001,-0.23817,-0.4395,-0.20115999999999998,-0.15486
915,9.15,-0.16043,0.08115599999999999,-0.21040999999999999,-0.5518,0.036325,-0.14800000000000002
916,9.16,-0.16378,0.063305,-0.17614000000000002,-0.58922,0.3126,-0.12294000000000001
917,9.17,-0.14134000000000002,0.029207999999999998,-0.13667,-0.59129,0.60669,-0.091441
918,9.18,-0.10121000000000001,-0.0142,-0.09081900000000001,-0.57252,0.83242,-0.069391
919,9.19,-0.043209,-0.038971,-0.051461,-0.56893,0.88141,-0.069471
920,9.2,0.032619999999999996,-0.057041999999999995,-0.029412999999999998,-0.59129,0.74522,-0.086349
921,9.21,0.10697000000000001,-0.07384600000000001,-0.010579,-0.61153,0.48644,-0.078456
922,9.22,0.15034,-0.082582,0.013930000000000001,-0.59943,0.17829,0.002166
923,9.23,0.17504,-0.088349,0.043210000000000005,-0.5223,-0.097416,0.14048
924,9.24,0.18661,-0.090876,0.07535499999999999,-0.38279,-0.28948,0.31078
925,9.25,0.18542,-0.087574,0.1053,-0.20278,-0.35827,0.47558999999999996
926,9.26,0.18609,-0.082342,0.13559000000000002,-0.031132,-0.30545,0.58467
927,9.27,0.19327,-0.073989,0.15189,0.076265,-0.20087,0.61136
928,9.28,0.21291999999999997,-0.056527,0.14712999999999998,0.10307999999999999,-0.091266,0.5471699999999999
929,9.29,0.24261999999999997,-0.042589999999999996,0.14234000000000002,0.073249,-0.013130000000000001,0.44877
930,9.3,0.25798000000000004,-0.04754,0.14374,0.021647,0.032121,0.38349
931,9.31,0.25524,-0.060765,0.1523,-0.008978,0.059034,0.36311
932,9.32,0.25337,-0.067682,0.16851,0.014561000000000001,0.074807,0.377
933,9.33,0.25326,-0.067512,0.18994,0.10955999999999999,0.10489000000000001,0.41768
934,9.34,0.24140999999999999,-0.064425,0.22041,0.2634,0.17068,0.48186999999999997
935,9.35,0.23025,-0.052773,0.2414,0.42935,0.27688,0.53854
936,9.36,0.23213000000000003,-0.041760000000000005,0.24384,0.5646399999999999,0.40893,0.57804
937,9.37,0.25198000000000004,-0.033512,0.23335,0.65096,0.54033,0.5950300000000001
938,9.38,0.2733,-0.02172,0.21336,0.6904399999999999,0.66364,0.5767399999999999
939,9.39,0.29725,-0.006968000000000001,0.19252,0.6904,0.76172,0.52853
940,9.4,0.32661999999999997,-0.00658,0.16652999999999998,0.64313,0.8261,0.48244
941,9.41,0.34536999999999995,-0.014678,0.13092,0.56338,0.8544700000000001,0.47371
942,9.42,0.34592,-0.018994999999999998,0.09109600000000001,0.46948999999999996,0.8850299999999999,0.52046
943,9.43,0.33931,-0.01814,0.052577,0.41283000000000003,0.93016,0.61528
944,9.44,0.32899999999999996,-0.012323,0.020628999999999998,0.41457,0.9726,0.76678
945,9.45,0.31856,-0.006904,-0.022956,0.48218,0.9985,0.9429799999999999
946,9.46,0.3201,-0.01525,-0.067202,0.62221,0.99931,1.1044
947,9.47,0.31859,-0.032735,-0.1149,0.79303,0.94665,1.2126
948,9.48,0.30282,-0.027832,-0.17715999999999998,0.92416,0.8198,1.2419
949,9.49,0.29548,-0.020021,-0.25675,0.98616,0.66909,1.1909999999999998
950,9.5,0.29568,-0.023611,-0.31099,0.99744,0.55082,1.0952
951,9.51,0.2884,-0.024197,-0.33554,0.9556600000000001,0.47347,1.0034
952,9.52,0.27429000000000003,-0.041908999999999995,-0.34857,0.85541,0.44983,0.9563299999999999
953,9.53,0.25782,-0.068837,-0.34465999999999997,0.68694,0.45761999999999997,0.9474799999999999
954,9.54,0.24319000000000002,-0.080013,-0.34145,0.44597,0.48197,0.9577
955,9.55,0.22286999999999998,-0.08781599999999999,-0.33681,0.13468,0.51543,0.9603
956,9.56,0.22286999999999998,-0.08781599999999999,-0.33681,0.13468,0.51543,0.9603
957,9.57,0.19789,-0.08106100000000001,-0.33696,-0.2244,0.55785,0.92865
958,9.58,0.17535,-0.071507,-0.33732,-0.59044,0.6451100000000001,0.8702200000000001
959,9.59,0.14819000000000002,-0.063202,-0.31565,-0.91007,0.78742,0.7947
960,9.6,0.11805999999999998,-0.04494,-0.27571999999999997,-1.1281,0.9597899999999999,0.71396
961,9.61,0.091696,-0.014582,-0.21793,-1.2311,1.1131,0.6452
962,9.62,0.07122300000000001,0.020671000000000002,-0.15348,-1.2313,1.1952,0.6087600000000001
963,9.63,0.052319000000000004,0.056348,-0.08920499999999999,-1.1578,1.1797,0.61105
964,9.64,0.039952999999999995,0.086748,-0.029573000000000002,-1.0363,1.0539,0.64457
965,9.65,0.027723,0.11592999999999999,0.020842,-0.9006799999999999,0.8385799999999999,0.70496
966,9.66,0.0316,0.13552,0.049675,-0.78373,0.54985,0.75371
967,9.67,0.042896,0.13974,0.060751,-0.70316,0.23800000000000002,0.78535
968,9.68,0.030083,0.1594,0.069844,-0.66167,-0.030889999999999997,0.80618
969,9.69,0.003848,0.18406,0.079466,-0.63627,-0.17392,0.83316
970,9.7,-0.036462,0.19635,0.10372,-0.59924,-0.18599000000000002,0.8759399999999999
971,9.71,-0.079461,0.20435999999999999,0.12737,-0.54645,-0.08951100000000001,0.92924
972,9.72,-0.11523,0.22325,0.14399,-0.47602,0.083539,0.9898899999999999
973,9.73,-0.12797999999999998,0.23404,0.15304,-0.38101,0.25639,1.0421
974,9.74,-0.12458,0.23451,0.16122999999999998,-0.26815,0.3833,1.0794
975,9.75,-0.12390999999999999,0.23012,0.168,-0.1587,0.47297,1.0933
976,9.76,-0.13549,0.22511,0.17372,-0.064288,0.52017,1.0646
977,9.77,-0.14301,0.23237,0.16744,0.018068999999999998,0.5025,0.9996200000000001
978,9.78,-0.13977,0.2335,0.16076,0.12343,0.42712,0.9316200000000001
979,9.79,-0.1342,0.22303,0.16284,0.24844000000000002,0.29505,0.90005
980,9.8,-0.13709000000000002,0.20247,0.15312,0.38071,0.16076,0.90371
981,9.81,-0.13659000000000002,0.19326,0.13763,0.51757,0.064791,0.9051899999999999
982,9.82,-0.13203,0.18909,0.12484,0.6603,0.026333999999999996,0.8916299999999999
983,9.83,-0.12919,0.17982,0.10585,0.78418,0.026399000000000002,0.87049
984,9.84,-0.13061,0.15037999999999999,0.07059299999999999,0.8785700000000001,0.073599,0.8460200000000001
985,9.85,-0.13560999999999998,0.10916,0.034436,0.9308700000000001,0.17659,0.79043
986,9.86,-0.1223,0.07142899999999999,-0.0047799999999999995,0.9248,0.29183000000000003,0.69308
987,9.87,-0.10117999999999999,0.032438999999999996,-0.054095000000000004,0.86705,0.33079000000000003,0.56909
988,9.88,-0.07471,0.009236,-0.11127000000000001,0.78583,0.23037,0.43463999999999997
989,9.89,-0.042793,-0.007169,-0.15454,0.70875,-0.007572,0.32071
990,9.9,-0.031807999999999996,-0.039619,-0.19251,0.64031,-0.32663000000000003,0.26885
991,9.91,-0.05411799999999999,-0.055575,-0.21938000000000002,0.59592,-0.67472,0.26939
992,9.92,-0.085104,-0.062583,-0.23855,0.5561699999999999,-0.9663799999999999,0.28478000000000003
993,9.93,-0.12427,-0.086,-0.25395,0.48228000000000004,-1.1192,0.30946999999999997
994,9.94,-0.17877,-0.10684,-0.26513000000000003,0.3257,-1.0839,0.31340999999999997
995,9.95,-0.23169,-0.11070999999999999,-0.27354,0.085325,-0.8708600000000001,0.28593
996,9.96,-0.25951,-0.11732999999999999,-0.26211999999999996,-0.19554000000000002,-0.5456,0.21655
997,9.97,-0.26461999999999997,-0.11299000000000001,-0.23358,-0.46889,-0.22146,0.14079
998,9.98,-0.24799000000000002,-0.10167999999999999,-0.20035,-0.68975,0.008456,0.081295
999,9.99,-0.20295,-0.10647000000000001,-0.15327000000000002,-0.81587,0.10222,0.061699000000000004
1000,10.0,-0.1503,-0.11458,-0.09496900000000001,-0.8407100000000001,0.075766,0.080916
1001,10.01,-0.10365999999999999,-0.12315999999999999,-0.0343,-0.77668,-0.023913999999999998,0.13137000000000001
1002,10.02,-0.050881,-0.13142,0.023081,-0.65212,-0.16245,0.17773
1003,10.03,0.014075,-0.13677999999999998,0.069797,-0.49135,-0.32364,0.20177
1004,10.04,0.073943,-0.1318,0.1098,-0.308,-0.48496999999999996,0.18957000000000002
1005,10.05,0.1433,-0.11825,0.14499,-0.12752,-0.61749,0.15596
1006,10.06,0.19212,-0.10835999999999998,0.17315,0.010511,-0.706,0.14887999999999998
1007,10.07,0.21519000000000002,-0.11055,0.18746,0.084071,-0.7055600000000001,0.16288
1008,10.08,0.2357,-0.1063,0.20075,0.10951,-0.58537,0.17446
1009,10.09,0.25537,-0.092422,0.23004000000000002,0.11432,-0.37444,0.19330999999999998
1010,10.1,0.27192,-0.087859,0.25819000000000003,0.094908,-0.11112000000000001,0.22803
1011,10.11,0.28562,-0.091038,0.27560999999999997,0.044487,0.15458,0.27978000000000003
1012,10.12,0.30105,-0.09021599999999999,0.27826,-0.022073,0.39271999999999996,0.31554
1013,10.13,0.32478,-0.085975,0.27347,-0.082327,0.5999399999999999,0.3204
1014,10.14,0.34276,-0.073806,0.27237,-0.1076,0.7621399999999999,0.29979
1015,10.15,0.35241,-0.057919000000000005,0.26605999999999996,-0.088487,0.86325,0.26549
1016,10.16,0.36383000000000004,-0.030536,0.2552,-0.010136,0.90207,0.2346
1017,10.17,0.37483,3.5e-05,0.24923,0.1382,0.8955299999999999,0.21886
1018,10.18,0.39207,0.021004,0.24516,0.33853,0.8746799999999999,0.23526
1019,10.19,0.40875,0.029675999999999998,0.23146999999999998,0.54596,0.8324299999999999,0.29225999999999996
1020,10.2,0.41796000000000005,0.048058,0.19204000000000002,0.70504,0.76177,0.37058
1021,10.21,0.42933000000000004,0.076441,0.12563,0.82032,0.69997,0.47763
1022,10.22,0.42263,0.09427200000000001,0.069237,0.92106,0.70965,0.61762
1023,10.23,0.39808000000000004,0.10273,0.034996,1.0201,0.78327,0.76603
1024,10.24,0.38976,0.090187,-0.001609,1.1012,0.86346,0.8919799999999999
1025,10.25,0.40379,0.053649,-0.047567,1.1514,0.92263,0.9752200000000001
1026,10.26,0.42552,0.014702000000000002,-0.08408099999999999,1.1727,0.92775,1.0062
1027,10.27,0.44866999999999996,-0.023494,-0.12503,1.1314,0.8279299999999999,0.9967
1028,10.28,0.45655,-0.044748,-0.19022,1.0074,0.63081,0.9456
1029,10.29,0.4616,-0.052153,-0.25506999999999996,0.8416600000000001,0.42018999999999995,0.8837700000000001
1030,10.3,0.45637,-0.07020900000000001,-0.29528000000000004,0.6574800000000001,0.31518,0.8494799999999999
1031,10.31,0.42833000000000004,-0.095054,-0.30971,0.47213,0.36144,0.8650899999999999
1032,10.32,0.39341,-0.11072,-0.31899,0.2543,0.49851999999999996,0.9061
1033,10.33,0.35971,-0.12455999999999999,-0.34393,0.001726,0.6945100000000001,0.94268
1034,10.34,0.32794,-0.12857000000000002,-0.35951,-0.26327,0.92471,0.96209
1035,10.35,0.29546,-0.11987,-0.36512,-0.53779,1.1539,0.96655
1036,10.36,0.26723,-0.10106,-0.37768,-0.8201,1.331,0.9497399999999999
1037,10.37,0.24991999999999998,-0.08694,-0.38744,-1.0738,1.4589,0.90104
1038,10.38,0.23618000000000003,-0.073763,-0.37859,-1.2329,1.5402,0.83124
1039,10.39,0.21906,-0.051561,-0.33665,-1.2599,1.5768,0.75321
1040,10.4,0.20106,-0.013149000000000001,-0.2748,-1.1649,1.5473,0.68938
1041,10.41,0.17912,0.032933,-0.21399,-0.9967799999999999,1.4628,0.64712
1042,10.42,0.16137,0.070824,-0.15858,-0.81077,1.3643,0.63054
1043,10.43,0.14753,0.091682,-0.11022,-0.6672,1.3067,0.6362300000000001
1044,10.44,0.13369,0.11059000000000001,-0.066317,-0.57471,1.2867,0.66951
1045,10.45,0.12741,0.1262,-0.02281,-0.5260600000000001,1.2830000000000001,0.74752
1046,10.46,0.11485999999999999,0.12232,0.020878,-0.499,1.2646,0.85434
1047,10.47,0.098929,0.12182,0.057148000000000004,-0.47848999999999997,1.2217,0.95052
1048,10.48,0.079316,0.13253,0.092418,-0.44742,1.1436,1.0126
1049,10.49,0.05789,0.14505,0.12334,-0.39533,0.99605,1.0322
1050,10.5,0.035766,0.16180999999999998,0.1374,-0.32095,0.80686,1.0049
1051,10.51,0.024138999999999997,0.18216,0.14734,-0.22314,0.59618,0.9520700000000001
1052,10.52,0.009892,0.19815,0.15306,-0.09955900000000001,0.40554,0.8971100000000001
1053,10.53,-0.000453,0.20774,0.15225999999999998,0.016949000000000002,0.26824000000000003,0.84952
1054,10.54,-0.010175,0.21974000000000002,0.14147,0.098662,0.19513,0.8209799999999999
1055,10.55,-0.030895,0.23337,0.11494000000000001,0.1347,0.16288,0.8146899999999999
1056,10.56,-0.060134,0.24059,0.073822,0.13559000000000002,0.14368,0.81899
1057,10.57,-0.085882,0.25603000000000004,0.024427,0.13988,0.1362,0.80407
1058,10.58,-0.1157,0.28209,-0.009608,0.19463,0.15604,0.76784
1059,10.59,-0.14922,0.30975,-0.02465,0.33182,0.20611,0.71996
1060,10.6,-0.17102,0.32726,-0.02369,0.56497,0.2458,0.6722600000000001
1061,10.61,-0.17718,0.32823,-0.011161,0.8839,0.22080999999999998,0.65257
1062,10.62,-0.16908,0.32282,0.000538,1.2378,0.044201,0.65456
1063,10.63,-0.13601,0.31290999999999997,-0.00299,1.5776,-0.30064,0.63975
1064,10.64,-0.090284,0.29224,-0.012819,1.8549,-0.74936,0.58872
1065,10.65,-0.055930999999999995,0.27253,-0.028683999999999998,2.0208,-1.2579,0.51305
1066,10.66,-0.046867,0.26179,-0.06737699999999999,2.0335,-1.7119,0.45196000000000003
1067,10.67,-0.060363,0.23055,-0.1006,1.8919,-1.9558,0.4276
1068,10.68,-0.10228,0.19927999999999998,-0.10504000000000001,1.6179,-1.9247,0.44308000000000003
1069,10.69,-0.16135,0.18799000000000002,-0.10419,1.2127,-1.5932,0.48341999999999996
1070,10.7,-0.21249,0.17021,-0.098115,0.71967,-1.05,0.52537
1071,10.71,-0.25085999999999997,0.15063,-0.088835,0.16344,-0.40399,0.5606300000000001
1072,10.72,-0.26506,0.11810999999999999,-0.075197,-0.41633000000000003,0.20605,0.55214
1073,10.73,-0.2308,0.081959,-0.071271,-0.98611,0.6945899999999999,0.48945
1074,10.74,-0.17176,0.046174,-0.062469000000000004,-1.4769999999999999,1.0259,0.40263000000000004
1075,10.75,-0.10647999999999999,-0.00078,-0.041316000000000005,-1.8467,1.1878,0.32485
1076,10.76,-0.039652999999999994,-0.042374,-0.024013,-2.0847,1.1503,0.28501
1077,10.77,0.01987,-0.066582,-0.023608,-2.1785,0.9091899999999999,0.30768
1078,10.78,0.066222,-0.09381,-0.02932,-2.1307,0.54001,0.39595
1079,10.79,0.091875,-0.11596,-0.035539,-1.9628,0.13676,0.52717
1080,10.8,0.10288,-0.1171,-0.040234,-1.7059,-0.2118,0.65525
1081,10.81,0.11385999999999999,-0.11485,-0.048411,-1.4052,-0.45625,0.73306
1082,10.82,0.1272,-0.10908,-0.057961,-1.1051,-0.56208,0.72843
1083,10.83,0.14558,-0.092936,-0.057861,-0.8355100000000001,-0.5162800000000001,0.65623
1084,10.84,0.17285999999999999,-0.089549,-0.051799,-0.64173,-0.36325999999999997,0.55489
1085,10.85,0.20981,-0.10307000000000001,-0.051026,-0.54902,-0.16147,0.47036999999999995
1086,10.86,0.25365,-0.12884,-0.043588999999999996,-0.53967,0.050548,0.43159
1087,10.87,0.29288000000000003,-0.15845,-0.028392,-0.59042,0.25128,0.44822
1088,10.88,0.32272,-0.17527,-0.00913,-0.6459600000000001,0.41365,0.50655
1089,10.89,0.34742,-0.17829,0.016928,-0.6614899999999999,0.5309,0.59705
1090,10.9,0.35544000000000003,-0.17902,0.048119999999999996,-0.6016699999999999,0.6134,0.71655
1091,10.91,0.35073000000000004,-0.18020999999999998,0.086149,-0.45126000000000005,0.6845,0.8351700000000001
1092,10.92,0.35086999999999996,-0.17281,0.12418,-0.24216,0.73278,0.9155
1093,10.93,0.3581,-0.15905,0.14722000000000002,-0.014803,0.75753,0.93506
1094,10.94,0.37181,-0.14786,0.15855999999999998,0.20328,0.78774,0.8980299999999999
1095,10.95,0.3873,-0.14155,0.17085999999999998,0.38294,0.8001699999999999,0.83641
1096,10.96,0.4035,-0.13068,0.16034,0.49423999999999996,0.80571,0.77789
1097,10.97,0.41465,-0.10815,0.14065999999999998,0.55429,0.82549,0.74807
1098,10.98,0.41917,-0.081706,0.12525999999999998,0.5854,0.86144,0.77261
1099,10.99,0.42011000000000004,-0.058444,0.10008,0.59916,0.91556,0.87928
1100,11.0,0.41401000000000004,-0.041024,0.063924,0.6098399999999999,1.0197,1.0446
1101,11.01,0.3995,-0.015762,0.031484,0.65498,1.1843,1.245
1102,11.02,0.3803,0.015350999999999998,0.008998,0.75042,1.3698,1.4445
1103,11.03,0.37462,0.025412999999999998,-0.012645,0.88939,1.4932,1.5907
1104,11.04,0.395,0.030393,-0.056061,1.0382,1.4663,1.6625
1105,11.05,0.41203,0.036795,-0.11679,1.1753,1.2808,1.6769999999999998
1106,11.06,0.42118999999999995,0.036495,-0.17837,1.2649,0.9796299999999999,1.6275
1107,11.07,0.44093000000000004,0.036262,-0.25540999999999997,1.2799,0.65353,1.5342
1108,11.08,0.45638999999999996,0.030302,-0.32948,1.2368,0.41421,1.4481
1109,11.09,0.45328999999999997,0.013902000000000001,-0.37361,1.151,0.34676,1.4181
1110,11.1,0.44177,-0.004886,-0.39605999999999997,1.015,0.43522,1.4476
1111,11.11,0.42463,-0.018326,-0.41956000000000004,0.7941600000000001,0.6106600000000001,1.5142
1112,11.12,0.41168999999999994,-0.022563999999999997,-0.44536000000000003,0.47308,0.79545,1.5838
1113,11.13,0.39235,-0.015258,-0.47618,0.051348000000000005,0.9395100000000001,1.6586
1114,11.14,0.34755,0.0076939999999999995,-0.50568,-0.42599,1.0574,1.7162
1115,11.15,0.30377,0.041852999999999994,-0.51427,-0.87835,1.1954,1.7184
1116,11.16,0.26658000000000004,0.084048,-0.49599,-1.2182,1.3815,1.6919
1117,11.17,0.22135,0.12139000000000001,-0.45438999999999996,-1.4095,1.5856,1.6538
1118,11.18,0.18857000000000002,0.16085,-0.40843,-1.4493,1.7905,1.6235
1119,11.19,0.17168,0.20431,-0.35217,-1.3403,1.9452,1.6288
1120,11.2,0.15436,0.23234000000000002,-0.28503,-1.12,2.035,1.6802
1121,11.21,0.13948,0.25089,-0.20986999999999997,-0.8271799999999999,2.0271,1.7715
1122,11.22,0.1292,0.27547,-0.14178,-0.52889,1.8903,1.8587
1123,11.23,0.13162000000000001,0.28936,-0.089494,-0.26652,1.6505,1.9225
1124,11.24,0.12818,0.2884,-0.044497,-0.058793,1.3632,1.9554
1125,11.25,0.10727,0.28215999999999997,-0.00198,0.07063,1.1383,1.9592
1126,11.26,0.07182100000000001,0.26507,0.044384,0.13063,1.0249,1.9403
1127,11.27,0.03273,0.24691,0.092738,0.12516,0.9951,1.9222
1128,11.28,-0.003249,0.22989,0.12645,0.063334,0.9935,1.9083
1129,11.29,-0.026632,0.21431,0.14365,-0.022158,0.9750200000000001,1.9049
1130,11.3,-0.042786000000000005,0.19435999999999998,0.15367999999999998,-0.1155,0.91504,1.9134
1131,11.31,-0.061646000000000006,0.1759,0.1522,-0.18153,0.80156,1.9231
1132,11.32,-0.077052,0.16714,0.14762999999999998,-0.19554000000000002,0.65036,1.9223
1133,11.33,-0.096176,0.15665,0.14488,-0.16376,0.47323000000000004,1.8981
1134,11.34,-0.12537,0.16784000000000002,0.12282,-0.11102000000000001,0.34288,1.8119999999999998
1135,11.35,-0.15633,0.18833,0.08705700000000001,-0.004985,0.29211,1.6447
1136,11.36,-0.19723,0.20726999999999998,0.060462,0.15452,0.35176,1.4196
1137,11.37,-0.2294,0.23117,0.038804000000000005,0.36064,0.49311000000000005,1.1763
1138,11.38,-0.24594000000000002,0.25421,0.015759,0.60019,0.7076600000000001,0.98105
1139,11.39,-0.25949,0.2669,0.016151,0.85316,0.9273100000000001,0.8871700000000001
1140,11.4,-0.25379,0.25973,0.017797999999999998,1.0765,1.0971,0.87231
1141,11.41,-0.21438000000000001,0.25099,0.03052,1.2521,1.1808,0.8884799999999999
1142,11.42,-0.16857,0.21863000000000002,0.048408,1.3297,1.1525,0.8993399999999999
1143,11.43,-0.11925,0.16994,0.027145999999999997,1.2476,0.98167,0.8311799999999999
1144,11.44,-0.060086,0.1302,-0.043388,1.0132,0.65663,0.67124
1145,11.45,-0.032873,0.10705,-0.12928,0.71804,0.30869,0.46
1146,11.46,-0.034238,0.09024299999999999,-0.16128,0.48146000000000005,0.08175299999999999,0.25290999999999997
1147,11.47,-0.071604,0.07902,-0.13177,0.33431,0.010642,0.12149000000000001
1148,11.48,-0.1079,0.036444,-0.1085,0.18877,0.056652999999999995,0.06672
1149,11.49,-0.12613,-0.002277,-0.12524000000000002,-0.025702999999999997,0.17352,0.045862
1150,11.5,-0.12614,-0.025234,-0.16067,-0.32095,0.33049,0.024793
1151,11.51,-0.11459000000000001,-0.056102,-0.18255,-0.6544,0.51015,-0.001719
1152,11.52,-0.1019,-0.083242,-0.18705,-1.0156,0.6772699999999999,-0.043200999999999996
1153,11.53,-0.082348,-0.10175,-0.20048,-1.355,0.7845300000000001,-0.072798
1154,11.54,-0.064177,-0.11723,-0.20207,-1.6025,0.79613,-0.045495
1155,11.55,-0.048264999999999995,-0.12428,-0.18745,-1.7019,0.7126600000000001,0.051613
1156,11.56,-0.031082,-0.12513,-0.15935,-1.6283,0.53714,0.20789000000000002
1157,11.57,-0.018765999999999998,-0.13158,-0.12165,-1.4123,0.29861,0.38374
1158,11.58,-0.004943,-0.13049000000000002,-0.089514,-1.0885,0.057106,0.52456
1159,11.59,0.024118,-0.10443,-0.063442,-0.68704,-0.12849000000000002,0.5971
1160,11.6,0.048019,-0.072543,-0.019875,-0.25456999999999996,-0.20773000000000003,0.6118600000000001
1161,11.61,0.073744,-0.053162,0.03826,0.13424,-0.18317,0.5623199999999999
1162,11.62,0.1218,-0.054038,0.091326,0.40206,-0.10004,0.47831999999999997
1163,11.63,0.16915,-0.072992,0.14067000000000002,0.52359,-0.014676,0.42394
1164,11.64,0.20094,-0.10753,0.17882,0.5004,0.024936,0.43023
1165,11.65,0.23399999999999999,-0.14551,0.19885,0.38068,0.025872000000000003,0.47698999999999997
1166,11.66,0.25904,-0.17098,0.22721999999999998,0.22662,0.021731999999999998,0.55465
1167,11.67,0.26791,-0.18266,0.26013000000000003,0.091916,0.045124,0.64617
1168,11.68,0.26384,-0.18569000000000002,0.29172,0.003633,0.12569,0.7206
1169,11.69,0.25755,-0.17149,0.30877,-0.015858,0.24941999999999998,0.7609100000000001
1170,11.7,0.25961999999999996,-0.15008,0.32011999999999996,0.033083999999999995,0.379,0.7821100000000001
1171,11.71,0.25428,-0.13039,0.32474000000000003,0.13445,0.51137,0.77885
1172,11.72,0.25095,-0.10605999999999999,0.32328,0.26553000000000004,0.6041,0.7447600000000001
1173,11.73,0.24994,-0.076668,0.3045,0.4006,0.64355,0.67981
1174,11.74,0.26261999999999996,-0.055424,0.27273000000000003,0.5375800000000001,0.64144,0.59359
1175,11.75,0.28236999999999995,-0.041371,0.25005,0.68587,0.6136199999999999,0.5533399999999999
1176,11.76,0.2847,-0.028058999999999997,0.23149,0.80509,0.5945,0.57919
1177,11.77,0.29315,-0.019502000000000002,0.19247999999999998,0.86449,0.60032,0.6572100000000001
1178,11.78,0.2992,-0.009381,0.14504,0.86088,0.63112,0.7895
1179,11.79,0.29559,0.00043200000000000004,0.091913,0.7974100000000001,0.66345,0.94411
1180,11.8,0.2988,0.002865,0.02453,0.72548,0.69692,1.088
1181,11.81,0.29655,0.009940000000000001,-0.035389,0.67361,0.69296,1.2139
1182,11.82,0.28748,0.021571,-0.10055,0.64212,0.67395,1.2939
1183,11.83,0.27638,0.036911,-0.16525,0.6483899999999999,0.66537,1.3046
1184,11.84,0.26919,0.055022,-0.21081,0.7033,0.6894899999999999,1.2438
1185,11.85,0.27478,0.05675,-0.2279,0.78615,0.72406,1.1596
1186,11.86,0.28707,0.038964,-0.2428,0.82801,0.7046100000000001,1.0786
1187,11.87,0.31205,0.021981999999999998,-0.28249,0.78076,0.63367,1.0253
1188,11.88,0.33084,-0.001941,-0.31761,0.6340600000000001,0.55604,1.0059
1189,11.89,0.33532,-0.034865,-0.34464,0.38195,0.51336,1.0024
1190,11.9,0.32745,-0.053977,-0.36848000000000003,0.025798,0.52484,0.97931
1191,11.91,0.31451,-0.048908999999999994,-0.39785,-0.41473000000000004,0.6297699999999999,0.9121799999999999
1192,11.92,0.28857,-0.039074,-0.41618,-0.8745,0.84359,0.81067
1193,11.93,0.2553,-0.015247,-0.40508,-1.2715,1.1667,0.69307
1194,11.94,0.21875,0.028357,-0.35738000000000003,-1.5442,1.5409,0.57772
1195,11.95,0.19150999999999999,0.077155,-0.28948,-1.6746,1.8713,0.51394
1196,11.96,0.16797,0.12315999999999999,-0.21011,-1.6666,2.0737,0.50826
1197,11.97,0.17187,0.14669000000000001,-0.13397,-1.5513,2.1143,0.5574899999999999
1198,11.98,0.17715999999999998,0.15804,-0.05948099999999999,-1.3438,1.9601,0.64351
1199,11.99,0.18122,0.1619,0.0143,-1.0855,1.6488,0.7661899999999999
1200,12.0,0.17775,0.15141,0.075601,-0.83752,1.2673,0.91566
1201,12.01,0.15916,0.13063,0.12147000000000001,-0.6605800000000001,0.93534,1.0617
1202,12.02,0.13052,0.12409,0.14787,-0.58592,0.7364,1.1775
1203,12.03,0.09479299999999999,0.13097999999999999,0.16479000000000002,-0.6008399999999999,0.65759,1.2587
1204,12.04,0.048889,0.13955,0.17384000000000002,-0.66727,0.66233,1.3226
1205,12.05,0.007037999999999999,0.13602,0.18297,-0.74729,0.68107,1.3534
1206,12.06,-0.019053,0.12817,0.18157,-0.8220000000000001,0.6731699999999999,1.3448
1207,12.07,-0.034658,0.1341,0.16329000000000002,-0.86806,0.62457,1.3074
1208,12.08,-0.053440999999999995,0.14162,0.14626,-0.8548100000000001,0.52859,1.2766
1209,12.09,-0.068918,0.14492,0.13575,-0.76631,0.38082,1.2653
1210,12.1,-0.083998,0.15563,0.11020999999999999,-0.63854,0.21247,1.2616
1211,12.11,-0.095528,0.18425999999999998,0.066727,-0.48061000000000004,0.06840399999999999,1.2397
1212,12.12,-0.10226,0.2094,0.023472,-0.29978,-0.014049,1.2188
1213,12.13,-0.12027,0.23736999999999997,-0.015038,-0.091916,-0.028557,1.2309
1214,12.14,-0.14643,0.26734,-0.045033,0.15417,0.07700900000000001,1.2621
1215,12.15,-0.16295,0.30061,-0.053977,0.43505,0.27073,1.3018
1216,12.16,-0.17155,0.33273,-0.049624,0.74155,0.47381,1.3553
1217,12.17,-0.17274,0.34051,-0.037519,1.0569,0.59368,1.4271
1218,12.18,-0.16723,0.31740999999999997,-0.016953,1.3382,0.58172,1.4778
1219,12.19,-0.15162,0.30351999999999996,0.005076,1.5244,0.48963999999999996,1.4442
1220,12.2,-0.12502,0.29691999999999996,0.015647,1.5664,0.32746,1.3111
1221,12.21,-0.089491,0.26632,-0.006599,1.4471,0.08464400000000001,1.1
1222,12.22,-0.054227,0.23776999999999998,-0.049974,1.1849,-0.18678,0.8331299999999999
1223,12.23,-0.034397000000000004,0.2034,-0.097617,0.82042,-0.42751999999999996,0.57035
1224,12.24,-0.069979,0.18495999999999999,-0.12893,0.4394,-0.5765399999999999,0.35647
1225,12.25,-0.10930999999999999,0.17119,-0.13705,0.082112,-0.65869,0.19909000000000002
1226,12.26,-0.13412000000000002,0.12542999999999999,-0.14643,-0.24189000000000002,-0.68893,0.080098
1227,12.27,-0.15489,0.098741,-0.15678,-0.51231,-0.69616,-0.049513999999999996
1228,12.28,-0.15941,0.077959,-0.16918,-0.7493,-0.66423,-0.18554
1229,12.29,-0.1592,0.032838,-0.17653,-0.9537100000000001,-0.56117,-0.32164
1230,12.3,-0.15157,-0.011111,-0.16719,-1.1414,-0.3613,-0.4408
1231,12.31,-0.1373,-0.046632,-0.14937,-1.3097,-0.09876900000000001,-0.512
1232,12.32,-0.10858,-0.075669,-0.12050999999999999,-1.4423,0.13675,-0.50731
1233,12.33,-0.063993,-0.10234,-0.089263,-1.521,0.23745,-0.39341
1234,12.34,-0.009104000000000001,-0.13269,-0.062856,-1.5343,0.16915,-0.19691
1235,12.35,0.054769000000000005,-0.17378,-0.055765999999999996,-1.4687,-0.012802000000000001,0.054363999999999996
1236,12.36,0.09606,-0.21173000000000003,-0.048163,-1.2731,-0.21075,0.31335999999999997
1237,12.37,0.12449,-0.2339,-0.015801,-0.94453,-0.36922,0.4946
1238,12.38,0.15406,-0.22228,0.022236000000000002,-0.5446,-0.48446999999999996,0.55848
1239,12.39,0.17807,-0.2032,0.047729,-0.15018,-0.5612,0.5101899999999999
1240,12.4,0.20701,-0.19253,0.073627,0.16806,-0.60418,0.38273
1241,12.41,0.23974,-0.18097,0.10634,0.38432,-0.59728,0.2422
1242,12.42,0.26959,-0.18537,0.14123,0.48768,-0.55007,0.13128
1243,12.43,0.30884,-0.1934,0.17218,0.48853,-0.48501000000000005,0.06712699999999999
1244,12.44,0.34653,-0.18849000000000002,0.20328,0.43045,-0.40886999999999996,0.06796
1245,12.45,0.37078,-0.18347,0.24014000000000002,0.37206,-0.32641,0.13923
1246,12.46,0.38932,-0.1778,0.28503,0.35306,-0.22303,0.26497
1247,12.47,0.39816,-0.16221,0.32239,0.38845999999999997,-0.10413,0.41531999999999997
1248,12.48,0.3996,-0.13535,0.34447,0.47323000000000004,0.038892,0.54971
1249,12.49,0.40037,-0.10396,0.36465,0.6148100000000001,0.19108,0.64255
1250,12.5,0.39521999999999996,-0.070698,0.3836,0.76805,0.31123,0.70131
1251,12.51,0.39359,-0.045958,0.37918,0.86014,0.37437,0.73979
1252,12.52,0.39427,-0.029064,0.34481999999999996,0.85785,0.38074,0.78033
1253,12.53,0.39385,-0.018949,0.28902,0.7497199999999999,0.36878,0.83354
1254,12.54,0.40164,-0.015382,0.22436,0.57029,0.39575,0.9153700000000001
1255,12.55,0.4114,-0.015303,0.15557,0.36548,0.48041999999999996,1.0419
1256,12.56,0.41626,0.000223,0.07055299999999999,0.15862,0.61087,1.226
1257,12.57,0.41675,0.02139,-0.030672,0.03129,0.8471799999999999,1.4623
1258,12.58,0.40092,0.031088,-0.08395,0.06227100000000001,1.1472,1.7212
1259,12.59,0.40689000000000003,0.036424,-0.099229,0.22841999999999998,1.3991,1.974
1260,12.6,0.42826000000000003,0.020891,-0.13729,0.45485,1.4248,2.1804
1261,12.61,0.47791000000000006,0.0035020000000000003,-0.2109,0.65063,1.1694,2.306
1262,12.62,0.52391,-0.007909999999999999,-0.29484,0.79343,0.7654,2.3347
1263,12.63,0.5645899999999999,-0.036273,-0.34576,0.8877200000000001,0.37362,2.2673
1264,12.64,0.59429,-0.079904,-0.37504,0.90735,0.08905700000000001,2.1557
1265,12.65,0.5937100000000001,-0.11435,-0.39853,0.80098,-0.064473,2.0555
1266,12.66,0.5657800000000001,-0.13112000000000001,-0.43577,0.575,-0.073209,1.9996
1267,12.67,0.52628,-0.12847999999999998,-0.4619,0.28143,0.034705,1.9936
1268,12.68,0.49088999999999994,-0.12494000000000001,-0.4719,-0.026641,0.21411,2.013
1269,12.69,0.45438,-0.10479000000000001,-0.47213,-0.30896999999999997,0.41673999999999994,2.0388
1270,12.7,0.41205,-0.074538,-0.46299999999999997,-0.51986,0.60175,2.0488
1271,12.71,0.36911,-0.048277999999999995,-0.44836000000000004,-0.6532399999999999,0.72009,2.026
1272,12.72,0.32606,-0.014755,-0.43495,-0.68972,0.78759,1.9618
1273,12.73,0.28049,0.019329,-0.39859,-0.62469,0.84791,1.8561
1274,12.74,0.2434,0.045307,-0.34118000000000004,-0.49195,0.9556399999999999,1.7269999999999999
1275,12.75,0.21584,0.065285,-0.26949,-0.32928,1.0844,1.6181
1276,12.76,0.20033,0.075226,-0.19737000000000002,-0.18299,1.1909,1.5499
1277,12.77,0.20605,0.074735,-0.13159,-0.072565,1.2316,1.5105
1278,12.78,0.21649000000000002,0.078854,-0.069158,-0.012026,1.181,1.4851
1279,12.79,0.23056,0.085635,-0.027168,0.011733,1.0626,1.4512
1280,12.8,0.23181,0.099788,0.01281,0.038507,0.9292,1.4312
1281,12.81,0.2052,0.1219,0.06565499999999999,0.10265999999999999,0.8221,1.4443
1282,12.82,0.16544,0.13637,0.11522,0.19785,0.73072,1.4669999999999999
1283,12.83,0.12958,0.15832000000000002,0.13815,0.28126999999999996,0.62134,1.4652
1284,12.84,0.10294,0.18383,0.1243,0.3436,0.51325,1.4154
1285,12.85,0.082694,0.20943,0.11249,0.40743,0.44248000000000004,1.3388
1286,12.86,0.055572,0.22830999999999999,0.1086,0.47612,0.43668,1.2482
1287,12.87,0.034493,0.24278000000000002,0.10113,0.54625,0.47136999999999996,1.1479
1288,12.88,0.021594,0.26996,0.091428,0.64207,0.52289,1.0583
1289,12.89,0.010347,0.28426999999999997,0.093329,0.76752,0.56985,1.0104
1290,12.9,0.004824,0.28034000000000003,0.088185,0.89117,0.55711,1.0138
1291,12.91,0.001129,0.27929,0.058727999999999995,0.96109,0.5202600000000001,1.0525
1292,12.92,-0.006854000000000001,0.28889000000000004,0.020041,0.99325,0.55301,1.0759
1293,12.93,-0.008123,0.3043,0.00629,1.0296,0.6827300000000001,1.0555
1294,12.94,0.001161,0.28119,0.010259,1.07,0.89345,0.99861
1295,12.95,0.016687,0.22808,0.015772,1.0585,1.1281,0.9031799999999999
1296,12.96,0.051417,0.17640999999999998,0.005614,0.92815,1.2976,0.7735
1297,12.97,0.08580299999999999,0.14469,-0.040822000000000004,0.67045,1.2871,0.65673
1298,12.98,0.10797000000000001,0.12799000000000002,-0.11773,0.33954,1.0917,0.58818
1299,12.99,0.11402000000000001,0.11383,-0.18065,0.05999500000000001,0.83504,0.60736
1300,13.0,0.096716,0.088989,-0.18204,-0.09397799999999999,0.59218,0.7132
1301,13.01,0.077114,0.061591999999999994,-0.18020999999999998,-0.18287,0.36899,0.85006
1302,13.02,0.051961,0.046277,-0.21122,-0.25433,0.18084,0.97196
1303,13.03,0.018499,0.045538,-0.2432,-0.31640999999999997,0.05024,1.0158
1304,13.04,-0.011297,0.055673,-0.26879000000000003,-0.35386999999999996,-0.004796,0.95183
1305,13.05,-0.033564,0.06854600000000001,-0.27291,-0.33898,0.036782999999999996,0.81302
1306,13.06,-0.045648,0.06575,-0.2546,-0.27991,0.12596,0.6635300000000001
1307,13.07,-0.046285,0.05379400000000001,-0.23256999999999997,-0.20525,0.18087999999999999,0.54401
1308,13.08,-0.030302,0.048539,-0.21775999999999998,-0.12402,0.15152000000000002,0.46842
1309,13.09,0.008095,0.035157,-0.19919,-0.032029,0.025064,0.43038000000000004
1310,13.1,0.05123099999999999,0.030159,-0.17487,0.09034400000000001,-0.14751,0.43303
1311,13.11,0.09524099999999999,0.021309,-0.13018,0.24138,-0.33099,0.45069
1312,13.12,0.14540999999999998,0.011366,-0.089143,0.39043,-0.49421000000000004,0.46725
1313,13.13,0.18800999999999998,0.012502,-0.05413099999999999,0.5089899999999999,-0.59324,0.49325
1314,13.14,0.20765,0.011935,-0.013600999999999999,0.58786,-0.57476,0.54138
1315,13.15,0.21631999999999998,-0.0037649999999999997,0.034738,0.6120800000000001,-0.44076000000000004,0.60416
1316,13.16,0.22325,-0.015699,0.073562,0.5613199999999999,-0.21449000000000001,0.66025
1317,13.17,0.22828,-0.011236,0.098625,0.44492,0.052833000000000005,0.68733
1318,13.18,0.24573000000000003,-0.005144,0.11285999999999999,0.31142,0.29903,0.6802600000000001
1319,13.19,0.25994,-0.00765,0.13755,0.19983,0.49175,0.68506
1320,13.2,0.25749,-0.025994,0.16476,0.13876,0.61264,0.7157
1321,13.21,0.24644000000000002,-0.033392000000000005,0.18763,0.14456,0.68821,0.74547
1322,13.22,0.24528000000000003,-0.032488,0.21436,0.20685,0.7399100000000001,0.74548
1323,13.23,0.24750999999999998,-0.030489,0.22944,0.30012,0.77861,0.7156899999999999
1324,13.24,0.24913000000000002,-0.031134,0.23506,0.39666,0.81303,0.66669
1325,13.25,0.25343000000000004,-0.025664999999999997,0.23051,0.46557,0.85301,0.6091
1326,13.26,0.2627,-0.009847,0.21391,0.50024,0.89007,0.56106
1327,13.27,0.26928,0.0008609999999999999,0.18987,0.50498,0.93694,0.54284
1328,13.28,0.26894,0.002858,0.16642,0.48331999999999997,1.0298,0.54264
1329,13.29,0.26584,0.012586,0.1329,0.44706999999999997,1.1686,0.5455399999999999
1330,13.3,0.25106,0.026003,0.091259,0.41403999999999996,1.3191,0.56443
1331,13.31,0.21994,0.040219,0.037944,0.43318,1.4384,0.55037
1332,13.32,0.21005,0.045462,-0.010188,0.53196,1.5015,0.52695
1333,13.33,0.19554000000000002,0.038498000000000004,-0.042428,0.7036399999999999,1.516,0.57205
1334,13.34,0.18157,0.012701,-0.070898,0.9269799999999999,1.5023,0.69415
1335,13.35,0.20369,-0.033745,-0.075009,1.1508,1.4556,0.86967
1336,13.36,0.24031,-0.078514,-0.080536,1.3024,1.2911,1.025
1337,13.37,0.2915,-0.098143,-0.11505,1.3361,1.0254,1.1163
1338,13.38,0.33657,-0.11135999999999999,-0.1505,1.2623,0.74256,1.1188
1339,13.39,0.36989,-0.14173,-0.15432,1.1212,0.53918,1.0655
1340,13.4,0.37746999999999997,-0.16405,-0.1216,0.9404899999999999,0.43843999999999994,0.99065
1341,13.41,0.36774,-0.15667,-0.083501,0.69733,0.41494,0.92729
1342,13.42,0.34138,-0.1277,-0.074434,0.40201,0.42273999999999995,0.89475
1343,13.43,0.3123,-0.10645,-0.073692,0.085316,0.4541,0.90802
1344,13.44,0.27699999999999997,-0.1041,-0.068356,-0.23135,0.49718,0.93301
1345,13.45,0.23728000000000002,-0.081662,-0.07096799999999999,-0.53584,0.56152,0.90569
1346,13.46,0.20244,-0.042105000000000004,-0.082497,-0.80883,0.6704,0.8367100000000001
1347,13.47,0.16766,-0.011242,-0.07637999999999999,-1.0217,0.83206,0.7698699999999999
1348,13.48,0.12999000000000002,0.011802,-0.049003,-1.1523,1.0111,0.7277
1349,13.49,0.10605999999999999,0.032491,-0.014984,-1.2258,1.1407,0.69426
1350,13.5,0.09917000000000001,0.056797,0.011028,-1.2521,1.1761,0.67173
1351,13.51,0.08919099999999999,0.07646900000000001,0.033865,-1.2514,1.1101,0.65477
1352,13.52,0.083628,0.091713,0.042911000000000005,-1.2309999999999999,0.9746,0.61449
1353,13.53,0.080968,0.10924,0.042661000000000004,-1.1743,0.80905,0.53589
1354,13.54,0.089515,0.1306,0.05237000000000001,-1.075,0.6271899999999999,0.43711000000000005
1355,13.55,0.10132000000000001,0.14692,0.059235,-0.9438,0.43651,0.35549000000000003
1356,13.56,0.11048,0.16296,0.06410199999999999,-0.7850199999999999,0.25303000000000003,0.31551999999999997
1357,13.57,0.11495999999999999,0.17398,0.071535,-0.59725,0.12147000000000001,0.32035
1358,13.58,0.10555,0.17984,0.090762,-0.38999,0.055775,0.3742
1359,13.59,0.09476699999999999,0.18436,0.11248,-0.19227,0.014633000000000002,0.45574
1360,13.6,0.09163500000000001,0.1817,0.11627,-0.028727999999999997,-0.024105,0.54788
1361,13.61,0.07912899999999999,0.17733,0.11420999999999999,0.097335,-0.07319500000000001,0.64746
1362,13.62,0.044156,0.16865,0.10206,0.16935999999999998,-0.10262,0.70527
1363,13.63,0.004993,0.16126,0.078032,0.19444,-0.060159000000000004,0.66468
1364,13.64,-0.035123,0.16766,0.055951,0.15763,0.070264,0.5523100000000001
1365,13.65,-0.077614,0.19413,0.016626,0.059272000000000005,0.21934,0.40671
1366,13.66,-0.092837,0.21505,-0.045217,-0.078847,0.33039,0.25364000000000003
1367,13.67,-0.09660099999999999,0.2376,-0.10953,-0.18463,0.3921,0.16688
1368,13.68,-0.11502000000000001,0.25689,-0.14964,-0.16399999999999998,0.44838,0.18603
1369,13.69,-0.1244,0.25254,-0.13914,0.0312,0.5074,0.29408
1370,13.7,-0.14096,0.24114000000000002,-0.09450800000000001,0.3798,0.5778800000000001,0.46534
1371,13.71,-0.16269,0.21345999999999998,-0.026930000000000003,0.8006800000000001,0.6189899999999999,0.64105
1372,13.72,-0.15072,0.17167000000000002,0.013777000000000001,1.1262,0.55228,0.72285
1373,13.73,-0.10417,0.13049000000000002,-0.013054,1.2546,0.30724,0.68508
1374,13.74,-0.074365,0.083879,-0.084089,1.2125,-0.078063,0.5938899999999999
1375,13.75,-0.073561,0.006285,-0.14253,1.085,-0.49567,0.47166
1376,13.76,-0.07095599999999999,-0.06816,-0.16788,0.9247299999999999,-0.8512200000000001,0.36846999999999996
1377,13.77,-0.099646,-0.11242,-0.18484,0.75338,-1.0895,0.3291
1378,13.78,-0.14106,-0.13909000000000002,-0.20342000000000002,0.57625,-1.2255,0.32796
1379,13.79,-0.15964,-0.16525,-0.23817,0.37016,-1.2494,0.32338
1380,13.8,-0.17647000000000002,-0.18378,-0.27155999999999997,0.14934,-1.1176,0.31209000000000003
1381,13.81,-0.19089,-0.19999,-0.28029,-0.10102,-0.82244,0.28658
1382,13.82,-0.18727,-0.19675,-0.27649,-0.3791,-0.41302,0.22134
1383,13.83,-0.16446,-0.16841,-0.25725,-0.65796,0.024125,0.14215999999999998
1384,13.84,-0.13827,-0.1642,-0.22396,-0.8820100000000001,0.39259,0.089889
1385,13.85,-0.11287,-0.1524,-0.16622,-1.0174,0.65482,0.04863
1386,13.86,-0.065277,-0.12533,-0.09474400000000001,-1.0536,0.77131,0.009935
1387,13.87,-0.014381,-0.095464,-0.03298,-1.0066,0.76136,-0.01665
1388,13.88,0.024279,-0.059834000000000005,0.033171,-0.87926,0.6559,-0.039726
1389,13.89,0.07258200000000001,-0.020722,0.10307000000000001,-0.6885399999999999,0.46895,-0.072156
1390,13.9,0.11367000000000001,0.015059000000000001,0.1557,-0.45458999999999994,0.22729000000000002,-0.09160499999999999
1391,13.91,0.14478,0.028418000000000002,0.20681999999999998,-0.19642,-0.028475,-0.06829099999999999
1392,13.92,0.15624000000000002,0.019562,0.25465,0.039409,-0.26064,-0.018373
1393,13.93,0.16869,0.008354,0.2819,0.2107,-0.43471000000000004,0.015321000000000001
1394,13.94,0.18917,0.005331,0.29327,0.31865,-0.54642,0.012503
1395,13.95,0.20738,0.007973000000000001,0.30729,0.37616,-0.58415,-0.025757
1396,13.96,0.21781,0.013038999999999999,0.3264,0.38941,-0.56076,-0.078078
1397,13.97,0.2192,0.015469,0.33883,0.35616,-0.47945,-0.12845
1398,13.98,0.21709,0.017967,0.34114,0.28711,-0.3254,-0.15766
1399,13.99,0.20905,0.020214,0.33318000000000003,0.21445999999999998,-0.076515,-0.16463
1400,14.0,0.19655999999999998,0.018014,0.33229000000000003,0.15702,0.22336999999999999,-0.14711
1401,14.01,0.19185,0.015453,0.30963,0.12401,0.51559,-0.11993
1402,14.02,0.1972,0.002971,0.2869,0.13343,0.78081,-0.087292
1403,14.03,0.20202,-0.016534,0.2841,0.16567,0.96805,-0.048073000000000005
1404,14.04,0.20990999999999999,-0.021304,0.26864,0.18656,1.0648,-0.01832
1405,14.05,0.22136999999999998,-0.019653999999999998,0.23611999999999997,0.20034000000000002,1.0572,-0.010811
1406,14.06,0.23006999999999997,-0.02119,0.20372,0.21868,0.9484,-0.011655
1407,14.07,0.23626999999999998,-0.022468000000000002,0.15964,0.23618000000000003,0.74365,0.001545
1408,14.08,0.2362,-0.024272,0.094735,0.27906,0.528,0.043628
1409,14.09,0.23003,-0.031603,0.059563,0.39907,0.382,0.13269
1410,14.1,0.21969,-0.049923,0.053034000000000005,0.58017,0.28661,0.25058
1411,14.11,0.21086,-0.074053,0.036969999999999996,0.73441,0.17651,0.3834
1412,14.12,0.19737000000000002,-0.08688,-0.021688,0.78192,0.037495,0.47553
1413,14.13,0.18818,-0.084117,-0.099389,0.71691,-0.074952,0.49803000000000003
1414,14.14,0.17106,-0.085962,-0.16265,0.57818,-0.12063,0.43062
1415,14.15,0.15909,-0.10175,-0.21516,0.40645,-0.07961900000000001,0.27228
1416,14.16,0.159,-0.1,-0.24398000000000003,0.23423000000000002,0.017894,0.089283
1417,14.17,0.14279,-0.10818,-0.24771999999999997,0.077944,0.13868,-0.047831
1418,14.18,0.13076,-0.12417,-0.23709000000000002,-0.08526900000000001,0.23493000000000003,-0.11339
1419,14.19,0.1258,-0.12286,-0.23334000000000002,-0.28125,0.27384000000000003,-0.11699999999999999
1420,14.2,0.13679000000000002,-0.11299000000000001,-0.24239000000000002,-0.51939,0.26086,-0.09604700000000001
1421,14.21,0.14775,-0.11657999999999999,-0.25297,-0.77573,0.24375,-0.064438
1422,14.22,0.1392,-0.12667,-0.25548000000000004,-1.0114,0.27019,-0.053151
1423,14.23,0.12415999999999999,-0.12628,-0.24670999999999998,-1.1908,0.36121,-0.08351
1424,14.24,0.10421,-0.10447000000000001,-0.2329,-1.2886,0.49741,-0.14476
1425,14.25,0.086629,-0.076349,-0.20715,-1.3057,0.6020399999999999,-0.19835
1426,14.26,0.065471,-0.053977,-0.18311,-1.2552,0.62936,-0.22499
1427,14.27,0.040199,-0.024288,-0.15524000000000002,-1.1254,0.5675600000000001,-0.24067
1428,14.28,0.030012999999999998,0.009349,-0.12105999999999999,-0.9473299999999999,0.42223999999999995,-0.24224
1429,14.29,0.024844,0.034207,-0.090586,-0.74222,0.19783,-0.22760999999999998
1430,14.3,0.020149,0.051427,-0.059738,-0.53967,-0.07665599999999999,-0.20435999999999999
1431,14.31,0.013505000000000001,0.069495,-0.034765,-0.37146,-0.37643000000000004,-0.18325999999999998
1432,14.32,-0.000367,0.09229,-0.014508000000000002,-0.23287,-0.64399,-0.16227
1433,14.33,-0.023657,0.11116,0.007373,-0.132,-0.82281,-0.13616
1434,14.34,-0.046694,0.12779000000000001,0.027710000000000002,-0.07398400000000001,-0.8861899999999999,-0.10499000000000001
1435,14.35,-0.065069,0.14055,0.040182,-0.027132999999999997,-0.86319,-0.04838
1436,14.36,-0.080653,0.13184,0.051026,0.030277,-0.8222200000000001,0.058388
1437,14.37,-0.0878,0.10486,0.054636000000000004,0.11667999999999999,-0.85506,0.22298
1438,14.38,-0.098182,0.076017,0.038399,0.23181,-1.0097,0.42305
1439,14.39,-0.10765999999999999,0.06191,0.00734,0.3429,-1.2878,0.59345
1440,14.4,-0.12675999999999998,0.084424,-0.049637,0.44046,-1.5913,0.655
1441,14.41,-0.15414,0.11971,-0.096848,0.52573,-1.7848,0.5765
1442,14.42,-0.19347999999999999,0.14794000000000002,-0.12545,0.5776600000000001,-1.8042,0.40157
1443,14.43,-0.25246,0.18420999999999998,-0.15456,0.59216,-1.5868,0.19734000000000002
1444,14.44,-0.30595,0.19466,-0.15799000000000002,0.61473,-1.1733,-0.029642
1445,14.45,-0.32488,0.25039,-0.12579,0.71859,-0.59951,-0.2589
1446,14.46,-0.32516,0.28001,-0.06977,0.90118,-0.0041270000000000005,-0.40373000000000003
1447,14.47,-0.32137,0.22419,-0.020546000000000002,1.1081,0.49823,-0.44375
1448,14.48,-0.30057,0.19178,0.015175999999999999,1.2525,0.8284100000000001,-0.41206000000000004
1449,14.49,-0.25677,0.1707,0.021728,1.2747,0.9656399999999999,-0.36637
1450,14.5,-0.18905,0.11083,-0.004593,1.1578,0.8930799999999999,-0.36111
1451,14.51,-0.12270999999999999,0.033474000000000004,-0.058687,0.9339700000000001,0.6200399999999999,-0.41011000000000003
1452,14.52,-0.08571799999999999,-0.015587,-0.10678,0.69881,0.23847,-0.50698
1453,14.53,-0.07566,-0.041077999999999996,-0.11404,0.53201,-0.14578,-0.62507
1454,14.54,-0.091266,-0.050626,-0.10201,0.43201000000000006,-0.44428,-0.73359
1455,14.55,-0.11434000000000001,-0.056272,-0.093783,0.37129,-0.64079,-0.8539700000000001
1456,14.56,-0.11462,-0.044715,-0.09133,0.31669,-0.74357,-0.9830399999999999
1457,14.57,-0.11048,-0.022384,-0.090628,0.25087,-0.76317,-1.0803
1458,14.58,-0.113,-0.014445,-0.077632,0.159,-0.67392,-1.1286
1459,14.59,-0.11054000000000001,-0.019887000000000002,-0.057182000000000004,0.015193,-0.51183,-1.1302
1460,14.6,-0.10734,-0.023811000000000002,-0.048532,-0.18816,-0.29921,-1.0893
1461,14.61,-0.10505999999999999,-0.021235,-0.036937,-0.41618,-0.081092,-1.0143
1462,14.62,-0.095238,-0.016343,-0.016306,-0.62935,0.13795,-0.92112
1463,14.63,-0.083175,-0.020031999999999998,0.023069,-0.7842100000000001,0.31495,-0.82244
1464,14.64,-0.07787899999999999,-0.017096,0.060323,-0.89175,0.39992,-0.7299100000000001
1465,14.65,-0.072034,-0.006036,0.078175,-0.9476399999999999,0.38752,-0.667
1466,14.66,-0.060295,0.011002,0.091161,-0.9453299999999999,0.29264,-0.64015
1467,14.67,-0.052252,0.029781000000000002,0.1077,-0.8609399999999999,0.16515,-0.65259
1468,14.68,-0.04378,0.051605,0.13446,-0.69634,0.037041000000000004,-0.70118
1469,14.69,-0.027357999999999997,0.07097,0.16735999999999998,-0.48698,-0.10528,-0.7614
1470,14.7,-0.0065450000000000005,0.076816,0.18584,-0.28558,-0.29551,-0.80235
1471,14.71,0.013625,0.069623,0.19018,-0.12212999999999999,-0.53874,-0.80804
1472,14.72,0.030797,0.060213,0.19087,-0.004782,-0.7965300000000001,-0.7903
1473,14.73,0.045794999999999995,0.052555,0.18997999999999998,0.061611,-1.0081,-0.74605
1474,14.74,0.043795,0.048639999999999996,0.18809,0.10187,-1.1268,-0.66572
1475,14.75,0.029072000000000004,0.046152,0.18514,0.14859,-1.0804,-0.54724
1476,14.76,0.008104,0.04539,0.19774,0.20279,-0.8870899999999999,-0.40765
1477,14.77,-0.012884,0.044138,0.20119,0.25669000000000003,-0.61485,-0.29917
1478,14.78,-0.017113,0.051148,0.19266,0.29403,-0.32322,-0.26011999999999996
1479,14.79,-0.017542,0.06348,0.18325999999999998,0.3177,-0.049518,-0.29259
1480,14.8,-0.012683,0.06651,0.17569,0.33243,0.13161,-0.38895
1481,14.81,0.019774,0.059233,0.1522,0.32615,0.19254000000000002,-0.52569
1482,14.82,0.044782999999999996,0.060319000000000005,0.12457,0.34352,0.15204,-0.65154
1483,14.83,0.058911,0.055417999999999995,0.11117,0.39321,0.05153200000000001,-0.7206600000000001
1484,14.84,0.06769,0.041585000000000004,0.09446399999999999,0.46681000000000006,-0.08015,-0.7139
1485,14.85,0.063984,0.036124,0.068483,0.5273399999999999,-0.21072,-0.64952
1486,14.86,0.05436900000000001,0.048292,0.032929,0.57889,-0.24214000000000002,-0.55437
1487,14.87,0.049384,0.064954,0.018609999999999998,0.6795899999999999,-0.1248,-0.44766999999999996
1488,14.88,0.054397,0.051895000000000004,0.033854,0.8246399999999999,0.07634099999999999,-0.32821999999999996
1489,14.89,0.064165,0.010873,0.03315,0.94884,0.21051999999999998,-0.20122
1490,14.9,0.067492,-0.026912000000000002,0.0023309999999999997,0.9513299999999999,0.18800999999999998,-0.094438
1491,14.91,0.072168,-0.050263999999999996,-0.07153999999999999,0.79157,-0.035538,-0.07724
1492,14.92,0.090763,-0.083842,-0.1745,0.49693999999999994,-0.38359,-0.17747000000000002
1493,14.93,0.083612,-0.083121,-0.25692,0.17606,-0.72495,-0.35141
1494,14.94,0.051791,-0.055909,-0.2911,-0.057063,-0.8891100000000001,-0.50737
1495,14.95,0.004252000000000001,-0.063213,-0.26497,-0.16623,-0.8401799999999999,-0.57596
1496,14.96,-0.037616000000000004,-0.08723,-0.22796,-0.21278000000000002,-0.66503,-0.58809
1497,14.97,-0.057666999999999996,-0.080907,-0.21845,-0.2701,-0.49087,-0.58316
1498,14.98,-0.058177,-0.070492,-0.23110999999999998,-0.35552,-0.36441999999999997,-0.5824600000000001
1499,14.99,-0.049348,-0.075723,-0.23543000000000003,-0.4562,-0.27836,-0.57745
1500,15.0,-0.044843,-0.085855,-0.22701,-0.5498,-0.23496999999999998,-0.56595
1501,15.01,-0.039125,-0.096607,-0.21641,-0.60445,-0.24414,-0.53828
1502,15.02,-0.047789,-0.09980599999999999,-0.18423,-0.57839,-0.2881,-0.48585
1503,15.03,-0.06930700000000001,-0.09315599999999999,-0.13639,-0.47158999999999995,-0.37216,-0.42468
1504,15.04,-0.09613,-0.067614,-0.082732,-0.30615,-0.48011000000000004,-0.39751
1505,15.05,-0.10544,-0.040346,-0.03783,-0.13979,-0.63171,-0.4119
1506,15.06,-0.10937000000000001,-0.024988999999999997,-0.022159,-0.024384,-0.7711399999999999,-0.45629
1507,15.07,-0.11549000000000001,-0.00521,-0.012492,0.033729,-0.8749299999999999,-0.5072399999999999
1508,15.08,-0.11972000000000001,0.012101,-0.007962,0.00466,-0.93432,-0.54988
1509,15.09,-0.1269,0.029274,-0.016649,-0.096705,-0.9537,-0.57991
1510,15.1,-0.13002,0.05379,-0.018256,-0.23719,-0.92694,-0.60795
1511,15.11,-0.13969,0.088032,-0.017878,-0.38173,-0.8554299999999999,-0.6029899999999999
1512,15.12,-0.16047999999999998,0.10454000000000001,-0.014263999999999999,-0.48905,-0.77041,-0.55529
1513,15.13,-0.18078,0.12417,-0.004055,-0.52077,-0.70839,-0.5159600000000001
1514,15.14,-0.19619,0.15878,0.008078,-0.46731999999999996,-0.69817,-0.5201600000000001
1515,15.15,-0.21188,0.19891,0.014444,-0.34264,-0.7598600000000001,-0.58815
1516,15.16,-0.22555999999999998,0.23636999999999997,0.01621,-0.17008,-0.8730399999999999,-0.7136
1517,15.17,-0.24398000000000003,0.2659,0.020609,0.023862,-0.99277,-0.85609
1518,15.18,-0.26924000000000003,0.29065,0.033882,0.218,-1.0805,-0.9868899999999999
1519,15.19,-0.28731999999999996,0.31101,0.047931,0.37922,-1.1233,-1.0783
1520,15.2,-0.30180999999999997,0.32291,0.058339,0.49583999999999995,-1.1147,-1.1294
1521,15.21,-0.30694,0.32521,0.072312,0.57494,-1.0961,-1.1314
1522,15.22,-0.31581,0.32561999999999997,0.086591,0.61952,-1.0997,-1.0897
1523,15.23,-0.32419000000000003,0.32432,0.095683,0.63946,-1.1117,-1.0416
1524,15.24,-0.32659,0.32269000000000003,0.11287,0.6672100000000001,-1.1034,-1.0298
1525,15.25,-0.32349,0.32072,0.14324,0.69539,-1.0748,-1.0747
1526,15.26,-0.30729,0.30761,0.16366,0.67575,-1.0458,-1.1559
1527,15.27,-0.29231,0.27441,0.15992,0.57275,-1.0416,-1.2489
1528,15.28,-0.27109,0.22436999999999999,0.13515,0.36813,-1.0697,-1.34
1529,15.29,-0.24583000000000002,0.15802,0.09302,0.070502,-1.1077,-1.4087
1530,15.3,-0.22664,0.085836,0.042184,-0.2623,-1.1198,-1.4445
1531,15.31,-0.21911999999999998,0.027493,0.004692,-0.52956,-1.0473,-1.4387
1532,15.32,-0.22463000000000002,-0.019742,-0.002484,-0.6792,-0.9139700000000001,-1.3847
1533,15.33,-0.22566999999999998,-0.058558000000000006,-0.0026219999999999998,-0.7478199999999999,-0.7707,-1.3008
1534,15.34,-0.21793,-0.079202,-0.024484,-0.7752,-0.6735899999999999,-1.2178
1535,15.35,-0.20633,-0.07612100000000001,-0.051347000000000004,-0.77653,-0.67683,-1.1697
1536,15.36,-0.19857,-0.065992,-0.075522,-0.7613,-0.77818,-1.177
1537,15.37,-0.18420999999999998,-0.066488,-0.091999,-0.7285699999999999,-0.9766100000000001,-1.2139
1538,15.38,-0.18523,-0.078793,-0.10457999999999999,-0.6867300000000001,-1.2295,-1.2358
1539,15.39,-0.20726,-0.086109,-0.10668,-0.62242,-1.4634,-1.246
1540,15.4,-0.22605999999999998,-0.076096,-0.08838,-0.53273,-1.6058,-1.2744
1541,15.41,-0.23469,-0.055057,-0.056159,-0.45135,-1.6107,-1.3351
1542,15.42,-0.22785999999999998,-0.025197,-0.017794,-0.40094,-1.4980000000000002,-1.4217
1543,15.43,-0.20114,0.008990999999999999,0.020586,-0.41048,-1.2784,-1.5128
1544,15.44,-0.15825999999999998,0.039154,0.062903,-0.47397,-0.9921700000000001,-1.5859999999999999
1545,15.45,-0.10543,0.057783,0.10347,-0.58803,-0.71949,-1.5973
1546,15.46,-0.06458799999999999,0.047483,0.13285999999999998,-0.72372,-0.54905,-1.5007
1547,15.47,-0.04829,0.009257,0.14958,-0.85034,-0.53433,-1.3313
