,ts,ax,ay,az,wx,wy,wz
0,0.0,0.040573000000000005,-0.06777899999999999,-0.140599,0.020447,-0.004227000000000001,-0.001373
1,0.01,0.011658000000000002,-0.027341000000000004,-0.11625,0.018311,-0.00209,-0.0045780000000000005
2,0.02,0.035061,0.017885,-0.130928,0.01619,-0.004227000000000001,-0.006698999999999999
3,0.03,0.006975,0.023847999999999998,-0.155087,0.015121,-0.003159,-0.009903
4,0.04,-0.025626999999999997,0.012579,-0.089121,0.018311,-0.005295,-0.014159999999999999
5,0.05,-0.011672,0.040091,-0.104899,0.017242,-0.007416,-0.012024
6,0.06,-0.035722000000000004,0.047187,-0.05824900000000001,0.017242,-0.012740999999999999,-0.013092
7,0.07,-0.068655,0.059008000000000005,0.00036900000000000127,0.015121,-0.018066,-0.014159999999999999
8,0.08,-0.092403,0.081525,0.028033999999999996,0.018311,-0.021271,-0.014159999999999999
9,0.09,-0.102801,0.07586799999999999,0.062002,0.019379,-0.019135,-0.012024
10,0.1,-0.11195799999999999,0.049602,0.031443,0.020447,-0.012740999999999999,-0.010971
11,0.11,-0.093474,0.016035,0.067824,0.019379,-0.00209,-0.010971
12,0.12,-0.065603,0.006059,-0.025028,0.018311,0.006423999999999999,-0.0077670000000000005
13,0.13,-0.070778,-0.046249,-0.019885,0.019379,0.014953999999999999,-0.006698999999999999
14,0.14,-0.061934,-0.064186,-0.052809000000000016,0.01619,0.017075,-0.002441
15,0.15,-0.083905,-0.07874400000000001,-0.055246,0.014053,0.014953999999999999,-0.0045780000000000005
16,0.16,-0.05680399999999999,-0.06561900000000001,-0.040255,0.012985,0.016022,-0.002441
17,0.17,-0.033075,-0.064165,-0.062376999999999995,0.008728,0.017075,-0.001373
18,0.18,-0.052479,-0.021894,-0.015319999999999999,0.006592,0.014953999999999999,-0.001373
19,0.19,-0.028952,-0.010226,0.01429,0.004471,0.009628,0.0007480000000000001
20,0.2,0.035806,0.010651,0.022014,0.0012660000000000002,0.009628,0.001816
21,0.21,0.052822,0.035942,0.02105,0.000198,0.006423999999999999,-0.0003050000000000001
22,0.22,0.061885,0.027045,0.034267,0.001266,0.007492,0.0007480000000000001
23,0.23,0.053512,0.017402,0.023306999999999998,0.006592,0.00856,0.003952000000000001
24,0.24,0.040192,-0.0031389999999999994,0.049803,0.008728,0.006423999999999999,-0.0003050000000000001
25,0.25,0.046473,0.006213000000000001,0.058346,0.010864,0.007492,-0.001373
26,0.26,0.0033329999999999987,0.0073469999999999985,0.027496,0.008728,0.005371,-0.001373
27,0.27,-0.004237000000000001,0.010091,0.059634000000000006,0.008728,0.004303,-0.00351
28,0.28,0.002069,0.020431,0.012106,0.008728,3.1000000000000205e-05,-0.0045780000000000005
29,0.29,-0.015263999999999996,0.012512,0.048155,0.009796,3.0999999999999995e-05,-0.006698999999999999
30,0.3,-0.011598,-0.018518,0.050629,0.007659999999999999,-0.005295,-0.006698999999999999
31,0.31,0.018288,0.0006359999999999994,0.02642,0.008728,-0.005295,-0.006698999999999999
32,0.32,-0.023056999999999998,-0.014812,0.047687,0.010864,-0.008484,-0.0045780000000000005
33,0.33,-0.043123,0.0014249999999999992,0.020586,0.007659999999999999,-0.008484,-0.00351
34,0.34,-0.048918,-0.03802,0.011715999999999999,0.008728,-0.008484,-0.0003050000000000001
35,0.35,-0.050976,-0.049718,0.04572,0.003403,-0.005295,-0.001373
36,0.36,-0.056447000000000004,-0.011100000000000002,0.061084000000000006,0.00019799999999999983,-0.00209,0.0007480000000000001
37,0.37,-0.084881,-0.027423000000000003,0.062451,0.001266,0.003235,0.00502
38,0.38,-0.065329,-0.029439,0.089377,0.004471,0.005371,0.008209000000000001
39,0.39,-0.047639999999999995,-0.010783,0.069004,0.003403,0.006423999999999999,0.011414
40,0.4,-0.029343,-0.018189,0.039028,0.005539,0.005371,0.016738999999999997
41,0.41,-0.030531,0.009262000000000001,0.040536,0.005539,0.011748999999999999,0.014603
42,0.42,-0.049263,0.015202000000000004,0.066085,0.0023350000000000003,0.014953999999999999,0.017792
43,0.43,-0.032229,-0.003046000000000007,0.046454,0.0012660000000000002,0.017075,0.017792
44,0.44,-0.051577,0.007127999999999997,0.022113,0.0023350000000000003,0.021347,0.013535
45,0.45,-0.06500399999999999,-0.011998000000000002,0.033208999999999995,0.0023350000000000003,0.023468,0.013535
46,0.46,-0.013649,-0.038847,-0.05162499999999999,-0.001923,0.025604000000000002,0.010345
47,0.47,-0.021098,-0.033336000000000005,-0.055015999999999995,-0.007248000000000002,0.024536000000000002,0.008209000000000001
48,0.48,0.025023,0.005962000000000002,-0.061078,-0.012573,0.023468,0.007141
49,0.49,0.067201,-0.016221,-0.059864999999999995,-0.018966999999999998,0.018143,0.003952000000000001
50,0.5,0.063985,-0.040031,-0.046077999999999994,-0.022171,0.014953999999999999,0.002884
51,0.51,0.058740999999999995,-0.01091,-0.025012,-0.022171,0.009628,0.00502
52,0.52,0.073064,0.022692,-0.039367,-0.021103,0.009628,0.0007480000000000001
53,0.53,0.071904,0.013766999999999998,0.030168,-0.020035,0.007492,-0.000305
54,0.54,0.056735,0.037321,0.059184,-0.017899,0.00856,-0.000305
55,0.55,0.06271,0.06356,0.043946,-0.016846,0.00856,-0.002441
56,0.56,0.034088,0.05860800000000001,0.053586,-0.015778,0.004303,-0.001373
57,0.57,-0.003925,0.021681,0.045413999999999996,-0.012573,3.1000000000000205e-05,-0.00351
58,0.58,-0.028421,0.018269999999999998,0.040975,-0.007248,-0.00209,-0.0045780000000000005
59,0.59,-0.026611000000000003,0.015669,0.026048,-0.00618,-0.003159,-0.0045780000000000005
60,0.6,-0.05819,-0.011724,-0.031166000000000003,-0.0008540000000000003,-0.0010220000000000001,-0.0035100000000000005
61,0.61,-0.046195,0.0064639999999999975,-0.042627,0.0012659999999999998,0.0032350000000000005,-0.0045780000000000005
62,0.62,-0.05676900000000001,-0.016588,-0.053672000000000004,0.000198,0.00856,-0.0045780000000000005
63,0.63,-0.054027,-0.06354,-0.072714,0.001266,0.010695999999999999,-0.0045780000000000005
64,0.64,-0.071662,-0.048968,-0.066238,-0.002991,0.012816999999999999,-0.002441
65,0.65,-0.10504200000000001,-0.046972,-0.094662,-0.004059,0.009628,0.0007480000000000001
66,0.66,-0.094685,-0.054042999999999994,-0.11441,-0.00618,0.010695999999999999,0.002884
67,0.67,-0.088035,0.028557,-0.07028,-0.01152,0.007492,0.00502
68,0.68,-0.095317,0.030160000000000003,-0.061002,-0.013641,0.014953999999999999,0.007141
69,0.69,-0.067035,0.055799,-0.037901,-0.016846,0.014953999999999999,0.007141
70,0.7,-0.06517,0.015019,-0.012384000000000001,-0.016846,0.021347,0.007141
71,0.71,-0.022563999999999997,0.025578,-0.026869,-0.015778,0.021347,0.007141
72,0.72,0.0035680000000000017,0.034219,-0.022169,-0.013641,0.021347,0.012466
73,0.73,0.024612000000000002,0.084221,0.060565,-0.008316,0.020279,0.009276999999999999
74,0.74,0.010072,0.05563,0.139389,0.00019800000000000023,0.025604000000000002,0.008209000000000001
75,0.75,0.052020000000000004,0.059691999999999995,0.158478,0.011917,0.031998,0.00502
76,0.76,-0.0008379999999999986,0.07971900000000001,0.10806099999999999,0.023636,0.040512,0.010345
77,0.77,0.007324,0.024975000000000004,0.013602999999999995,0.02684,0.047974,0.0060880000000000005
78,0.78,-0.096571,-0.01345,-0.021847,0.024704,0.047974,0.009276999999999999
79,0.79,-0.12318299999999999,-0.036007,-0.08918,0.021515,0.05011,0.012466
80,0.8,-0.14713199999999999,-0.035657999999999995,-0.123134,0.018311,0.05011,0.014603
81,0.81,-0.089758,-0.055273,-0.21357399999999999,0.008728,0.05011,0.017792
82,0.82,0.010014999999999996,-0.026008999999999997,-0.18843900000000002,0.0012660000000000006,0.045837,0.017792
83,0.83,0.067169,-0.015512,-0.13834200000000002,-0.001923,0.038391,0.015671
84,0.84,0.130882,0.0072590000000000016,-0.072805,-0.001923,0.030930000000000003,0.016738999999999997
85,0.85,0.122205,-0.02839,-0.084643,0.0023350000000000003,0.022415,0.012466
86,0.86,0.137149,-0.048716,-0.059601999999999995,0.00019799999999999983,0.020279,0.010345
87,0.87,0.11727,-0.025414,-0.073016,-0.004059,0.018143,0.007141
88,0.88,0.096991,-0.060752,-0.056292999999999996,-0.012573,0.017075,0.003952000000000001
89,0.89,0.089647,-0.003430999999999997,-0.017963,-0.017899,0.017075,-0.0003049999999999997
90,0.9,0.14106,0.002691,0.053814,-0.02536,0.021347,-0.008834999999999999
91,0.91,0.263776,0.008678,0.13865,-0.023224,0.022415,-0.015227999999999997
92,0.92,0.270907,-0.004370000000000002,0.16965,-0.020035,0.020279,-0.021622
93,0.93,0.30603600000000003,0.006510000000000003,0.137762,-0.013641,0.007492,-0.024811
94,0.94,0.275519,-0.010736,0.13401300000000002,-0.008316,-0.010620000000000001,-0.023743
95,0.95,0.259282,-0.020018,0.11288599999999999,-0.008316,-0.03299,-0.025879000000000003
96,0.96,0.159439,0.016951,0.099384,-0.012573,-0.051102,-0.026947000000000002
97,0.97,0.085381,0.028784000000000007,0.090269,-0.020035,-0.060684,-0.023743
98,0.98,0.067522,-0.020621,0.0543,-0.024291999999999998,-0.061752,-0.022675
99,0.99,0.069628,-0.016371000000000004,0.069587,-0.028564,-0.06282,-0.022675
100,1.0,0.009956,-0.037982,0.10843599999999999,-0.031754000000000004,-0.06282,-0.018417
101,1.01,-0.008098000000000001,-0.017477,0.10030800000000001,-0.027496,-0.060684,-0.017349
102,1.02,-0.072765,-0.077921,0.08232,-0.020035,-0.061752,-0.015228
103,1.03,-0.081401,-0.077818,0.06325800000000001,-0.01152,-0.063873,-0.016296
104,1.04,-0.141501,-0.087613,-0.025058999999999998,-0.010452,-0.07559199999999999,-0.014159999999999999
105,1.05,-0.236248,-0.073711,-0.053823,-0.01152,-0.078796,-0.013092
106,1.06,-0.32783,-0.087039,-0.084819,-0.014709,-0.07666,-0.010971
107,1.07,-0.381013,-0.062311,-0.045880000000000004,-0.018966999999999998,-0.071335,-0.00563
108,1.08,-0.362861,-0.054571,-0.047049,-0.023224,-0.058548,-0.00563
109,1.09,-0.30041799999999996,-0.013034999999999998,-0.024625,-0.032822000000000004,-0.04364,-0.00030499999999999993
110,1.1,-0.169311,0.07148600000000001,0.040749,-0.037079,-0.025528,0.0007480000000000001
111,1.11,-0.083089,0.105564,0.055354999999999994,-0.039215,-0.015944999999999997,-0.002441
112,1.12,0.0254,0.110101,0.055422000000000006,-0.040268,-0.0031589999999999995,-0.00351
113,1.13,0.045002999999999994,0.12419000000000001,0.041152,-0.034943,0.005371,-0.006698999999999999
114,1.14,0.034454000000000005,0.103127,0.066635,-0.033889999999999997,0.014953999999999999,-0.0077670000000000005
115,1.15,0.024744,0.095235,0.084284,-0.024291999999999998,0.019211000000000002,-0.006698999999999999
116,1.16,-0.058133000000000004,0.058961,0.05044,-0.013641,0.025604000000000002,-0.00563
117,1.17,-0.073545,0.036747,0.010479999999999998,-0.0051270000000000005,0.028793,-0.0045780000000000005
118,1.18,-0.12334300000000001,0.017279,-0.026330000000000003,0.0023350000000000003,0.031998,-0.0045780000000000005
119,1.19,-0.07927999999999999,0.003332,-0.08656599999999999,0.006592,0.037323,-0.001373
120,1.2,-0.043573,0.005708000000000003,-0.10772899999999999,0.003403,0.039458999999999994,-0.002441
121,1.21,0.0004049999999999991,0.019608,-0.087751,-0.002991000000000001,0.039458999999999994,-0.0003050000000000001
122,1.22,0.039077999999999995,0.003351,-0.08611,-0.00618,0.035187,0.0007480000000000001
123,1.23,0.100826,-0.020866,-0.057155,-0.007248,0.034119,0.0007480000000000001
124,1.24,0.108801,-0.011576999999999999,-0.053341,-0.007248,0.025604000000000002,0.002884
125,1.25,0.096873,-0.034982,-0.014543,-0.01152,0.028793,0.002884
126,1.26,0.11362799999999999,-0.040770999999999995,-0.044958,-0.01152,0.026672,0.0060880000000000005
127,1.27,0.116414,-0.025185,-0.043134,-0.013641,0.025604000000000002,0.002884
128,1.28,0.10956600000000001,-0.015974000000000002,-0.06293,-0.013641,0.021347,0.002884
129,1.29,0.11436199999999999,-0.034401,-0.030509999999999995,-0.013641,0.018143,0.0007480000000000001
130,1.3,0.055076,-0.016393,-0.049142,-0.014709,0.018143,-0.00351
131,1.31,0.055838,-0.030711000000000002,-0.084845,-0.014709,0.019211000000000002,-0.002441
132,1.32,-0.008523000000000001,-0.040768,-0.021722,-0.016846,0.024536000000000002,-0.00030499999999999993
133,1.33,-0.017943999999999998,-0.009355,-0.048938999999999996,-0.014709,0.028793,0.0007479999999999995
134,1.34,-0.050559,0.007441,-0.007069,-0.020035,0.037323,0.001816
135,1.35,-0.066071,0.033785,-0.009345000000000001,-0.026427999999999997,0.040512,0.002884
136,1.36,-0.072866,0.028398000000000003,0.032989,-0.030685000000000004,0.043716000000000005,0.002884
137,1.37,-0.058957,0.012395999999999999,0.046298,-0.029617,0.049042,0.00502
138,1.38,-0.067451,-0.0021129999999999994,0.037643,-0.032822000000000004,0.053299,0.00502
139,1.39,-0.058170000000000006,-0.014505999999999996,0.05527000000000001,-0.032822000000000004,0.053299,0.0060880000000000005
140,1.4,-0.0033289999999999986,-0.039337000000000004,0.028663,-0.033889999999999997,0.054367,0.0060880000000000005
141,1.41,-0.0014000000000000002,-0.026963,0.017238999999999997,-0.033889999999999997,0.05223099999999999,0.007141
142,1.42,0.02327,-0.037903,0.041897000000000004,-0.034943,0.05011,0.007141
143,1.43,0.043438,-0.030994,0.037158,-0.034943,0.05011,0.008209000000000001
144,1.44,0.10700799999999999,-0.01756,0.075849,-0.032822000000000004,0.047974,0.0060880000000000005
145,1.45,0.131687,-0.020968999999999998,0.077886,-0.027496,0.046906,0.008209000000000001
146,1.46,0.162326,-0.026237,0.043989,-0.024291999999999998,0.042648,0.0060880000000000005
147,1.47,0.201728,-0.036676,-0.031796,-0.026427999999999997,0.036255,0.00502
148,1.48,0.203179,0.0074659999999999995,-0.01094,-0.034943,0.021347,0.0007480000000000001
149,1.49,0.208494,0.058203,0.09324399999999998,-0.040268,0.0010989999999999993,0.001816
150,1.5,0.233111,0.08402000000000001,0.180287,-0.032822000000000004,-0.0010220000000000001,-0.001373
151,1.51,0.16328499999999999,0.12556099999999998,0.191665,-0.023224,-0.004227000000000001,-0.00351
152,1.52,0.165018,0.09938,0.149169,-0.014709,-0.011687999999999999,-0.00563
153,1.53,0.14238399999999998,0.076089,0.085865,-0.007248,-0.02446,-0.0045780000000000005
154,1.54,0.120774,0.033339999999999995,0.033241,0.00019800000000000023,-0.036179,-0.00351
155,1.55,0.084475,0.004472,0.035637,0.000198,-0.047897,-0.0045780000000000005
156,1.56,0.055105999999999995,-0.014997,0.005613000000000003,0.001266,-0.057479999999999996,-0.006698999999999999
157,1.57,0.067315,-0.022416,-0.020156999999999998,0.001266,-0.064941,-0.009903
158,1.58,0.076487,-0.049429,-0.022375,0.0023349999999999994,-0.074524,-0.013092
159,1.59,0.053512,0.011584999999999998,-0.03034,-0.0051270000000000005,-0.07772799999999999,-0.019485
160,1.6,0.037647,0.026336000000000002,0.011581000000000001,-0.00618,-0.080917,-0.021622
161,1.61,0.022631000000000002,0.006266000000000001,0.021653,-0.0008539999999999997,-0.080917,-0.021622
162,1.62,0.010159999999999999,0.017242,0.034979,0.001266,-0.080917,-0.026947000000000002
163,1.63,-0.035023,-0.0043690000000000005,0.039626999999999996,0.0023350000000000003,-0.074524,-0.029068
164,1.64,-0.06287000000000001,0.001609000000000001,0.037721,0.003403,-0.064941,-0.028014999999999998
165,1.65,-0.11190699999999999,0.00148,-0.038616000000000004,0.005539,-0.058548,-0.028014999999999998
166,1.66,-0.13303399999999999,-0.038895,-0.025621,0.007659999999999999,-0.051102,-0.025879000000000003
167,1.67,-0.12065,-0.05268099999999999,-0.030222000000000002,0.005539,-0.047897,-0.020554
168,1.68,-0.174819,-0.067225,-0.071622,0.007659999999999999,-0.042572000000000006,-0.015228
169,1.69,-0.15049,-0.091508,-0.100615,0.004471,-0.041504,-0.008834999999999999
170,1.7,-0.180066,-0.040424,-0.113527,0.001266,-0.042572000000000006,-0.0003049999999999997
171,1.71,-0.17568399999999998,-0.021437,-0.090434,-0.0008539999999999999,-0.039383,0.007141
172,1.72,-0.19481700000000002,0.019213,-0.012697000000000009,-0.001923,-0.03511,0.010345
173,1.73,-0.14591500000000002,0.00808,0.034996,0.0012659999999999993,-0.025528,0.013535
174,1.74,-0.134535,0.050725,0.048874,0.003403,-0.015944999999999997,0.014603
175,1.75,-0.073563,0.056380999999999994,0.05155,0.006592,-0.009552,0.014603
176,1.76,-0.058337,0.067094,0.057513999999999996,0.008728,0.004303,0.014603
177,1.77,-0.060396000000000005,0.077682,0.055265999999999996,0.009796,0.012816999999999999,0.013535
178,1.78,0.016463,0.054516999999999996,0.029936000000000008,0.012985,0.021347,0.009276999999999999
179,1.79,0.014627000000000001,0.022367,0.029026,0.015121,0.029861000000000002,0.0060880000000000005
180,1.8,-0.002803,-0.0024530000000000003,0.0015979999999999987,0.018311,0.036255,0.003952000000000001
181,1.81,0.012793000000000002,-0.023308,0.00022900000000000004,0.018311,0.040512,0.003952000000000001
182,1.82,0.0046700000000000005,-0.031981,-0.047370999999999996,0.019379,0.043716000000000005,0.003952000000000001
183,1.83,0.037712999999999997,-0.043077,-0.023678,0.017242,0.044785000000000005,0.002884
184,1.84,0.042185,-0.050064,-0.041123,0.01619,0.038391,0.0007480000000000001
185,1.85,0.044802,-0.025726,-0.038664,0.010864,0.036255,0.0007480000000000001
186,1.86,0.035717,0.0013329999999999974,-0.054808,0.008728,0.031998,-0.002441
187,1.87,0.055529999999999996,0.01126,-0.026438,0.007659999999999999,0.025604000000000002,0.0007480000000000001
188,1.88,0.059098000000000005,0.022791,0.008402999999999999,0.006592,0.022415,-0.00030499999999999993
189,1.89,0.053038,-0.00359,-0.00873,0.006592,0.017075,-0.00030499999999999993
190,1.9,0.031592,-0.0032730000000000016,0.023368,0.009796,0.013885,-0.00351
191,1.91,0.03146,0.012505,0.011798000000000001,0.011917,0.009628,-0.002441
192,1.92,0.050658,0.010609,-0.018254,0.01619,0.006423999999999999,-0.002441
193,1.93,0.06354,-0.007027000000000002,-0.0036479999999999993,0.015121,0.003235,-0.0045780000000000005
194,1.94,0.053059,0.021953,-0.036316,0.015121,0.001099,-0.006698999999999999
195,1.95,0.013755000000000002,-0.00038700000000000003,-0.045433999999999995,0.01619,-0.00209,-0.006698999999999999
196,1.96,0.01956,0.024267,-0.020347,0.014053,-0.00209,-0.00351
197,1.97,0.01738,-0.014178,0.011247,0.011917,-0.00209,-0.00563
198,1.98,-0.022589,-0.009491,0.015624,0.010864,-0.003159,-0.006698999999999999
199,1.99,-0.017274,0.003489,0.014953,0.008728,-0.004227000000000001,-0.0077670000000000005
200,2.0,-0.043349,-0.016748,0.037021,0.009796,-0.004227000000000001,-0.008834999999999999
201,2.01,-0.040652999999999995,0.022981999999999995,0.028618999999999995,0.008728,-0.00209,-0.008834999999999999
202,2.02,-0.060862,0.020426,0.039132,0.012985,-0.00209,-0.008834999999999999
203,2.03,-0.09626699999999999,0.005691999999999999,0.024508000000000002,0.014053,3.0999999999999995e-05,-0.009903
204,2.04,-0.092028,-0.043251,-0.015303999999999996,0.018311,0.006423999999999999,-0.006698999999999999
205,2.05,-0.071741,-0.03636,0.009581000000000001,0.018311,0.016022,-0.010971
206,2.06,-0.04895,-0.030258999999999998,0.021238,0.018311,0.016022,-0.0077670000000000005
207,2.07,-0.012264,-0.0021760000000000013,-0.04362,0.018311,0.016022,-0.0077670000000000005
208,2.08,-0.037769,-0.018759,-0.033099,0.01619,0.016022,-0.006698999999999999
209,2.09,-0.051257000000000004,-0.022754,-0.07334199999999999,0.011917,0.013885,-0.00563
210,2.1,-0.02581100000000001,0.014771000000000001,-0.095688,0.007659999999999999,0.011748999999999999,-0.00563
211,2.11,-0.045936000000000005,-0.007174000000000003,-0.033287,0.006592,0.010695999999999999,-0.00351
212,2.12,-0.019066999999999997,0.014150999999999999,-0.032116999999999986,0.0023350000000000003,0.009628,-0.001373
213,2.13,-0.035295,-0.0067209999999999995,-0.03271700000000001,0.003403,0.011748999999999999,-0.002441
214,2.14,-0.032212,-0.0037240000000000003,0.003088,0.006592,0.012816999999999999,-0.0003050000000000001
215,2.15,-0.021886000000000003,-0.038095,0.0008799999999999998,0.008728,0.010695999999999999,-0.001373
216,2.16,-0.0054,-0.04373,0.014922,0.010864,0.007492,-0.002441
217,2.17,-0.015801,-0.016381,-0.038903,0.009796,0.006423999999999999,-0.001373
218,2.18,0.006711,-0.011468,0.0026429999999999995,0.007659999999999999,0.005371,-0.002441
219,2.19,0.0015329999999999994,-0.003625999999999999,0.023347,0.006592,0.00856,-0.00351
220,2.2,0.006673999999999999,0.031025999999999998,0.087872,0.010864,0.013885,-0.00563
221,2.21,0.029258,0.021581,0.06867000000000001,0.012985,0.018143,-0.006698999999999999
222,2.22,0.020344,0.018113999999999998,0.048172,0.011917,0.022415,-0.006698999999999999
223,2.23,0.005667,0.029483999999999996,0.028958,0.012985,0.021347,-0.006698999999999999
224,2.24,-0.01677,0.025506,-0.026452,0.008728,0.018143,-0.00351
225,2.25,0.00886,-0.0028829999999999997,-0.07159199999999999,0.006592,0.013885,-0.0045780000000000005
226,2.26,-0.00043200000000000015,-0.001679,-0.05764400000000001,0.004471,0.010695999999999999,-0.0003049999999999997
227,2.27,-0.022188999999999997,-0.019139,-0.071434,0.006592,0.005371,0.0007480000000000001
228,2.28,-0.009416999999999998,0.004230000000000005,-0.016266,0.008728,0.002167,0.001816
229,2.29,-0.007086,-0.005786999999999997,0.004,0.010864,-0.0010220000000000001,0.003952000000000001
230,2.3,0.005151000000000003,-0.028813,-0.059415,0.014053,-0.00209,0.00502
231,2.31,0.0011789999999999995,-0.010781,-0.042076999999999996,0.015121,-0.005295,0.001816
232,2.32,-0.00603,-0.016127000000000002,-0.084627,0.009796,-0.003159,0.0007480000000000001
233,2.33,0.008893000000000002,0.017648,-0.054158000000000005,0.006592,-0.003159,-0.000305
234,2.34,0.007678,0.035168000000000005,-0.017258000000000003,0.005539,3.0999999999999995e-05,-0.000305
235,2.35,-0.0058579999999999995,0.003268,0.036316,0.008728,0.004303,-0.0035100000000000005
236,2.36,-0.01701,-0.030043000000000007,0.037415,0.006592,0.009628,-0.0045780000000000005
237,2.37,-0.032764999999999996,-0.029653,0.072104,0.008728,0.013885,-0.002441
238,2.38,-0.035396,-9.399999999999686e-05,-0.02254800000000001,0.007659999999999999,0.012816999999999999,-0.002441
239,2.39,-0.031455000000000004,-0.010773,0.029227999999999997,0.006592,0.014953999999999999,-0.002441
240,2.4,-0.026458,0.023083000000000003,-0.015369,0.003403,0.012816999999999999,-0.001373
241,2.41,-0.05104700000000001,0.036135,-0.018469,0.0023350000000000003,0.012816999999999999,0.0007480000000000001
242,2.42,-0.01619,0.058639,-0.006263000000000001,0.004471,0.012816999999999999,-0.001373
243,2.43,-0.003274,0.020952000000000002,0.028107,0.006592,0.014953999999999999,-0.001373
244,2.44,0.009503,0.034234,0.043523,0.012985,0.019211000000000002,-0.001373
245,2.45,-0.004346,0.00466,0.015318,0.015121,0.017075,-0.002441
246,2.46,0.036495,0.010751,-0.007864999999999997,0.01619,0.012816999999999999,-0.001373
247,2.47,0.04505,-0.011541,0.014150999999999999,0.017242,0.010695999999999999,-0.000305
248,2.48,0.028567000000000002,-0.025266999999999998,-0.051286,0.014053,0.00856,-0.002441
249,2.49,0.016069999999999997,-0.047555,-0.011970999999999999,0.012985,0.006423999999999999,-0.001373
250,2.5,-0.004767,-0.030964999999999996,-0.024362,0.009796,0.00856,-0.00030499999999999993
251,2.51,0.029849,-0.040261,-0.042842,0.006592,0.002167,-0.001373
252,2.52,-0.007956000000000001,-0.019502000000000002,-0.050717,0.005539,3.1e-05,-0.00030499999999999993
253,2.53,0.011134999999999999,0.009752,-0.020569,0.0023350000000000003,-0.003159,0.0007480000000000001
254,2.54,-0.005682,0.012135999999999996,-0.030166000000000002,-0.0008539999999999997,-0.005295,0.0007480000000000001
255,2.55,-0.0011600000000000007,0.031435000000000005,-0.014265,0.000198,-0.0063479999999999995,0.002884
256,2.56,0.008573,0.07106,0.013748000000000005,-0.0008539999999999999,-0.004227000000000001,0.003952000000000001
257,2.57,0.028458,0.064983,0.048017999999999984,0.003403,-0.003159,0.001816
258,2.58,0.00015300000000000036,0.007668000000000001,0.047383999999999996,0.009796,-0.0063479999999999995,0.00502
259,2.59,-0.005889999999999999,0.022728,0.007056000000000001,0.011917,-0.005295,0.002884
260,2.6,0.015643999999999998,-0.025738000000000004,0.016087999999999998,0.008728,-0.005295,0.003952000000000001
261,2.61,-0.029848999999999994,-0.022797,0.034129,0.012985,-0.00209,-0.0003050000000000001
262,2.62,0.012422,-0.059911,0.030763,0.014053,3.1000000000000205e-05,-0.00030499999999999993
263,2.63,0.006539,-0.042513999999999996,0.015524999999999997,0.015121,3.1e-05,-0.002441
264,2.64,-0.019782,-0.066498,-0.004366000000000003,0.010864,3.1000000000000205e-05,-0.00351
265,2.65,0.006453,0.0007329999999999974,0.022446,0.007659999999999999,0.005371,-0.00351
266,2.66,0.00012600000000000024,-0.03013,0.011904000000000001,0.009796,0.003235,-0.002441
267,2.67,-0.03217,-0.010365000000000001,0.025994,0.009796,0.005371,-0.001373
268,2.68,-0.043015,0.019296,-0.0013050000000000006,0.009796,0.005371,0.0018159999999999997
269,2.69,-0.024355,0.011262000000000001,0.006634999999999999,0.007659999999999999,0.005371,0.003952000000000001
270,2.7,-0.04691300000000001,0.0069,-0.0037049999999999995,0.008728,0.003235,0.00502
271,2.71,-0.004817,0.068853,-0.016673,0.009796,0.0010990000000000002,0.00502
272,2.72,-0.035030000000000006,0.023807,-0.025021,0.007659999999999999,-0.0010220000000000001,0.007141
273,2.73,-0.005677000000000001,0.021963,0.0036710000000000007,0.008728,-0.003159,0.0060880000000000005
274,2.74,0.012549,0.0053329999999999975,0.018997999999999998,0.010864,-0.003159,0.008209000000000001
275,2.75,0.015463999999999999,0.012208,-0.010686,0.012985,-0.003159,0.00502
276,2.76,0.020184,0.016524,0.018036,0.014053,-0.0010220000000000001,0.001816
277,2.77,0.014643000000000002,-0.023190000000000002,-0.0035000000000000005,0.011917,-0.004227000000000001,0.00502
278,2.78,0.047993,-0.01886,-0.006941000000000001,0.014053,-0.005295,0.001816
279,2.79,0.029722000000000002,0.017474000000000003,0.004418,0.012985,-0.005295,0.0007480000000000001
280,2.8,0.029094,-0.014744,0.011475,0.011917,-0.007415999999999998,0.001816
281,2.81,0.046370999999999996,0.0019079999999999998,-0.005612,0.012985,-0.005295,-0.001373
282,2.82,0.035369,0.008972000000000006,0.007338,0.010864,-0.004227000000000001,-0.00030500000000000064
283,2.83,0.038826,0.009961,-0.042668,0.010864,-0.005295,-0.001373
284,2.84,0.043551,-0.009144,-0.047235,0.008728,-0.004227000000000001,-0.001373
285,2.85,0.00044699999999999954,-0.007243,-0.04331,0.006592,-0.0063479999999999995,-0.001373
286,2.86,-0.0065840000000000004,-0.0013620000000000006,-0.07029099999999999,0.004471,-0.004227000000000001,-0.002441
287,2.87,-0.044206,-0.011936,-0.005649,0.006592,-0.005295,0.0007480000000000001
288,2.88,-0.023681,-0.0022299999999999998,-0.0023199999999999987,0.006592,-0.005295,0.002884
289,2.89,-0.045591,-0.038370999999999995,-0.013147,0.008728,-0.008484,0.003952000000000001
290,2.9,-0.07367699999999999,-0.004133999999999999,0.011056000000000002,0.009796,-0.009552,0.00502
291,2.91,-0.054465999999999994,0.029989,0.006270999999999999,0.011917,-0.011687999999999999,0.00502
292,2.92,-0.05125,0.032135000000000004,0.09768099999999999,0.012985,-0.009552,0.0060880000000000005
293,2.93,-0.021384,0.098775,0.16103599999999998,0.015121,-0.0010219999999999997,0.0060880000000000005
294,2.94,0.0020560000000000005,0.058965,0.164436,0.021515,0.004303,0.003952000000000001
295,2.95,0.032651,0.075861,0.15498699999999999,0.025772000000000003,0.011748999999999999,0.003952000000000001
296,2.96,-0.017708,0.06701499999999999,0.126173,0.033234,0.016022,0.003952000000000001
297,2.97,-0.051177,0.046755,0.048941000000000005,0.037491000000000003,0.021347,0.001816
298,2.98,-0.072814,0.054530999999999996,0.003308000000000002,0.036423000000000004,0.025604000000000002,0.002884
299,2.99,-0.094205,0.029651,-0.084024,0.036423000000000004,0.028793,0.0060880000000000005
300,3.0,-0.071659,-1.5999999999999955e-05,-0.058912,0.030029000000000004,0.030930000000000003,0.007141
301,3.01,-0.070781,0.0003759999999999996,-0.104144,0.028961,0.033066000000000005,0.0060880000000000005
302,3.02,-0.036315,0.0030620000000000022,-0.08064099999999999,0.033234,0.026672,0.0060880000000000005
303,3.03,0.024834000000000002,0.073492,-0.132984,0.039626999999999996,0.018143,0.0060880000000000005
304,3.04,0.06738999999999999,0.139193,-0.150946,0.04068,0.004303,0.002884
305,3.05,0.121655,0.270154,-0.192152,0.041748,-0.014877000000000001,-0.001373
306,3.06,0.147891,0.384237,-0.12553499999999998,0.043884,-0.038314999999999995,-0.012024
307,3.07,0.153582,0.47611000000000003,-0.006710999999999996,0.044952,-0.059615999999999995,-0.024811
308,3.08,0.359822,0.548032,0.108477,0.047073000000000004,-0.07347100000000001,-0.03653
309,3.09,0.497353,0.576392,0.164928,0.061996,-0.07986499999999999,-0.046112
310,3.1,0.562312,0.49876800000000004,0.20585900000000001,0.084366,-0.084122,-0.050385
311,3.11,0.646092,0.34224699999999997,0.244286,0.10992400000000001,-0.086243,-0.05571
312,3.12,0.665437,0.194235,0.177753,0.13656600000000002,-0.10328699999999999,-0.051437000000000004
313,3.13,0.646699,0.09840499999999999,0.039939999999999996,0.15466300000000002,-0.144836,-0.043991
314,3.14,0.5529,0.034298,-0.102926,0.171707,-0.198105,-0.032272
315,3.15,0.44760500000000003,0.030624000000000002,-0.207344,0.181305,-0.253494,-0.021622
316,3.16,0.374017,0.038966,-0.25177,0.18449400000000002,-0.305695,-0.012024
317,3.17,0.299861,0.09986,-0.198821,0.179169,-0.33552600000000005,-0.002441
318,3.18,0.230254,0.160206,-0.19539600000000001,0.16745,-0.353638,0.007141
319,3.19,0.18303599999999998,0.21519000000000002,-0.144072,0.14721700000000001,-0.34829699999999997,0.011414
320,3.2,0.192303,0.230143,-0.11014600000000001,0.132294,-0.32913200000000004,0.017792
321,3.21,0.12356500000000001,0.24634499999999998,-0.12184600000000001,0.130173,-0.297165,0.016738999999999997
322,3.22,0.097252,0.180061,-0.144682,0.13868699999999998,-0.254562,0.016738999999999997
323,3.23,0.084088,0.060070000000000005,-0.133883,0.14721700000000001,-0.21727,0.00502
324,3.24,0.146418,-0.050138999999999996,-0.126642,0.163193,-0.185318,-0.012024
325,3.25,0.199447,-0.138711,-0.161223,0.181305,-0.15975999999999999,-0.025879000000000003
326,3.26,0.227915,-0.21114899999999998,-0.268061,0.209,-0.138443,-0.042923
327,3.27,0.165452,-0.275793,-0.444747,0.234558,-0.11821,-0.058899
328,3.28,0.113264,-0.33565500000000004,-0.654303,0.254807,-0.10116599999999999,-0.06636
329,3.29,0.11535799999999999,-0.40731,-0.908626,0.255875,-0.083054,-0.07380700000000001
330,3.3,0.092842,-0.41346000000000005,-1.073992,0.238831,-0.06601,-0.078079
331,3.31,0.154842,-0.443283,-1.166632,0.214325,-0.046829,-0.077011
332,3.32,0.24661,-0.41606499999999996,-1.207869,0.187698,-0.041504,-0.077011
333,3.33,0.355795,-0.43349099999999996,-1.2160950000000001,0.15466300000000002,-0.044708,-0.072754
334,3.34,0.462188,-0.436884,-1.1112309999999999,0.120575,-0.048964999999999995,-0.06636
335,3.35,0.6061380000000001,-0.417312,-1.00568,0.090759,-0.060684,-0.061035
336,3.36,0.64603,-0.408403,-0.8974280000000001,0.074768,-0.084122,-0.054641999999999996
337,3.37,0.6929,-0.377931,-0.84351,0.067322,-0.10755899999999999,-0.046112
338,3.38,0.7366020000000001,-0.349894,-0.8649100000000001,0.061996,-0.137375,-0.034393
339,3.39,0.786431,-0.266326,-0.8680959999999999,0.049210000000000004,-0.153366,-0.029068
340,3.4,0.757143,-0.27720500000000003,-0.815946,0.027908,-0.172531,-0.020554
341,3.41,0.7299180000000001,-0.316017,-0.740228,0.007659999999999999,-0.178925,-0.012024
342,3.42,0.717015,-0.259023,-0.675425,-0.008316,-0.187454,-0.004578
343,3.43,0.690441,-0.297722,-0.627817,-0.024291999999999998,-0.186386,-0.0003050000000000001
344,3.44,0.708228,-0.248369,-0.650143,-0.043472000000000004,-0.193848,0.003952000000000001
345,3.45,0.679442,-0.23728600000000002,-0.554297,-0.062653,-0.190643,0.001816
346,3.46,0.714205,-0.179509,-0.46316899999999994,-0.082886,-0.190643,-0.0003050000000000001
347,3.47,0.674873,-0.166576,-0.366477,-0.097794,-0.18850699999999998,-0.0077670000000000005
348,3.48,0.622967,-0.12554400000000002,-0.238204,-0.106323,-0.190643,-0.014159999999999999
349,3.49,0.590963,-0.089931,-0.095492,-0.113785,-0.193848,-0.019485
350,3.5,0.5445409999999999,-0.044794,0.017922999999999998,-0.122299,-0.198105,-0.022675
351,3.51,0.47821099999999994,0.022381,0.207254,-0.123367,-0.194901,-0.025879000000000003
352,3.52,0.375744,0.042169,0.393947,-0.120163,-0.185318,-0.028014999999999998
353,3.53,0.276018,0.024221,0.568279,-0.11271700000000001,-0.171463,-0.028014999999999998
354,3.54,0.169758,-0.025422,0.6769229999999999,-0.09992999999999999,-0.139511,-0.030136000000000003
355,3.55,-0.005630999999999997,-0.12276400000000001,0.722206,-0.0914,-0.088379,-0.032272
356,3.56,-0.260892,-0.323911,0.763328,-0.07756,-0.018066,-0.039719
357,3.57,-0.513513,-0.595729,0.751789,-0.073303,0.069275,-0.048248
358,3.58,-0.925508,-0.9313100000000001,0.667324,-0.08075,0.16835,-0.053574000000000004
359,3.59,-1.2991540000000001,-1.2969760000000001,0.604155,-0.09992999999999999,0.274872,-0.053574000000000004
360,3.6,-1.7904419999999999,-1.536659,0.5216069999999999,-0.12123099999999999,0.38246199999999997,-0.046112
361,3.61,-2.119935,-1.710466,0.388626,-0.137207,0.47088599999999997,-0.030136000000000003
362,3.62,-2.3333049999999997,-1.7033779999999998,0.048009,-0.131882,0.518814,-0.010971
363,3.63,-2.320774,-1.5040280000000001,-0.355629,-0.120163,0.5177609999999999,0.017792
364,3.64,-2.027854,-1.008843,-0.823835,-0.113785,0.5039060000000001,0.058273
365,3.65,-1.542292,-0.468167,-1.234987,-0.139343,0.46449300000000004,0.092361
366,3.66,-1.0454350000000001,0.2125120000000001,-1.586172,-0.189407,0.39418000000000003,0.10728499999999999
367,3.67,-0.603101,0.937291,-1.761899,-0.232025,0.300446,0.103027
368,3.68,-0.14264099999999996,1.513023,-1.690991,-0.258652,0.196045,0.084915
369,3.69,0.16676300000000002,1.7485990000000002,-1.5123,-0.261856,0.114014,0.049759
370,3.7,0.3793,1.95197,-1.289493,-0.256531,0.061828999999999995,0.012465999999999998
371,3.71,0.5725,2.10701,-1.203518,-0.250137,0.04158,-0.023743
372,3.72,0.436831,1.999887,-1.010259,-0.23521399999999998,0.044785000000000005,-0.062103
373,3.73,0.07722800000000002,1.671218,-0.817805,-0.20432999999999998,0.055435000000000005,-0.094055
374,3.74,-0.274524,1.084264,-0.751052,-0.155319,0.09378099999999999,-0.11323499999999999
375,3.75,-0.7253729999999999,0.539093,-0.8446370000000001,-0.11804200000000001,0.13000499999999998,-0.127075
376,3.76,-1.07308,-0.056279,-1.109793,-0.103119,0.17686500000000002,-0.137726
377,3.77,-1.305174,-0.6238229999999999,-1.361027,-0.11271700000000001,0.20776399999999998,-0.148376
378,3.78,-1.416143,-1.067165,-1.5607090000000001,-0.1436,0.22799699999999998,-0.15477
379,3.79,-1.393985,-1.429483,-1.676737,-0.18728599999999998,0.23439000000000002,-0.161163
380,3.8,-1.2875370000000002,-1.563202,-1.69062,-0.250137,0.22480799999999998,-0.16009500000000002
381,3.81,-1.144723,-1.576966,-1.641962,-0.31510900000000003,0.206696,-0.156906
382,3.82,-0.937049,-1.483624,-1.540604,-0.370514,0.184326,-0.138794
383,3.83,-0.702087,-1.195698,-1.416512,-0.42057799999999995,0.153442,-0.111099
384,3.84,-0.509731,-0.830925,-1.278621,-0.446136,0.12254300000000001,-0.08126799999999999
385,3.85,-0.326666,-0.5392279999999999,-1.143009,-0.441879,0.108688,-0.04718
386,3.86,-0.19281600000000002,-0.22506700000000002,-1.049556,-0.41951000000000005,0.091644,-0.017349
387,3.87,-0.200846,0.030049999999999993,-0.965534,-0.37902800000000003,0.084198,0.0060880000000000005
388,3.88,-0.26816100000000004,0.131572,-0.945282,-0.326828,0.073547,0.022064
389,3.89,-0.348718,0.260371,-0.947406,-0.272507,0.06395,0.027389999999999998
390,3.9,-0.49491999999999997,0.250745,-1.032035,-0.21816999999999998,0.053299,0.027389999999999998
391,3.91,-0.624664,0.216689,-1.1803860000000002,-0.171295,0.04158,0.025253
392,3.92,-0.7090569999999999,0.15471400000000002,-1.293317,-0.131882,0.026672,0.019928
393,3.93,-0.745222,0.084076,-1.399716,-0.09992999999999999,0.011748999999999999,0.015671
394,3.94,-0.784391,0.059244000000000005,-1.5583989999999999,-0.07862899999999999,-0.005294999999999999,0.009276999999999999
395,3.95,-0.816184,0.073799,-1.620576,-0.067978,-0.015944999999999997,0.00502
396,3.96,-0.8082189999999999,0.08943200000000001,-1.76016,-0.063705,-0.03511,0.001816
397,3.97,-0.8200770000000001,0.143275,-1.735768,-0.062653,-0.056427,0.0007480000000000001
398,3.98,-0.579651,0.26456599999999997,-1.6846240000000001,-0.065842,-0.091568,0.002884
399,3.99,-0.362136,0.242682,-1.6799110000000002,-0.06691,-0.122467,0.00502
400,4.0,-0.17870999999999998,0.319429,-1.6979369999999998,-0.064774,-0.173599,0.003952000000000001
401,4.01,-0.121946,0.433039,-1.776285,-0.064774,-0.231125,0.003952000000000001
402,4.02,-0.109895,0.662199,-1.9110150000000001,-0.053055,-0.28225700000000004,-0.001373
403,4.03,-0.188667,0.9335469999999999,-2.074059,-0.030685000000000004,-0.338715,-0.009903
404,4.04,-0.26597600000000005,1.167861,-2.236068,0.0023350000000000003,-0.389847,-0.017349
405,4.05,-0.469495,1.452033,-2.396137,0.030029000000000004,-0.44523599999999997,-0.028014999999999998
406,4.06,-0.673531,1.705884,-2.433193,0.055603,-0.513428,-0.038666000000000006
407,4.07,-1.011371,2.008874,-2.402802,0.08862300000000001,-0.591187,-0.039719
408,4.08,-1.322086,2.140384,-2.264162,0.12271099999999999,-0.665756,-0.029068
409,4.09,-1.4939870000000002,2.292775,-1.9769709999999998,0.135498,-0.728607,-0.009903
410,4.1,-1.512259,2.451577,-1.46926,0.108856,-0.768021,0.013535
411,4.11,-1.396568,2.872534,-0.882257,0.032166,-0.786133,0.039108
412,4.12,-1.374586,3.3786300000000002,-0.23062800000000003,-0.090347,-0.786133,0.045502
413,4.13,-1.401404,3.6071779999999998,0.663038,-0.201126,-0.752045,0.049759
414,4.14,-1.347969,3.36416,1.654377,-0.25758400000000004,-0.644455,0.050827
415,4.15,-1.119029,2.717477,2.44135,-0.252258,-0.505966,0.049759
416,4.16,-0.409078,1.8744029999999998,3.1022819999999998,-0.214981,-0.35896300000000003,0.049759
417,4.17,0.5219560000000001,0.767429,3.6135940000000004,-0.15213,-0.224731,0.040175999999999996
418,4.18,1.430679,-0.309884,4.027702,-0.056259,-0.16508499999999998,0.022064
419,4.19,2.1215599999999997,-1.331305,3.986254,0.076904,-0.173599,-0.013092
420,4.2,2.35161,-2.01703,3.279126,0.21858200000000003,-0.21727,-0.052504999999999996
421,4.21,2.253998,-2.3531009999999997,2.0602650000000002,0.317657,-0.25242600000000004,-0.08340499999999999
422,4.22,1.8461130000000001,-2.270658,0.609913,0.34321599999999997,-0.250305,-0.10790999999999999
423,4.23,1.056001,-1.9655259999999999,-0.545774,0.27717600000000003,-0.231125,-0.124954
424,4.24,0.478813,-1.308749,-1.309507,0.14294400000000002,-0.16934200000000002,-0.106842
425,4.25,-0.01335900000000001,-0.48655200000000004,-1.4545299999999999,-0.027495999999999996,-0.07772799999999999,-0.071686
426,4.26,-0.44338,0.41063500000000003,-1.095222,-0.197937,-0.042572000000000006,-0.015227999999999997
427,4.27,-0.553596,0.8491780000000001,-0.366539,-0.333221,-0.02446,0.041229
428,4.28,-0.573883,1.09723,0.179559,-0.39074699999999996,-0.009552,0.084915
429,4.29,-0.153104,1.0358459999999998,0.6567350000000001,-0.359848,-0.036179,0.146698
430,4.3,0.277242,0.8282309999999999,0.97919,-0.253326,-0.10755899999999999,0.205292
431,4.31,0.635008,0.430367,1.106717,-0.10418699999999999,-0.16934200000000002,0.248962
432,4.32,1.015168,0.06420999999999996,1.005419,0.042815999999999986,-0.20875500000000002,0.279846
433,4.33,1.3028629999999999,-0.363274,0.7922060000000001,0.172775,-0.227936,0.284119
434,4.34,1.350193,-0.773972,0.478328,0.278244,-0.22261,0.25109899999999996
435,4.35,1.269276,-1.240977,0.109426,0.36025999999999997,-0.205566,0.20634499999999997
436,4.36,0.8788860000000001,-1.942295,-0.552771,0.40713499999999997,-0.164017,0.13284300000000002
437,4.37,0.6629649999999999,-2.312998,-0.9971780000000001,0.385834,-0.11714200000000001,0.10195900000000001
438,4.38,0.372796,-2.588764,-1.293708,0.328308,-0.067078,0.081711
439,4.39,0.209169,-2.7738650000000002,-1.496444,0.255875,-0.008483999999999998,0.069992
440,4.4,0.057312,-2.775261,-1.624943,0.18023699999999998,0.029861000000000002,0.063599
441,4.41,0.085412,-2.723668,-1.4809139999999998,0.100342,0.056503,0.059341
442,4.42,0.137848,-2.549969,-1.350403,0.02577200000000001,0.061828999999999995,0.061478
443,4.43,0.21526700000000001,-2.283271,-1.128307,-0.045609,0.055435000000000005,0.061478
444,4.44,0.311156,-1.9644720000000002,-0.888908,-0.105255,0.047974,0.055084
445,4.45,0.37554,-1.61837,-0.715753,-0.14999400000000002,0.04158,0.054015999999999995
446,4.46,0.441438,-1.303185,-0.7279100000000001,-0.178757,0.04158,0.047623
447,4.47,0.582112,-1.0693,-0.80545,-0.189407,0.045837,0.02951
448,4.48,0.641564,-0.895128,-0.8891180000000001,-0.18196099999999998,0.054367,0.008209000000000001
449,4.49,0.771329,-0.837694,-0.9636790000000001,-0.153198,0.072479,-0.01416
450,4.5,0.838694,-0.785646,-1.03588,-0.116974,0.094849,-0.037598
451,4.51,0.7825439999999999,-0.7611479999999999,-1.079132,-0.07649199999999999,0.107635,-0.06315599999999999
452,4.52,0.664093,-0.614781,-1.091185,-0.041336000000000005,0.128937,-0.0802
453,4.53,0.510888,-0.420228,-1.263749,-0.01152,0.151306,-0.096191
454,4.54,0.385275,-0.13376000000000002,-1.567023,0.00019800000000000023,0.173676,-0.100449
455,4.55,0.349645,0.066689,-1.752028,-0.015778,0.17260699999999998,-0.08872999999999999
456,4.56,0.398831,0.222904,-1.6610479999999999,-0.057312,0.163025,-0.061035
457,4.57,0.417587,0.209168,-1.383931,-0.10845899999999999,0.137451,-0.029068
458,4.58,0.20744200000000002,0.27976799999999996,-0.989159,-0.144669,0.120407,-0.0013729999999999992
459,4.59,-0.07080000000000003,0.46693999999999997,-0.766176,-0.14999400000000002,0.152374,0.024184999999999998
460,4.6,-0.419209,0.719236,-0.7986489999999999,-0.13508599999999998,0.25676,0.046555
461,4.61,-0.53391,1.086121,-1.171777,-0.125504,0.400574,0.065735
462,4.62,-0.47661499999999996,1.520312,-1.5959729999999999,-0.138275,0.518814,0.08064299999999999
463,4.63,-0.359601,2.075056,-1.940173,-0.169174,0.590195,0.081711
464,4.64,-0.01814299999999999,2.653941,-2.033282,-0.199005,0.58699,0.067871
465,4.65,0.059704999999999994,3.278773,-1.711382,-0.202194,0.5103,0.043365
466,4.66,0.037135,3.963489,-1.333425,-0.189407,0.44105500000000003,0.042297
467,4.67,0.292324,4.614051,-0.9172629999999999,-0.24693299999999999,0.437866,0.055084
468,4.68,1.0406790000000001,5.113878,-0.13591900000000007,-0.395004,0.425079,0.077454
469,4.69,2.133875,5.471916,0.9539540000000001,-0.5164489999999999,0.311096,0.10195900000000001
470,4.7,2.9612279999999997,5.4944440000000005,2.28565,-0.549469,0.10336300000000001,0.149887
471,4.71,3.0694369999999997,5.013984,3.6608110000000003,-0.45892299999999997,-0.113953,0.213806
472,4.72,2.51329,4.141808999999999,4.514513,-0.22776799999999997,-0.17999300000000001,0.254288
473,4.73,1.784598,2.7865290000000003,4.497879,0.09288,-0.13525399999999999,0.27665700000000004
474,4.74,0.823577,0.8856679999999999,3.966264,0.410339,-0.023392,0.266006
475,4.75,-0.4502620000000001,-1.16051,3.192122,0.660675,0.169418,0.227661
476,4.76,-1.520238,-3.085999,2.041948,0.8193969999999999,0.403778,0.165863
477,4.77,-2.2973369999999997,-4.656059,0.7685819999999999,0.8588100000000001,0.625351,0.088104
478,4.78,-2.647049,-5.525009,-0.34646,0.77359,0.795792,0.015671000000000004
479,4.79,-2.426108,-5.442697,-1.297316,0.577576,0.857574,-0.037598
480,4.8,-1.894064,-4.382036,-1.996493,0.29740900000000003,0.7712859999999999,-0.072754
481,4.81,-1.1955559999999998,-3.002812,-2.125323,-0.020035,0.556107,-0.094055
482,4.82,-0.623362,-1.547256,-1.630496,-0.309784,0.247177,-0.095123
483,4.83,-0.109952,0.04400800000000005,-0.532139,-0.508987,-0.05854799999999999,-0.068481
484,4.84,0.22279899999999997,1.138528,0.715501,-0.6038060000000001,-0.292908,-0.037598
485,4.85,0.494373,1.6970900000000002,2.081784,-0.6091310000000001,-0.37493899999999997,-0.016296
486,4.86,0.8875129999999999,1.834514,2.982442,-0.496201,-0.31101999999999996,-0.016296
487,4.87,1.317943,1.0761690000000002,3.15944,-0.284225,-0.17466700000000002,-0.09085100000000003
488,4.88,1.1849690000000002,0.39432399999999995,2.692818,-0.046661000000000015,-0.017013999999999998,-0.198456
489,4.89,0.5143770000000001,1.3263990000000003,1.5426,0.15466300000000002,0.160889,-0.225082
490,4.9,0.0002869999999999817,0.869771,1.18656,0.264389,0.171539,-0.267685
491,4.91,-0.37745100000000004,-0.196472,1.239325,0.39009099999999997,0.221619,-0.315628
492,4.92,-0.47079099999999996,-1.2308350000000001,0.701184,0.52005,0.268478,-0.341202
493,4.93,-0.667954,-2.291054,-0.07155899999999997,0.592499,0.267426,-0.361435
494,4.94,-0.876942,-3.0256790000000002,-0.714715,0.589294,0.206696,-0.374222
495,4.95,-1.0342799999999999,-3.3605120000000004,-1.147716,0.507278,0.095917,-0.345459
496,4.96,-1.137559,-3.4148680000000002,-1.318049,0.392227,-0.014877,-0.293259
497,4.97,-1.2002389999999998,-3.3413559999999998,-1.2897889999999999,0.276108,-0.10968,-0.237869
498,4.98,-1.224259,-3.182397,-1.220955,0.179169,-0.204498,-0.18779
499,4.99,-1.246715,-2.9200619999999997,-1.227926,0.099274,-0.280121,-0.146255
500,5.0,-1.169038,-2.504445,-1.237571,0.017242,-0.320602,-0.11323499999999999
501,5.01,-0.969619,-1.979589,-1.178685,-0.061584,-0.326996,-0.089798
502,5.02,-0.7363770000000001,-1.326173,-1.0476239999999999,-0.123367,-0.29504400000000003,-0.072754
503,5.03,-0.4824,-0.701437,-0.897492,-0.15745499999999998,-0.24498000000000003,-0.05996699999999999
504,5.04,-0.308422,-0.238366,-0.845134,-0.147873,-0.194901,-0.050385
505,5.05,-0.241236,0.031366999999999985,-0.903291,-0.10739100000000001,-0.164017,-0.039719
506,5.06,-0.21088400000000002,0.066821,-1.0062229999999999,-0.049866,-0.150162,-0.025879000000000003
507,5.07,-0.296087,-0.064792,-1.187675,0.021515,-0.146973,-0.010971
508,5.08,-0.511617,-0.189161,-1.469467,0.087555,-0.148041,0.010344999999999998
509,5.09,-0.80679,-0.309772,-1.7921200000000002,0.14189100000000002,-0.155487,0.02951
510,5.1,-1.111996,-0.353463,-2.070441,0.169586,-0.172531,0.043365
511,5.11,-1.396305,-0.33253299999999997,-2.267288,0.161057,-0.185318,0.040175999999999996
512,5.12,-1.567102,-0.22628299999999998,-2.188356,0.116318,-0.19278,0.027389999999999998
513,5.13,-1.534052,-0.027050000000000005,-2.0664279999999997,0.060927999999999996,-0.206619,0.001816
514,5.14,-1.141394,0.437687,-1.988696,0.003403,-0.231125,-0.025879000000000003
515,5.15,-0.7411369999999999,1.044188,-1.895672,-0.059448,-0.28865100000000005,-0.05996699999999999
516,5.16,-0.57775,1.736502,-1.686625,-0.123367,-0.380264,-0.07914700000000001
517,5.17,-0.630724,2.5293509999999997,-1.317533,-0.17236300000000002,-0.495316,-0.070618
518,5.18,-0.968806,3.4297370000000003,-0.857999,-0.184082,-0.603973,-0.04718
519,5.19,-1.596088,4.216216,-0.026307000000000025,-0.11911,-0.668945,-0.009903
520,5.2,-2.137638,4.674181,0.976491,0.027907999999999995,-0.658295,0.027390000000000005
521,5.21,-2.513684,4.935942,1.622954,0.20153800000000002,-0.601837,0.045502
522,5.22,-2.844087,5.407597,1.9297970000000002,0.24415599999999998,-0.542175,0.03804
523,5.23,-2.741229,5.473011,2.6837619999999998,0.091812,-0.44737200000000005,0.007140999999999998
524,5.24,-2.3432619999999997,4.798994,3.794111,-0.073303,-0.24710100000000002,-0.039719
525,5.25,-1.830112,3.898969,4.468344,-0.059448,0.04583700000000002,-0.07914700000000001
526,5.26,-0.556634,2.718913,4.454764,0.093948,0.351578,-0.095123
527,5.27,0.815137,1.189388,4.303362,0.3134,0.480469,-0.101517
528,5.28,2.315629,-0.293263,3.907461,0.5946199999999999,0.48579399999999995,-0.098312
529,5.29,3.9803830000000002,-1.505452,2.657507,0.853485,0.432541,-0.089798
530,5.3,4.919580000000001,-2.204159,0.763495,0.961075,0.314285,-0.074875
531,5.31,5.0089239999999995,-2.32974,-1.140458,0.8332370000000001,0.140656,-0.06636
532,5.32,4.429418,-1.935782,-2.186977,0.512604,-0.072403,-0.070618
533,5.33,3.361007,-1.295728,-2.258515,0.11312899999999998,-0.283325,-0.075943
534,5.34,2.008338,-0.663704,-1.309388,-0.245865,-0.398376,-0.070618
535,5.35,0.4902960000000002,0.016594999999999967,0.10188200000000004,-0.46318100000000006,-0.384521,-0.019485
536,5.36,-0.366419,0.53603,1.287024,-0.5292359999999999,-0.287582,0.051879999999999996
537,5.37,-0.9551440000000001,0.9055780000000001,2.097839,-0.495148,-0.186386,0.11686700000000001
538,5.38,-1.348755,1.121425,2.797285,-0.37796,-0.10116599999999999,0.204224
539,5.39,-1.2023700000000002,0.9545170000000001,3.0506349999999998,-0.173431,-0.072403,0.26174899999999995
540,5.4,-0.821204,0.34846599999999994,2.786396,0.056671000000000006,-0.056427,0.300095
541,5.41,-0.24643600000000002,-0.318054,2.116639,0.263321,-0.051102,0.322464
542,5.42,0.174014,-1.28431,1.263431,0.42631499999999994,-0.029785000000000002,0.318207
543,5.43,0.534316,-2.27251,0.342374,0.542419,-0.041504,0.300095
544,5.44,0.747822,-3.3828150000000003,-0.46551800000000004,0.604218,-0.06601,0.25854499999999997
545,5.45,0.8438469999999999,-4.277329,-1.1240059999999998,0.5967560000000001,-0.083054,0.21166999999999997
546,5.46,0.775605,-5.010365,-1.556567,0.511536,-0.087311,0.16053800000000001
547,5.47,0.785868,-5.372936,-1.867491,0.37304699999999996,-0.063873,0.105148
548,5.48,0.620772,-5.4968069999999996,-1.908724,0.20579499999999998,-0.02446,0.060410000000000005
549,5.49,0.616636,-5.168694,-1.796832,0.04068,0.031998,0.034836
550,5.5,0.584558,-4.660583,-1.5083469999999999,-0.10418699999999999,0.08313,0.012466
551,5.51,0.608036,-3.8607730000000005,-1.142842,-0.21391300000000002,0.120407,0.0007480000000000004
552,5.52,0.6270640000000001,-2.965015,-0.8374950000000001,-0.28527800000000003,0.138519,-0.00563
553,5.53,0.627533,-2.114799,-0.513542,-0.307663,0.13000499999999998,-0.019485
554,5.54,0.535616,-1.317415,-0.411678,-0.291672,0.08845499999999999,-0.039719
555,5.55,0.453276,-0.582705,-0.43708400000000003,-0.241608,0.039458999999999994,-0.040787000000000004
556,5.56,0.388921,-0.126891,-0.540852,-0.175568,-0.010620000000000001,-0.045058999999999995
557,5.57,0.444644,0.26558200000000004,-0.600382,-0.085022,-0.034058,-0.053574000000000004
558,5.58,0.594022,0.473969,-0.745887,0.019379,-0.050033999999999995,-0.06955
559,5.59,0.724757,0.6672,-1.0061069999999999,0.124847,-0.06282,-0.092987
560,5.6,0.787892,0.779752,-1.24928,0.21539299999999997,-0.074524,-0.11428800000000001
561,5.61,0.79887,0.756533,-1.482879,0.271851,-0.072403,-0.129211
562,5.62,0.9115340000000001,0.824779,-1.733118,0.271851,-0.050033999999999995,-0.123886
563,5.63,0.7911199999999999,0.8531920000000001,-1.884668,0.22283899999999998,-0.018066,-0.101517
564,5.64,0.403471,0.951407,-1.740537,0.14721700000000001,0.021347,-0.07380700000000001
565,5.65,-0.23788099999999998,1.1228280000000002,-1.543875,0.08223,0.077805,-0.046112
566,5.66,-0.773899,1.3592950000000001,-1.435149,0.028961000000000008,0.184326,-0.017349
567,5.67,-0.948468,1.62719,-1.455162,-0.020035,0.320679,0.011414
568,5.68,-0.8124100000000001,1.9945169999999999,-1.4954100000000001,-0.070099,0.437866,0.028457999999999997
569,5.69,-0.551593,2.474223,-1.421791,-0.12123099999999999,0.509232,0.051879999999999996
570,5.7,-0.047510000000000004,3.049804,-1.264149,-0.159592,0.5294800000000001,0.067871
571,5.71,0.545343,3.46927,-0.9196209999999999,-0.155319,0.512436,0.07852200000000001
572,5.72,0.670292,3.6912910000000005,-0.44166099999999997,-0.06691,0.45063800000000004,0.060410000000000005
573,5.73,0.102323,4.158588,-0.182528,0.08222999999999997,0.398453,0.045502
574,5.74,-0.05839900000000001,4.714169,-0.058445000000000004,0.146149,0.427216,0.074265
575,5.75,1.040045,4.642222,0.5607260000000001,0.016189999999999996,0.49858100000000005,0.110474
576,5.76,2.208998,4.352832,1.9072259999999999,-0.103119,0.408035,0.165863
577,5.77,2.660674,3.432902,3.513729,-0.0914,0.221619,0.26174899999999995
578,5.78,2.232337,1.998457,4.770664,-0.041336000000000005,0.192856,0.404495
579,5.79,1.650223,0.451132,5.225688,0.024704000000000004,0.373947,0.529129
580,5.8,0.9188149999999999,-0.8776370000000001,4.937716,0.151474,0.565689,0.571732
581,5.81,-0.05019099999999999,-2.047551,3.90646,0.333633,0.618958,0.544037
582,5.82,-0.991225,-2.968234,2.358613,0.48384099999999997,0.525208,0.467346
583,5.83,-1.8435740000000003,-3.227359,0.753129,0.499817,0.344116,0.362946
584,5.84,-2.515062,-2.615446,-0.29723099999999997,0.34642,0.1577,0.247894
585,5.85,-3.022361,-1.566557,-0.57926,0.07157899999999999,0.030930000000000003,0.149887
586,5.86,-2.958981,-0.4316690000000001,-0.32465,-0.20965599999999998,-0.012740999999999999,0.08064299999999999
587,5.87,-2.1175580000000003,0.78355,0.20784600000000006,-0.414185,0.036255,0.033783000000000014
588,5.88,-1.011189,1.575282,0.8861209999999999,-0.5164489999999999,0.12573199999999998,-0.006698999999999999
589,5.89,0.230585,1.813912,1.668764,-0.533493,0.22055100000000002,-0.05996699999999999
590,5.9,1.165726,1.365038,2.521532,-0.447205,0.303635,-0.147324
591,5.91,2.5741549999999997,-0.07427600000000001,2.9298599999999997,-0.269302,0.362228,-0.258102
592,5.92,3.145484,-1.708584,2.510698,-0.050934000000000014,0.363297,-0.430679
593,5.93,2.014997,0.5732990000000002,1.0159639999999999,0.08223,0.380341,-0.37954699999999997
594,5.94,1.8051720000000002,1.012055,0.407368,0.086487,0.143845,-0.270889
595,5.95,1.635342,-0.345183,1.142493,0.1259,-0.013809000000000002,-0.27302600000000005
596,5.96,1.2033559999999999,-1.649305,0.8031010000000001,0.262253,-0.07986499999999999,-0.29539499999999996
597,5.97,0.27072700000000005,-2.976124,0.13993899999999998,0.376236,-0.13311800000000001,-0.327347
598,5.98,-0.6703159999999999,-3.658151,-0.646856,0.40181,-0.200226,-0.353973
599,5.99,-1.533399,-4.064297,-1.2150100000000001,0.331497,-0.289719,-0.334808
600,6.0,-1.902856,-4.539474,-1.388211,0.20686300000000002,-0.373871,-0.29007
601,6.01,-2.027565,-4.728707,-1.3620139999999998,0.012984999999999995,-0.45163000000000003,-0.23359699999999997
602,6.02,-1.9150599999999998,-4.475647,-1.237179,-0.10311900000000003,-0.483597,-0.201645
603,6.03,-1.713583,-3.990097,-1.120817,-0.19368,-0.491043,-0.16755699999999998
604,6.04,-1.425597,-3.3015449999999995,-0.902159,-0.254395,-0.48571800000000004,-0.136658
605,6.05,-1.0392,-2.505146,-0.7371340000000001,-0.263977,-0.453766,-0.11323499999999999
606,6.06,-0.540083,-1.721597,-0.56397,-0.2267,-0.399429,-0.104706
607,6.07,-0.16039200000000006,-1.137665,-0.43926400000000004,-0.15745499999999998,-0.351501,-0.11428800000000001
608,6.08,0.086028,-0.72413,-0.397439,-0.0914,-0.34404,-0.135605
609,6.09,0.163155,-0.564765,-0.48555,-0.036011,-0.37600700000000004,-0.144119
610,6.1,0.11294100000000001,-0.44386499999999995,-0.622947,0.024704,-0.41648900000000005,-0.11323499999999999
611,6.11,-0.14954,-0.10750700000000002,-1.0001149999999999,0.095016,-0.41861000000000004,-0.054641999999999996
612,6.12,-0.550036,0.3642260000000001,-1.505292,0.161057,-0.368546,0.01886
613,6.13,-1.055835,0.860575,-1.9760520000000001,0.22071799999999997,-0.303558,0.08064299999999999
614,6.14,-1.647302,1.283835,-2.218469,0.23243699999999998,-0.257751,0.10940599999999999
615,6.15,-2.260514,1.73986,-2.102519,0.177032,-0.23645,0.095566
616,6.16,-2.6131740000000003,2.169689,-1.6912509999999998,0.07583599999999999,-0.23751799999999998,0.049759
617,6.17,-2.45893,2.511273,-1.180743,-0.008316,-0.253494,-0.0066990000000000036
618,6.18,-1.963525,2.807614,-0.808092,-0.056259,-0.28865100000000005,-0.045058999999999995
619,6.19,-1.381615,2.878059,-0.7612909999999999,-0.049866,-0.332321,-0.057830999999999994
620,6.2,-0.8609700000000001,3.063962,-0.805304,-0.0008540000000000006,-0.382385,-0.045058999999999995
621,6.21,-0.497806,3.2703919999999997,-0.862977,0.077972,-0.379196,-0.020554
622,6.22,-0.10512100000000002,3.502064,-0.9866469999999999,0.168518,-0.323807,0.0060880000000000005
623,6.23,0.11710800000000003,3.5085050000000004,-1.056567,0.26013200000000003,-0.242844,0.033783
624,6.24,0.139682,3.3297519999999996,-0.8938209999999999,0.369858,-0.189575,0.041229
625,6.25,0.40587399999999996,3.488003,-0.895317,0.480637,-0.22047399999999998,0.024184999999999998
626,6.26,0.24137199999999998,3.693668,-0.858615,0.447617,-0.337646,-0.017348999999999996
627,6.27,-0.234779,3.435716,0.353179,0.18981900000000002,-0.388779,-0.067429
628,6.28,-1.240271,2.756796,2.261411,-0.024292000000000008,-0.338715,-0.0802
629,6.29,-1.754521,1.834327,3.985206,-0.059448,-0.22154200000000002,-0.111099
630,6.3,-1.291521,0.406509,4.827093,-0.062653,-0.04364,-0.185669
631,6.31,-0.619345,-0.605205,4.878139,-0.075424,0.019211000000000002,-0.29007
632,6.32,-0.237946,-1.0086549999999999,4.593687,0.009796,-0.059615999999999995,-0.363571
633,6.33,0.936227,-1.227492,3.36669,0.228165,-0.108627,-0.36676
634,6.34,2.842178,-1.324157,1.480911,0.41352799999999995,-0.119278,-0.345459
635,6.35,4.346897,-1.062251,-0.061726999999999976,0.41566499999999995,-0.17466700000000002,-0.30284099999999997
636,6.36,5.237934,-0.5141479999999999,-0.574633,0.21858200000000003,-0.254562,-0.232544
637,6.37,5.287089,0.122063,-0.423525,-0.06797800000000001,-0.35789499999999996,-0.162231
638,6.38,4.081955000000001,0.776724,0.15282999999999994,-0.307663,-0.508087,-0.077011
639,6.39,2.381459,1.178122,0.934846,-0.416321,-0.6306,0.02739
640,6.4,0.507843,1.706861,1.416678,-0.395004,-0.646576,0.113678
641,6.41,-0.841831,1.5534780000000001,1.788173,-0.319382,-0.61142,0.17439300000000002
642,6.42,-1.7566060000000001,1.181489,2.224225,-0.22988899999999998,-0.529404,0.20954899999999999
643,6.43,-2.261997,0.377899,2.458998,-0.116974,-0.407959,0.19783
644,6.44,-2.7506169999999996,-0.36161,2.27943,0.010864000000000006,-0.296112,0.17865
645,6.45,-2.823748,-1.3096430000000001,1.755368,0.113129,-0.175735,0.182907
646,6.46,-2.619212,-1.9959099999999999,0.936526,0.18449400000000002,-0.053223,0.203156
647,6.47,-1.8912650000000002,-2.7907040000000003,0.14361199999999996,0.23136900000000002,0.046906,0.219131
648,6.48,-1.072276,-3.568711,-0.5530079999999999,0.263321,0.11296099999999999,0.234055
649,6.49,-0.18215699999999999,-4.188157,-1.149424,0.257996,0.13000499999999998,0.25109899999999996
650,6.5,0.625376,-4.607982,-1.469933,0.212189,0.134262,0.26387
651,6.51,1.174042,-4.735878,-1.577294,0.129105,0.139587,0.26814299999999996
652,6.52,1.600832,-4.563541000000001,-1.439746,0.026840000000000003,0.1577,0.257477
653,6.53,1.8149669999999998,-4.189813,-1.211571,-0.064774,0.173676,0.228714
654,6.54,1.652104,-3.531019,-0.9710549999999999,-0.141479,0.189651,0.18717999999999999
655,6.55,1.455475,-2.841237,-0.82094,-0.201126,0.221619,0.149887
656,6.56,1.221364,-2.251579,-0.644005,-0.23948699999999998,0.24610900000000002,0.111542
657,6.57,0.915093,-1.7253720000000001,-0.442065,-0.24267600000000003,0.263153,0.07638500000000001
658,6.58,0.705942,-1.3600780000000001,-0.421141,-0.20965599999999998,0.26103200000000004,0.054015999999999995
659,6.59,0.5414220000000001,-1.183028,-0.566524,-0.155319,0.248245,0.030579000000000002
660,6.6,0.427566,-1.0294370000000002,-0.712937,-0.092468,0.233337,0.011414
661,6.61,0.426991,-0.8210649999999999,-0.9765010000000001,-0.024291999999999998,0.219482,-0.0003049999999999997
662,6.62,0.354169,-0.551541,-1.372458,0.044952,0.200302,-0.014159999999999999
663,6.63,0.26815300000000003,-0.290808,-1.700236,0.096085,0.170486,-0.025879000000000003
664,6.64,0.181336,-0.089407,-1.847231,0.112061,0.152374,-0.034393
665,6.65,0.17511500000000002,0.096023,-1.841203,0.095016,0.160889,-0.043991
666,6.66,0.014481999999999997,0.524392,-1.698882,0.053466999999999994,0.217346,-0.049316000000000006
667,6.67,-0.231672,1.198685,-1.448596,-0.007248000000000002,0.307892,-0.045058999999999995
668,6.68,-0.6652359999999999,1.762857,-1.168685,-0.051987,0.42082200000000003,-0.049316000000000006
669,6.69,-0.84459,2.270753,-1.103292,-0.07649199999999999,0.5486449999999999,-0.049316000000000006
670,6.7,-0.6543399999999999,2.536134,-1.149889,-0.096741,0.643463,-0.037598
671,6.71,-0.13769399999999998,2.698313,-1.063693,-0.12123099999999999,0.7009890000000001,-0.006698999999999999
672,6.72,0.6161310000000001,2.860853,-0.901192,-0.13508599999999998,0.7137600000000001,0.041229
673,6.73,1.205832,3.117921,-0.979618,-0.11804200000000001,0.651978,0.099823
674,6.74,1.555935,3.2935410000000003,-0.880833,-0.063705,0.525208,0.14562999999999998
675,6.75,1.265107,3.7561139999999997,-0.44242200000000004,0.057724,0.38353000000000004,0.155212
676,6.76,0.5681590000000001,4.559124,-0.25254,0.171707,0.35902399999999995,0.157349
677,6.77,0.440309,5.028636,0.230965,0.10141,0.415497,0.156281
678,6.78,0.888553,5.229076,1.424716,-0.073303,0.363297,0.150955
679,6.79,1.2108139999999998,4.984694,3.028809,-0.1745,0.181137,0.23298600000000003
680,6.8,1.118227,3.921443,4.525042,-0.24374400000000002,0.13533,0.403427
681,6.81,0.606187,2.323918,5.676517,-0.23095700000000002,0.272751,0.544037
682,6.82,0.308048,0.43232200000000004,5.7286410000000005,-0.0029909999999999932,0.39418000000000003,0.606888
683,6.83,-0.3844980000000001,-1.349408,4.404675,0.353867,0.41017200000000004,0.5930479999999999
684,6.84,-1.334904,-2.91167,2.380564,0.629776,0.33665500000000004,0.534454
685,6.85,-2.219957,-3.8681699999999997,0.64362,0.6851649999999999,0.233337,0.438583
686,6.86,-2.545359,-3.685965,-0.312844,0.512604,0.206696,0.310745
687,6.87,-2.8275360000000003,-2.8497,-0.48413999999999996,0.209,0.259964,0.171204
688,6.88,-2.9037509999999997,-1.794841,-0.36042399999999997,-0.100998,0.353699,0.043365
689,6.89,-2.543542,-0.798474,-0.165733,-0.357727,0.46556099999999995,-0.057830999999999994
690,6.9,-1.8597080000000001,-0.10964400000000002,0.112802,-0.5569310000000001,0.575287,-0.131332
691,6.91,-1.109739,0.4649180000000001,0.873749,-0.676239,0.659439,-0.184601
692,6.92,-0.579615,0.778176,1.775066,-0.702866,0.7350770000000001,-0.225082
693,6.93,-0.033353999999999995,0.664756,2.685366,-0.640015,0.810699,-0.259171
694,6.94,0.919853,-0.9040359999999998,3.281878,-0.47596700000000003,0.889526,-0.336929
695,6.95,0.7136100000000001,-1.407959,2.895196,-0.291672,0.9278870000000001,-0.412567
696,6.96,-0.11648399999999999,1.561182,1.246549,-0.147873,0.9396059999999999,-0.271957
697,6.97,-0.508404,0.810874,1.580503,-0.111649,0.7425229999999999,-0.224014
698,6.98,-0.7198899999999999,-0.10136899999999993,1.7606009999999999,0.036423,0.7009890000000001,-0.208038
699,6.99,-0.893199,-1.21074,1.05374,0.214325,0.725479,-0.20484899999999998
700,7.0,-1.199073,-2.090055,0.12560499999999994,0.321915,0.719086,-0.210175
701,7.01,-1.6504299999999998,-2.670423,-0.587018,0.322983,0.681808,-0.20697
702,7.02,-1.9936479999999999,-3.028286,-0.993316,0.254807,0.625351,-0.183533
703,7.03,-2.03384,-3.399347,-1.138112,0.17491099999999998,0.564621,-0.152649
704,7.04,-1.926943,-3.5346059999999997,-1.244667,0.099274,0.49964899999999995,-0.12281800000000001
705,7.05,-1.602782,-3.4688410000000003,-1.425409,0.033234,0.448517,-0.085526
706,7.06,-1.370449,-3.273061,-1.565697,-0.033889999999999997,0.41761800000000004,-0.049316000000000006
707,7.07,-1.039188,-2.914587,-1.6427779999999998,-0.116974,0.40589899999999995,-0.009903
708,7.08,-0.711493,-2.435061,-1.589167,-0.20751999999999998,0.419754,0.022064
709,7.09,-0.40624299999999997,-1.8992380000000002,-1.3476920000000001,-0.290619,0.44212299999999993,0.058273
710,7.1,-0.209891,-1.386914,-1.152733,-0.335358,0.463425,0.089172
711,7.11,-0.125079,-0.9844629999999999,-0.9652959999999999,-0.33429000000000003,0.466629,0.113678
712,7.12,0.009764999999999996,-0.60282,-0.932358,-0.30127,0.44426000000000004,0.139236
713,7.13,0.042178,-0.37241399999999997,-1.021866,-0.255463,0.384598,0.148819
714,7.14,0.038598,-0.08088900000000003,-1.21496,-0.194733,0.318558,0.155212
715,7.15,-0.17971800000000002,0.253675,-1.315666,-0.14573699999999998,0.274872,0.166931
716,7.16,-0.6476430000000001,0.6855859999999999,-1.2971030000000001,-0.11058,0.271683,0.177582
717,7.17,-1.186733,1.251706,-1.044851,-0.065842,0.31749,0.183975
718,7.18,-1.6569009999999997,1.95865,-0.657429,-0.0051270000000000005,0.385666,0.17546099999999998
719,7.19,-2.1287849999999997,2.528655,-0.292104,0.079041,0.41868599999999995,0.156281
720,7.2,-2.6517779999999997,2.781367,0.07982399999999999,0.177032,0.427216,0.13711500000000001
721,7.21,-2.890658,2.91252,0.276924,0.273972,0.43679799999999996,0.136047
722,7.22,-2.7820009999999997,2.704415,0.134318,0.365585,0.43040500000000004,0.159485
723,7.23,-2.559782,2.245282,-0.25046399999999996,0.45719899999999997,0.412292,0.190369
724,7.24,-2.0656779999999997,1.594486,-0.729334,0.52858,0.432541,0.22445700000000002
725,7.25,-1.525808,0.8649049999999999,-0.7889,0.529648,0.511368,0.243637
726,7.26,-0.8388909999999999,0.398829,-0.520092,0.37411500000000003,0.645584,0.23191799999999999
727,7.27,0.28033300000000005,0.50089,0.2940209999999999,-0.037079,0.676483,0.15416
728,7.28,1.305177,0.958512,2.159067,-0.614456,0.656235,0.039108
729,7.29,1.863864,1.842314,4.1074,-0.993683,0.6147,-0.08126799999999999
730,7.3,2.0288619999999997,2.479839,5.236803,-0.970245,0.558243,-0.201645
731,7.31,1.368778,2.574891,5.630958000000001,-0.619781,0.545456,-0.27302600000000005
732,7.32,0.884034,2.395686,5.566105,-0.184082,0.72229,-0.235733
733,7.33,0.9063690000000001,2.314073,4.686502,0.151474,1.038666,-0.148376
734,7.34,0.8941399999999999,2.318542,3.538439,0.281433,1.3539889999999999,-0.086594
735,7.35,0.461966,2.595976,2.7108209999999997,0.2612,1.558517,-0.090851
736,7.36,-0.5933,2.889613,2.026589,0.18663,1.619232,-0.123886
737,7.37,-1.9148450000000001,2.7979689999999997,1.360578,0.10566700000000001,1.578766,-0.11961400000000001
738,7.38,-2.806794,2.029836,0.903244,0.041748,1.490341,-0.057830999999999994
739,7.39,-3.0871,1.10238,0.6380560000000001,-0.02536,1.432816,0.05827300000000001
740,7.4,-2.657057,0.183803,0.69625,-0.092468,1.455185,0.204224
741,7.41,-2.0447130000000002,-0.548711,0.895309,-0.122299,1.546799,0.333115
742,7.42,-1.6710909999999999,-0.948105,1.290009,-0.092468,1.674637,0.438583
743,7.43,-1.130824,-1.4546270000000001,1.440634,-0.021103,1.8461459999999998,0.49823
744,7.44,-0.6133350000000001,-1.9879490000000002,1.373832,0.037491000000000003,2.016586,0.518478
745,7.45,-0.149756,-2.458723,1.182596,0.076904,2.161453,0.5046229999999999
746,7.46,0.177367,-2.9201479999999997,0.915192,0.099274,2.265854,0.47267200000000004
747,7.47,0.451359,-3.4013169999999997,0.607759,0.10566700000000001,2.329773,0.441772
748,7.48,0.734533,-3.6863599999999996,0.25532,0.09820599999999999,2.344681,0.42366000000000004
749,7.49,0.889493,-3.821632,0.072788,0.064117,2.3318939999999997,0.42579700000000004
750,7.5,1.036162,-3.845914,-0.075432,0.007659999999999999,2.318054,0.448166
751,7.51,1.0853959999999998,-3.728354,-0.081452,-0.062653,2.315918,0.48439
752,7.52,0.9401,-3.442167,0.020881000000000004,-0.147873,2.3425599999999998,0.522736
753,7.53,0.738631,-3.0748439999999997,0.23568499999999998,-0.232025,2.37558,0.5514979999999999
754,7.54,0.491199,-2.621475,0.553867,-0.291672,2.413925,0.554688
755,7.55,0.266515,-2.144848,0.833139,-0.308716,2.4586639999999997,0.521667
756,7.56,-0.058566000000000014,-1.695652,1.1102450000000001,-0.298065,2.5385590000000002,0.45774799999999993
757,7.57,-0.41695,-1.325613,1.1997719999999998,-0.27037,2.6695860000000002,0.377853
758,7.58,-0.836097,-1.016157,1.07911,-0.23735,2.818726,0.288376
759,7.59,-1.26474,-0.7397199999999999,0.8917280000000001,-0.20005799999999999,2.952957,0.215942
760,7.6,-1.4388239999999999,-0.432961,0.709368,-0.156387,3.067993,0.173325
761,7.61,-1.284275,-0.190901,0.584705,-0.115906,3.148956,0.161606
762,7.62,-0.895617,-0.07720200000000002,0.570778,-0.087143,3.195831,0.167999
763,7.63,-0.364381,0.049907000000000014,0.61344,-0.086075,3.211807,0.19250499999999998
764,7.64,0.31613,0.228667,0.604178,-0.083954,3.216064,0.23085
765,7.65,0.8614299999999999,0.305794,0.6207050000000001,-0.067978,3.220337,0.281982
766,7.66,1.279134,0.243831,0.680537,-0.042404000000000004,3.269333,0.320328
767,7.67,1.6616630000000001,0.012632000000000004,0.719712,-0.028564,3.376923,0.328857
768,7.68,2.06297,-0.347452,0.6966760000000001,-0.054123000000000004,3.50795,0.311813
769,7.69,2.285987,-0.934815,0.627829,-0.10845899999999999,3.608093,0.290512
770,7.7,2.379517,-1.16749,0.592903,-0.20858800000000002,3.703964,0.2724
771,7.71,2.513464,-0.698134,0.86974,-0.338547,3.8030239999999997,0.31395
772,7.72,2.687411,-0.14216699999999996,1.284298,-0.465317,3.903168,0.397034
773,7.73,2.679214,0.313255,1.68658,-0.552673,3.9766690000000002,0.44497700000000007
774,7.74,2.292745,0.896908,1.989082,-0.580368,3.9830629999999996,0.475861
775,7.75,1.405137,1.444015,2.3789689999999997,-0.571838,3.979858,0.512085
776,7.76,0.527509,1.8783490000000003,3.042248,-0.583557,3.9979709999999997,0.549362
777,7.77,-0.231604,2.015952,3.869308,-0.61232,4.023544,0.535522
778,7.78,-1.03421,1.8046240000000002,4.4378720000000005,-0.59314,3.9905239999999997,0.475861
779,7.79,-2.097545,1.495056,4.5323720000000005,-0.520706,3.8765410000000005,0.403427
780,7.8,-3.39751,1.359883,4.0793870000000005,-0.43974300000000005,3.7391199999999998,0.343765
781,7.81,-4.155965,1.407324,3.208727,-0.423767,3.585724,0.280914
782,7.82,-4.032669,1.635559,2.3425830000000003,-0.43868999999999997,3.40036,0.18717999999999999
783,7.83,-3.864413,2.1955869999999997,1.730932,-0.413116,3.1926419999999998,0.10195900000000001
784,7.84,-3.6502480000000004,2.981229,1.600802,-0.31404099999999996,3.0211330000000003,0.11686700000000001
785,7.85,-2.995298,2.97315,1.6033819999999999,-0.18515,2.893295,0.22445700000000002
786,7.86,-2.047683,2.3974919999999997,1.454697,-0.082886,2.897552,0.382126
787,7.87,-1.162954,1.552497,1.034646,0.014052999999999996,2.939102,0.549362
788,7.88,-0.328665,0.39726,0.759318,0.11738599999999999,2.97319,0.6601560000000001
789,7.89,0.08898700000000001,-0.8223540000000001,0.40287,0.203674,3.042435,0.696365
790,7.9,0.21684299999999998,-1.697102,-0.052532,0.255875,3.173462,0.680389
791,7.91,0.267192,-2.235245,-0.512071,0.266525,3.3407139999999997,0.630325
792,7.92,0.06049700000000001,-2.649956,-0.66778,0.23562600000000003,3.5100860000000003,0.560013
793,7.93,-0.31137,-2.951575,-0.365147,0.17598,3.6443019999999997,0.49397299999999994
794,7.94,-0.68215,-2.932086,-0.032213999999999986,0.112061,3.7210080000000003,0.469467
795,7.95,-1.122414,-2.823252,0.21018499999999998,0.059860000000000003,3.7465669999999998,0.48011800000000004
796,7.96,-1.522585,-2.522614,0.3435,0.030029000000000004,3.7220760000000004,0.538712
797,7.97,-1.627622,-1.941332,0.345677,0.036423000000000004,3.6752010000000004,0.620743
798,7.98,-1.472736,-1.3905319999999999,0.334933,0.059860000000000003,3.611282,0.689987
799,7.99,-1.202099,-1.0171629999999998,0.37254299999999996,0.059860000000000003,3.531387,0.730453
800,8.0,-0.9134209999999999,-0.739359,0.583863,0.023636,3.451492,0.746445
801,8.01,-0.534736,-0.5114920000000001,0.9671569999999999,-0.032822000000000004,3.375854,0.756027
802,8.02,0.02071400000000001,-0.30252399999999996,1.486221,-0.073303,3.31514,0.767746
803,8.03,0.7230810000000001,-0.23060999999999998,2.016018,-0.065842,3.25975,0.767746
804,8.04,1.3781889999999999,-0.23479899999999998,2.38175,-0.001923000000000001,3.210739,0.754959
805,8.05,1.8900029999999999,-0.283149,2.5539400000000003,0.091812,3.15535,0.731522
806,8.06,2.15378,-0.25845999999999997,2.457046,0.182358,3.101028,0.702759
807,8.07,2.228924,-0.254714,2.1528099999999997,0.23136900000000002,3.045624,0.665482
808,8.08,2.190136,-0.17916700000000002,1.839098,0.24415599999999998,2.98172,0.612213
809,8.09,2.001417,-0.109899,1.49952,0.243088,2.891159,0.544037
810,8.1,1.7671720000000002,-0.018614,1.1758709999999999,0.224976,2.779312,0.473724
811,8.11,1.518422,0.012325,0.963815,0.194077,2.6514740000000003,0.404495
812,8.12,1.280474,-0.009026000000000001,0.913184,0.151474,2.5236509999999996,0.344833
813,8.13,1.0902129999999999,-0.081453,1.185848,0.107803,2.404343,0.301163
814,8.14,0.921535,-0.176819,1.496695,0.07157899999999999,2.31485,0.26387
815,8.15,0.8006979999999999,-0.37648000000000004,1.8288349999999998,0.038558999999999996,2.249878,0.22978200000000001
816,8.16,0.798637,-0.566168,1.9922380000000002,0.01619,2.190216,0.193573
817,8.17,0.874609,-0.6897270000000001,2.093601,-0.018966999999999998,2.134827,0.17013499999999998
818,8.18,0.958058,-0.8075,2.1551669999999996,-0.073303,2.083694,0.15416
819,8.19,1.079184,-0.777704,2.20502,-0.128693,2.016586,0.144562
820,8.2,1.073804,-0.7504390000000001,2.3222490000000002,-0.164917,1.947342,0.147766
821,8.21,1.208102,-0.695662,2.44883,-0.173431,1.880234,0.162674
822,8.22,1.2180229999999999,-0.849476,2.580901,-0.179825,1.8077849999999998,0.176529
823,8.23,1.249702,-1.098334,2.708776,-0.195801,1.740677,0.182907
824,8.24,1.312497,-1.266218,2.6694139999999997,-0.21072399999999997,1.646942,0.182907
825,8.25,1.390703,-1.000731,2.512511,-0.23628200000000002,1.5105899999999999,0.167999
826,8.26,1.4075389999999999,-0.403752,2.015088,-0.266113,1.387009,0.147766
827,8.27,1.342293,0.47873699999999997,1.298008,-0.31404099999999996,1.292206,0.12645
828,8.28,1.1823780000000002,1.481869,0.718692,-0.369446,1.206985,0.100891
829,8.29,0.8902979999999999,2.465842,0.308259,-0.39074699999999996,1.147324,0.094498
830,8.3,0.775277,3.134024,-0.07841199999999998,-0.363052,1.131348,0.12858599999999998
831,8.31,0.865582,3.570586,-0.44752,-0.305527,1.166504,0.213806
832,8.32,1.3697979999999998,3.699003,-0.638495,-0.221375,1.214432,0.316071
833,8.33,2.108441,3.3796370000000002,-0.735575,-0.0914,1.261307,0.403427
834,8.34,2.847267,2.861711,-0.950493,0.076904,1.270905,0.45881700000000003
835,8.35,3.478593,2.293368,-1.4031280000000002,0.23562600000000003,1.218704,0.49076800000000004
836,8.36,3.9901089999999995,1.814371,-2.171595,0.333633,1.1185610000000001,0.509949
837,8.37,4.1649080000000005,1.4757129999999998,-2.7728479999999998,0.34321599999999997,0.9886020000000001,0.497162
838,8.38,4.240880000000001,1.198581,-3.007043,0.29740900000000003,0.853317,0.45881700000000003
839,8.39,4.094108,1.006558,-2.947997,0.234558,0.738266,0.397034
840,8.4,3.5753129999999995,0.744725,-2.542521,0.16531400000000002,0.6882020000000001,0.322464
841,8.41,2.761932,0.40829,-1.9353490000000002,0.10566700000000001,0.72229,0.244705
842,8.42,2.021729,0.12006199999999999,-1.56615,0.079041,0.785141,0.17546099999999998
843,8.43,1.490082,-0.27472399999999997,-1.207378,0.079041,0.846924,0.121124
844,8.44,1.061926,-0.6249180000000001,-0.9592149999999999,0.087555,0.9182889999999999,0.084915
845,8.45,0.722727,-0.9629459999999999,-0.9009879999999999,0.09820599999999999,0.964096,0.062546
846,8.46,0.464318,-1.300267,-0.892301,0.11418199999999999,0.9587709999999999,0.055084
847,8.47,0.391826,-1.613665,-0.8771459999999999,0.132294,0.9108430000000001,0.054015999999999995
848,8.48,0.3522,-1.903919,-0.8688889999999999,0.164261,0.858643,0.051879999999999996
849,8.49,0.448488,-2.103062,-0.8548610000000001,0.20047,0.8202969999999999,0.032715
850,8.5,0.5360779999999999,-2.233193,-1.000443,0.21751399999999999,0.7893979999999999,0.014603
851,8.51,0.612739,-2.2971470000000003,-1.065986,0.204742,0.775543,0.008209000000000001
852,8.52,0.7738079999999999,-2.249862,-1.087467,0.157867,0.791534,0.00502
853,8.53,0.951729,-2.1243,-0.992509,0.097137,0.841599,0.002884
854,8.54,1.145299,-1.9803240000000002,-0.810805,0.030029000000000004,0.916168,0.0060880000000000005
855,8.55,1.336938,-1.8079939999999999,-0.481076,-0.027496,1.00032,0.011414
856,8.56,1.5056450000000001,-1.5859729999999999,-0.17613099999999998,-0.061584,1.080215,0.011414
857,8.57,1.671013,-1.312344,0.065807,-0.071167,1.138809,-0.003509999999999999
858,8.58,1.716891,-1.020936,0.29530100000000004,-0.055191,1.154785,-0.032272
859,8.59,1.930604,-0.806926,0.44743599999999994,-0.026427999999999997,1.115372,-0.068481
860,8.6,2.121712,-0.6127239999999999,0.6815479999999999,0.003403000000000001,1.03334,-0.115356
861,8.61,2.308651,-0.532502,0.808469,0.01619,0.928955,-0.1633
862,8.62,2.618709,-0.659096,1.047999,0.007659999999999999,0.8245540000000001,-0.200577
863,8.63,2.745197,-0.9485370000000001,1.256248,-0.015778,0.741455,-0.241058
864,8.64,2.826768,-1.1731530000000001,1.304271,-0.057312,0.7009890000000001,-0.268753
865,8.65,2.565743,-0.231494,0.9907299999999999,-0.131882,0.638138,-0.22189299999999998
866,8.66,2.162137,0.054142,1.446453,-0.238419,0.518814,-0.143051
867,8.67,2.064994,-0.292819,2.125387,-0.2789,0.49751300000000004,-0.095123
868,8.68,2.0126459999999997,-0.688577,2.227291,-0.255463,0.518814,-0.087662
869,8.69,1.8515169999999999,-0.9228540000000001,2.11559,-0.23948699999999998,0.5145569999999999,-0.091919
870,8.7,1.753332,-1.021886,2.025599,-0.262909,0.494324,-0.096191
871,8.71,1.794531,-1.188061,1.987207,-0.306595,0.461304,-0.104706
872,8.72,1.987555,-1.231166,1.791669,-0.349197,0.425079,-0.11856099999999999
873,8.73,2.003804,-1.029435,1.4027370000000001,-0.413116,0.364365,-0.11961400000000001
874,8.74,1.407242,-0.380322,0.899091,-0.533493,0.272751,-0.084473
875,8.75,1.0292219999999999,0.585773,0.75917,-0.684753,0.197113,0.008209000000000001
876,8.76,0.891018,1.52039,0.9141239999999999,-0.75827,0.111893,0.10835299999999999
877,8.77,0.63455,2.207932,1.1194,-0.696472,-0.023392,0.191437
878,8.78,0.351103,2.636925,1.281382,-0.5292359999999999,-0.146973,0.250031
879,8.79,-0.056699,2.861964,0.9997860000000001,-0.322571,-0.224731,0.260681
880,8.8,-0.927618,3.155711,0.258608,-0.144669,-0.283325,0.22978200000000001
881,8.81,-2.145233,3.6905949999999996,-0.686283,-0.044539999999999996,-0.285446,0.161606
882,8.82,-3.507824,4.169486,-1.485365,-0.020035,-0.17466700000000002,0.062546
883,8.83,-4.654719999999999,4.703289,-1.997757,-0.036011,0.053299,-0.032272
884,8.84,-5.096096,5.043472,-2.044132,-0.063705,0.360092,-0.056763
885,8.85,-4.372318,4.991155,-1.6502740000000002,-0.034943,0.702042,-0.013092
886,8.86,-3.024227,4.670244,-1.410858,0.055603,0.9854129999999999,0.050827
887,8.87,-1.710854,3.841165,-1.2138209999999998,0.16745,1.164368,0.10940599999999999
888,8.88,-0.4217340000000001,2.69487,-1.209083,0.283569,1.266632,0.14030499999999999
889,8.89,0.567124,1.5125420000000005,-1.6596,0.383698,1.269836,0.148819
890,8.9,1.326883,0.393786,-2.253458,0.441223,1.176086,0.130722
891,8.91,1.862207,-0.59108,-2.775049,0.43589799999999995,1.014175,0.099823
892,8.92,2.253787,-1.196408,-2.999733,0.371979,0.8330690000000001,0.061478
893,8.93,2.3350619999999997,-1.292981,-2.8978650000000004,0.266525,0.660507,0.031647
894,8.94,1.93324,-1.061336,-2.323917,0.149338,0.522018,0.027389999999999998
895,8.95,1.5506149999999999,-1.1104370000000001,-1.519391,0.074768,0.432541,0.043365
896,8.96,1.246326,-1.3784319999999999,-0.8164819999999999,0.074768,0.379272,0.051879999999999996
897,8.97,0.8815219999999999,-1.661334,-0.375861,0.132294,0.348373,0.055084
898,8.98,0.536829,-1.899241,-0.204586,0.21751399999999999,0.310028,0.054015999999999995
899,8.99,0.245968,-2.148979,-0.257247,0.296356,0.267426,0.055084
900,9.0,0.20866700000000002,-2.45562,-0.33688,0.359192,0.218414,0.042297
901,9.01,0.207258,-2.757636,-0.499374,0.399673,0.155563,0.019928
902,9.02,0.24833000000000002,-2.984196,-0.696575,0.409271,0.08845499999999999,-0.0003049999999999997
903,9.03,0.341633,-3.11537,-0.758576,0.383698,0.025604,-0.001373
904,9.04,0.425571,-3.001814,-0.845219,0.333633,-0.045776,0.007141
905,9.05,0.480066,-2.73717,-0.708561,0.255875,-0.120331,0.030579000000000002
906,9.06,0.5007729999999999,-2.2852900000000003,-0.46348500000000004,0.166382,-0.199173,0.063599
907,9.07,0.49146999999999996,-1.8045220000000002,-0.07014199999999997,0.08969099999999999,-0.271606,0.089172
908,9.08,0.467283,-1.265815,0.348912,0.037491000000000003,-0.337646,0.113678
909,9.09,0.460726,-0.739564,0.865195,0.012985,-0.389847,0.131775
910,9.1,0.495935,-0.362142,1.397987,0.012985,-0.41221599999999997,0.138168
911,9.11,0.49559899999999996,-0.134157,1.9238400000000002,0.050277999999999996,-0.407959,0.14030499999999999
912,9.12,0.5054569999999999,-0.019058000000000002,2.335918,0.11418199999999999,-0.39517199999999997,0.14030499999999999
913,9.13,0.315917,-0.0005840000000000003,2.583781,0.18556199999999998,-0.373871,0.131775
914,9.14,-0.07872500000000003,-0.145286,2.710118,0.245209,-0.353638,0.115799
915,9.15,-0.5343439999999999,-0.32514,2.591955,0.273972,-0.315277,0.10195900000000001
916,9.16,-0.940782,-0.5374909999999999,2.422032,0.28569,-0.24177600000000002,0.111542
917,9.17,-1.265831,-0.645354,2.215255,0.27929699999999996,-0.120331,0.130722
918,9.18,-1.567598,-0.7597729999999999,1.95265,0.23669400000000002,0.009628000000000005,0.153091
919,9.19,-1.7519240000000003,-0.879807,1.800846,0.156799,0.13000499999999998,0.166931
920,9.2,-1.785449,-0.970476,1.844804,0.060927999999999996,0.23759499999999997,0.17439300000000002
921,9.21,-1.593185,-1.013372,1.8593669999999998,-0.031754000000000004,0.331329,0.186111
922,9.22,-1.186499,-0.980618,1.7376759999999998,-0.10951199999999998,0.362228,0.19250499999999998
923,9.23,-0.663686,-0.6754220000000001,1.30882,-0.178757,0.324936,0.194626
924,9.24,0.04302299999999998,-0.08207800000000004,0.823421,-0.253326,0.217346,0.199966
925,9.25,0.982348,0.998067,0.6930850000000001,-0.319382,0.085251,0.201019
926,9.26,2.104884,2.235191,1.09046,-0.37796,0.017075,0.189301
927,9.27,3.13827,3.298975,1.6948720000000002,-0.40779099999999996,0.072479,0.157349
928,9.28,3.522007,3.800729,1.7238470000000001,-0.33215300000000003,0.17793299999999998,0.087036
929,9.29,3.003848,3.6482339999999995,1.04557,-0.130829,0.198181,0.0007479999999999988
930,9.3,2.6728389999999997,3.0417080000000003,-0.366075,0.10566700000000001,0.154495,-0.051437000000000004
931,9.31,2.717836,2.1112759999999997,-1.744847,0.278244,0.031998,-0.05996699999999999
932,9.32,3.076157,1.324773,-2.852923,0.358139,-0.194901,-0.023743
933,9.33,3.3666089999999995,1.058714,-3.6075739999999996,0.348541,-0.48999,0.050827
934,9.34,3.655822,1.428488,-3.836158,0.263321,-0.7871859999999999,0.141373
935,9.35,3.944665,2.148102,-3.6891019999999997,0.140823,-1.053513,0.213806
936,9.36,4.047782,2.949695,-3.011806,0.021515,-1.265503,0.26387
937,9.37,3.8531800000000005,3.572221,-2.07591,-0.050934,-1.337936,0.275589
938,9.38,3.222203,3.847136,-1.218338,-0.059448,-1.2516479999999999,0.22978200000000001
939,9.39,1.7519880000000003,3.4953819999999998,-0.830925,0.0001979999999999968,-1.0375370000000002,0.125397
940,9.4,0.422042,2.8458509999999997,-0.8458760000000001,0.121643,-0.80957,0.019927999999999998
941,9.41,-0.77637,1.9325400000000001,-1.135821,0.243088,-0.5933069999999999,-0.086594
942,9.42,-1.9838919999999998,0.941203,-1.542095,0.315521,-0.390915,-0.162231
943,9.43,-2.973406,-0.11771600000000006,-1.8680139999999998,0.332565,-0.199173,-0.202713
944,9.44,-3.434417,-1.090047,-1.97965,0.309128,-0.04682900000000001,-0.20484899999999998
945,9.45,-3.432353,-1.852105,-1.9551310000000002,0.264389,0.057555999999999996,-0.175018
946,9.46,-2.9519990000000003,-2.416958,-1.863203,0.21646100000000001,0.084198,-0.138794
947,9.47,-2.078857,-2.773261,-1.606428,0.178101,0.047974,-0.10363800000000001
948,9.48,-0.978366,-2.940787,-1.305085,0.156799,3.099999999999978e-05,-0.091919
949,9.49,-0.14223799999999998,-3.046399,-1.1121969999999999,0.163193,-0.036179,-0.08872999999999999
950,9.5,0.665602,-3.034088,-0.943409,0.171707,-0.056427,-0.078079
951,9.51,1.2519879999999999,-3.023577,-0.810908,0.177032,-0.053223,-0.071686
952,9.52,1.602283,-2.861341,-0.8381040000000001,0.17598,-0.036179,-0.056763
953,9.53,1.8089279999999999,-2.565615,-0.964634,0.166382,-0.013809,-0.029068
954,9.54,1.849735,-2.1904310000000002,-1.053451,0.140823,0.024535999999999995,0.003952000000000001
955,9.55,1.7584529999999998,-1.7920220000000002,-0.9692200000000001,0.102478,0.085251,0.03804
956,9.56,1.547283,-1.342394,-0.8734719999999999,0.06304900000000001,0.167282,0.058273
957,9.57,1.311734,-0.878086,-0.698399,0.021515,0.23971599999999998,0.064667
958,9.58,1.118049,-0.479217,-0.368131,-0.008316,0.28447,0.056152
959,9.59,0.990843,-0.29934299999999997,-0.005765999999999993,-0.014709,0.299377,0.024184999999999998
960,9.6,0.935006,-0.351826,0.444129,0.004470999999999999,0.304703,-0.028015
961,9.61,1.100184,-1.1308340000000001,0.8460639999999999,0.041748,0.314285,-0.12175
962,9.62,1.221692,-1.7458810000000002,0.9090239999999999,0.06944299999999999,0.32814,-0.219757
963,9.63,0.6443800000000001,-0.363661,0.30653600000000003,0.041748,0.364365,-0.225082
964,9.64,0.233829,0.43244399999999994,0.540776,-0.073303,0.27594,-0.152649
965,9.65,0.49831800000000004,-0.07126299999999999,1.526981,-0.129761,0.21629299999999999,-0.11323499999999999
966,9.66,0.993691,-0.734649,1.904322,-0.075424,0.203506,-0.092987
967,9.67,1.449964,-1.230161,1.784852,-0.013641,0.17260699999999998,-0.08126799999999999
968,9.68,1.7588099999999998,-1.394172,1.489969,0.003403,0.11508199999999999,-0.065292
969,9.69,2.308798,-1.372535,1.299872,-0.038147,0.037323,-0.037598
970,9.7,2.891531,-1.2967229999999998,1.179296,-0.105255,-0.045776,-0.033339999999999995
971,9.71,3.268589,-1.329284,1.219792,-0.176636,-0.129929,-0.053574000000000004
972,9.72,3.394218,-1.322311,1.353505,-0.24800100000000003,-0.199173,-0.091919
973,9.73,3.012046,-1.296664,1.511042,-0.324707,-0.254562,-0.137726
974,9.74,2.608487,-1.239889,1.6691630000000002,-0.40033,-0.289719,-0.17288199999999998
975,9.75,2.075899,-1.163814,1.7515919999999998,-0.470642,-0.28118899999999997,-0.199509
976,9.76,1.2744309999999999,-0.7584350000000001,1.642149,-0.539886,-0.23751799999999998,-0.200577
977,9.77,0.282165,0.09996299999999997,1.535037,-0.633621,-0.181061,-0.16436800000000001
978,9.78,-0.732753,1.2438690000000001,1.5704989999999999,-0.7625270000000001,-0.106491,-0.094055
979,9.79,-1.400855,2.506152,2.074767,-0.871185,-0.029785000000000002,-0.01416
980,9.8,-1.998202,3.55241,2.542359,-0.8775790000000001,0.04158,0.035903999999999985
981,9.81,-2.5013490000000003,4.095871,2.524203,-0.7252350000000001,0.121475,0.040175999999999996
982,9.82,-2.939893,4.032591,1.7994240000000001,-0.47489899999999996,0.167282,0.002884000000000005
983,9.83,-3.228127,3.680096,0.5831699999999999,-0.232025,0.12573199999999998,-0.048248
984,9.84,-3.311471,3.2885690000000003,-0.613186,-0.079697,0.045837,-0.091919
985,9.85,-3.198388,2.8642950000000003,-1.6425669999999999,-0.016846,0.0010990000000000002,-0.117493
986,9.86,-3.189137,3.010801,-2.093372,-0.034943,0.061828999999999995,-0.09938
987,9.87,-3.20617,3.301998,-2.506647,-0.083954,0.193909,-0.056763
988,9.88,-2.9686060000000003,3.6028239999999996,-2.664374,-0.153198,0.33665500000000004,-0.00563
989,9.89,-2.35547,3.64004,-2.5201860000000003,-0.201126,0.453842,0.056152
990,9.9,-1.248899,3.508002,-1.9846439999999999,-0.186218,0.5507810000000001,0.096634
991,9.91,-0.08842800000000006,2.961665,-1.497477,-0.088211,0.6072390000000001,0.097687
992,9.92,0.7415189999999999,2.063944,-1.16802,0.07157899999999999,0.613632,0.072128
993,9.93,1.391632,0.8583870000000001,-1.159673,0.251602,0.5486449999999999,0.036972000000000005
994,9.94,1.7808540000000002,-0.2967520000000001,-1.5323579999999999,0.40713499999999997,0.432541,0.011414
995,9.95,1.8690380000000002,-1.186675,-2.095822,0.494492,0.281265,-0.001373
996,9.96,1.7033040000000002,-1.787109,-2.6173830000000002,0.498749,0.110825,0.008209000000000001
997,9.97,1.344614,-2.230032,-2.7392279999999998,0.447617,-0.051102000000000015,0.030579000000000002
998,9.98,0.857345,-2.468874,-2.510334,0.362396,-0.17040999999999998,0.063599
999,9.99,0.320546,-2.668934,-2.006472,0.270782,-0.24710100000000002,0.096634
1000,10.0,-0.05263400000000002,-2.763089,-1.4508860000000001,0.20579499999999998,-0.276932,0.131775
1001,10.01,-0.264818,-2.762783,-0.945892,0.173843,-0.28118899999999997,0.150955
1002,10.02,-0.352606,-2.691275,-0.467058,0.170654,-0.287582,0.158417
1003,10.03,-0.35025700000000004,-2.526254,-0.133377,0.194077,-0.303558,0.150955
1004,10.04,-0.28723200000000004,-2.300359,0.09019500000000001,0.228165,-0.340851,0.134979
1005,10.05,-0.281122,-2.05678,0.294014,0.265457,-0.382385,0.11260999999999999
1006,10.06,-0.260101,-1.80103,0.458139,0.3134,-0.415421,0.10195900000000001
1007,10.07,-0.18609,-1.497822,0.49056000000000005,0.354935,-0.433533,0.097687
1008,10.08,-0.148831,-1.191275,0.499147,0.366653,-0.454834,0.098755
1009,10.09,-0.184092,-1.018514,0.666671,0.353867,-0.479324,0.099823
1010,10.1,-0.285999,-0.74368,0.8991950000000001,0.32405100000000003,-0.501709,0.105148
1011,10.11,-0.31981,-0.516918,1.185155,0.287827,-0.504898,0.10835299999999999
1012,10.12,-0.100757,-0.377096,1.465558,0.27504,-0.507034,0.099823
1013,10.13,0.12151600000000001,-0.358232,1.766688,0.286758,-0.505966,0.08277899999999999
1014,10.14,0.167317,-0.522949,2.0173520000000003,0.310196,-0.5283359999999999,0.069992
1015,10.15,0.032768999999999986,-0.792531,2.1539189999999997,0.34321599999999997,-0.560287,0.060410000000000005
1016,10.16,-0.36102199999999995,-1.0244719999999998,2.1269,0.358139,-0.583725,0.049759
1017,10.17,-0.943925,-1.171969,1.9232919999999998,0.338959,-0.554962,0.043365
1018,10.18,-1.4731450000000001,-1.295353,1.749038,0.272919,-0.477203,0.042297
1019,10.19,-1.981223,-1.343108,1.737308,0.166382,-0.34617600000000004,0.045502
1020,10.2,-2.392038,-1.2648700000000002,1.9849430000000001,0.023636000000000004,-0.175735,0.05722000000000001
1021,10.21,-2.527564,-1.1391850000000001,2.536276,-0.13720700000000002,0.03518700000000001,0.075317
1022,10.22,-2.327523,-0.994893,3.071269,-0.2789,0.24398800000000004,0.08064299999999999
1023,10.23,-1.8736389999999998,-0.85052,3.3223559999999996,-0.40033,0.40589899999999995,0.075317
1024,10.24,-1.287575,-0.654288,3.1441689999999998,-0.47171,0.44212299999999993,0.061478
1025,10.25,-0.30397199999999996,0.11375999999999999,2.263096,-0.46424899999999997,0.205627,0.017792000000000002
1026,10.26,0.646931,0.903223,1.5785870000000002,-0.447205,-0.011688000000000004,-0.012024
1027,10.27,1.7044979999999998,1.861979,1.219428,-0.48982200000000004,-0.189575,-0.039719
1028,10.28,2.468363,2.779894,1.4048610000000001,-0.555862,-0.306763,-0.072754
1029,10.29,2.898228,3.5603279999999997,1.6968,-0.551605,-0.331253,-0.10790999999999999
1030,10.3,2.795809,3.855872,1.4648459999999999,-0.41737399999999997,-0.289719,-0.147324
1031,10.31,2.4647040000000002,3.801439,0.631698,-0.197937,-0.204498,-0.178207
1032,10.32,2.200128,3.225425,-0.740283,0.025772000000000003,-0.152298,-0.19632
1033,10.33,2.177684,2.522162,-2.206023,0.18449400000000002,-0.178925,-0.181412
1034,10.34,2.331142,1.9917669999999998,-3.2808410000000006,0.245209,-0.285446,-0.11961400000000001
1035,10.35,2.538239,2.0523569999999998,-4.215954,0.169586,-0.473999,0.034836000000000006
1036,10.36,2.72246,2.499068,-4.2254059999999996,0.06518600000000001,-0.607162,0.139236
1037,10.37,2.727048,3.0203990000000003,-3.6942690000000002,-0.039215,-0.7328640000000001,0.22338899999999998
1038,10.38,2.279839,3.4279019999999996,-2.644053,-0.116974,-0.8351290000000001,0.26814299999999996
1039,10.39,1.210312,3.463797,-1.542041,-0.13295,-0.8585659999999999,0.257477
1040,10.4,0.029419999999999998,3.08149,-0.8055439999999999,-0.047729,-0.7584380000000001,0.202087
1041,10.41,-0.9606899999999999,2.28393,-0.621463,0.116318,-0.598648,0.131775
1042,10.42,-1.704147,1.142906,-0.914428,0.292084,-0.407959,0.056152
1043,10.43,-2.1228290000000003,-0.13631600000000005,-1.455549,0.404999,-0.187454,-0.008835000000000003
1044,10.44,-2.153083,-1.329077,-1.98255,0.43696599999999997,0.038391000000000015,-0.057830999999999994
1045,10.45,-1.8859439999999998,-2.3040130000000003,-2.2586619999999997,0.406067,0.206696,-0.087662
1046,10.46,-1.502062,-3.041008,-2.393518,0.331497,0.287659,-0.096191
1047,10.47,-1.0144469999999999,-3.422045,-2.3886439999999998,0.22283899999999998,0.268478,-0.087662
1048,10.48,-0.440395,-3.663771,-2.1235020000000002,0.112061,0.153442,-0.067429
1049,10.49,0.198346,-3.6394300000000004,-1.575906,0.019379,0.0021670000000000023,-0.040787000000000004
1050,10.5,0.6653180000000001,-3.539338,-1.047377,-0.033889999999999997,-0.11181600000000001,-0.024811
1051,10.51,0.9941540000000001,-3.222409,-0.707922,-0.054123000000000004,-0.18850699999999998,-0.003510000000000001
1052,10.52,1.3916110000000002,-2.787271,-0.5306029999999999,-0.064774,-0.240707,0.019928
1053,10.53,1.657257,-2.190051,-0.440729,-0.067978,-0.254562,0.042297
1054,10.54,1.8702020000000001,-1.522641,-0.30500900000000003,-0.064774,-0.219406,0.062546
1055,10.55,1.912104,-0.8862680000000001,-0.213213,-0.047729,-0.144836,0.065735
1056,10.56,1.785842,-0.36703800000000003,-0.10683,-0.014709,-0.051102,0.052948
1057,10.57,1.434495,-0.006617000000000012,0.018037000000000004,0.035355000000000004,0.057555999999999996,0.019928
1058,10.58,0.937574,0.171368,0.033413,0.087555,0.16514600000000002,-0.025879
1059,10.59,0.47796000000000005,0.118476,0.043131,0.131226,0.258896,-0.075943
1060,10.6,0.178045,-0.03246,0.23480399999999998,0.15361,0.344116,-0.117493
1061,10.61,0.181004,-0.705381,0.47992399999999996,0.156799,0.421875,-0.17713900000000002
1062,10.62,0.361282,-2.126793,0.7068909999999999,0.145081,0.46235699999999996,-0.275146
1063,10.63,0.277537,-2.390211,0.585266,0.091812,0.46235699999999996,-0.327347
1064,10.64,-0.327104,-0.661916,0.17993399999999998,-0.036011000000000015,0.385666,-0.247452
1065,10.65,0.14460699999999999,-0.79114,1.256721,-0.191544,0.221619,-0.155838
1066,10.66,0.9504360000000001,-1.1381459999999999,1.942505,-0.20751999999999998,0.16835,-0.115356
1067,10.67,1.7125830000000002,-1.6364040000000002,1.926086,-0.1436,0.140656,-0.10790999999999999
1068,10.68,2.2672220000000003,-1.8548360000000002,1.513586,-0.082886,0.06076,-0.105774
1069,10.69,2.680207,-1.643272,1.214006,-0.085022,-0.038314999999999995,-0.094055
1070,10.7,3.194762,-1.3716899999999999,1.203471,-0.122299,-0.153366,-0.095123
1071,10.71,3.4853059999999996,-1.1429200000000002,1.439293,-0.156387,-0.257751,-0.11003099999999999
1072,10.72,3.4623120000000003,-1.024307,1.683589,-0.180893,-0.316345,-0.143051
1073,10.73,2.98589,-0.795779,1.874852,-0.211777,-0.320602,-0.180344
1074,10.74,2.428476,-0.5936279999999999,2.010552,-0.253326,-0.284393,-0.208038
1075,10.75,1.822582,-0.551487,1.985624,-0.308716,-0.210892,-0.22189299999999998
1076,10.76,1.123852,-0.17638900000000002,1.6232790000000001,-0.370514,-0.12460299999999999,-0.232544
1077,10.77,-0.03710000000000002,0.914026,1.123145,-0.47171,-0.023392,-0.217621
1078,10.78,-1.1821629999999999,2.426949,0.9355690000000001,-0.62085,0.06501799999999999,-0.181412
1079,10.79,-2.1425419999999997,3.9056319999999998,1.341317,-0.743347,0.047974,-0.13028
1080,10.8,-3.1299509999999997,4.964447,2.021929,-0.7358859999999999,-0.0042270000000000025,-0.09724400000000001
1081,10.81,-3.722961,5.340404,2.258486,-0.538818,-0.025528,-0.071686
1082,10.82,-3.9922660000000003,5.076121,1.490745,-0.220306,-0.003159000000000002,-0.057830999999999994
1083,10.83,-4.173038,4.463605,0.15196200000000004,0.07690399999999999,0.033066000000000005,-0.065292
1084,10.84,-4.1446819999999995,3.667782,-1.149684,0.243088,0.061828999999999995,-0.090851
1085,10.85,-4.170426,3.227839,-2.144837,0.25054899999999997,0.133194,-0.115356
1086,10.86,-3.9187510000000003,3.0994770000000003,-2.606486,0.157867,0.265289,-0.12175
1087,10.87,-3.422211,3.247087,-2.813828,0.042816,0.425079,-0.105774
1088,10.88,-2.617619,3.3417160000000004,-2.580148,-0.049866000000000014,0.5731510000000001,-0.05996699999999999
1089,10.89,-1.3503610000000001,3.221485,-2.078927,-0.081818,0.6882020000000001,-0.004578
1090,10.9,-0.028974999999999976,2.687716,-1.7160520000000001,-0.048798,0.7425229999999999,0.026320999999999997
1091,10.91,1.003263,1.8257299999999999,-1.553595,0.036423000000000004,0.720154,0.034836
1092,10.92,1.6372799999999998,0.735075,-1.676034,0.164261,0.629608,0.030579000000000002
1093,10.93,1.9793060000000002,-0.350814,-2.062487,0.289963,0.492188,0.025253
1094,10.94,2.0766310000000003,-1.194185,-2.482996,0.370911,0.321747,0.025253
1095,10.95,1.882522,-1.818889,-2.667884,0.389023,0.14491300000000001,0.040175999999999996
1096,10.96,1.485021,-2.338967,-2.5679279999999998,0.359192,-0.0010219999999999954,0.050827
1097,10.97,0.975241,-2.7172169999999998,-2.207528,0.300613,-0.092636,0.062546
1098,10.98,0.509674,-3.001882,-1.7822619999999998,0.24201999999999999,-0.11288499999999999,0.069992
1099,10.99,0.090266,-3.128127,-1.332426,0.195145,-0.091568,0.07638500000000001
1100,11.0,-0.359279,-3.239918,-0.883175,0.161057,-0.044708,0.081711
1101,11.01,-0.638892,-3.200616,-0.49466899999999997,0.13868699999999998,3.099999999999978e-05,0.09024
1102,11.02,-0.764092,-3.089628,-0.21459299999999998,0.129105,0.027739999999999997,0.089172
1103,11.03,-0.8422719999999999,-2.877281,0.008348999999999995,0.130173,0.027739999999999997,0.089172
1104,11.04,-0.782605,-2.5346599999999997,0.158131,0.140823,0.014953999999999999,0.083847
1105,11.05,-0.773936,-2.129033,0.12326300000000001,0.15361,0.0032350000000000013,0.08596799999999999
1106,11.06,-0.708705,-1.682143,-0.063172,0.164261,-0.02446,0.09343
1107,11.07,-0.7360260000000001,-1.234007,-0.243869,0.16745,-0.054291,0.106216
1108,11.08,-0.643383,-0.8927450000000001,-0.302008,0.163193,-0.084122,0.12751800000000002
1109,11.09,-0.551407,-0.5307350000000001,-0.249133,0.145081,-0.116074,0.147766
1110,11.1,-0.386669,-0.190375,0.01725499999999999,0.116318,-0.143768,0.17546099999999998
1111,11.11,-0.22367800000000002,0.049578,0.50054,0.08969099999999999,-0.153366,0.20954899999999999
1112,11.12,-0.014800999999999996,0.203002,1.059165,0.083298,-0.154419,0.23938
1113,11.13,0.11657100000000001,0.10264300000000001,1.591904,0.10141,-0.16188,0.26174899999999995
1114,11.14,0.221205,-0.041245,1.960064,0.13336199999999998,-0.177856,0.270264
1115,11.15,0.0058100000000000105,-0.417354,2.272752,0.16745,-0.201294,0.257477
1116,11.16,-0.171739,-0.760888,2.361199,0.17598,-0.214081,0.24150100000000002
1117,11.17,-0.300591,-0.971276,2.45357,0.14827,-0.21514899999999998,0.208481
1118,11.18,-0.5407,-1.301975,2.557544,0.100342,-0.198105,0.16480999999999998
1119,11.19,-0.7379720000000001,-1.408018,2.663305,0.053466999999999994,-0.125671,0.14562999999999998
1120,11.2,-0.814411,-1.364655,2.787153,0.011917,-0.005294999999999994,0.12751800000000002
1121,11.21,-0.886166,-1.18792,2.78967,-0.018966999999999998,0.160889,0.113678
1122,11.22,-0.927458,-0.917042,2.770845,-0.041336000000000005,0.32814,0.096634
1123,11.23,-0.889181,-0.624012,2.665062,-0.056259,0.44426000000000004,0.068924
1124,11.24,-0.85588,-0.548501,2.626276,-0.061584,0.481537,0.036972000000000005
1125,11.25,-0.63583,-0.668563,2.476832,-0.053055,0.44426000000000004,0.009276999999999999
1126,11.26,-0.2751720000000001,-0.818774,2.0581139999999998,-0.051987,0.316422,-0.010970999999999998
1127,11.27,0.10585799999999998,-0.6394380000000001,1.304339,-0.041336000000000005,0.055434999999999984,-0.026947000000000002
1128,11.28,0.45365,0.03537499999999999,0.24635,-0.056259,-0.202362,-0.026947000000000002
1129,11.29,1.516015,1.1295389999999998,-0.48358,-0.11483800000000001,-0.41435200000000005,-0.016296
1130,11.3,3.093403,2.574749,-0.64804,-0.21923800000000002,-0.553894,-0.051437000000000004
1131,11.31,3.8184089999999995,3.967771,-0.10944900000000002,-0.324707,-0.530472,-0.141998
1132,11.32,3.487165,4.858438,0.51225,-0.36091599999999996,-0.360016,-0.253845
1133,11.33,2.6499740000000003,5.204289,0.8337100000000001,-0.307663,-0.172531,-0.344391
1134,11.34,1.856609,4.8653319999999995,0.549469,-0.142548,-0.070267,-0.387009
1135,11.35,1.722521,4.082574,-0.43378199999999995,0.080093,-0.07986499999999999,-0.38061500000000004
1136,11.36,1.7357490000000002,3.3547559999999996,-1.618464,0.289963,-0.22047399999999998,-0.33267199999999997
1137,11.37,1.526902,2.8323110000000002,-2.592508,0.418854,-0.448441,-0.23147600000000002
1138,11.38,1.355483,2.569276,-3.196571,0.455078,-0.654037,-0.095123
1139,11.39,1.1289209999999998,2.570019,-3.3858940000000004,0.41671800000000003,-0.798904,0.043365
1140,11.4,0.8331770000000001,2.625556,-3.270924,0.356003,-0.852173,0.14030499999999999
1141,11.41,0.25351799999999997,2.423317,-2.927848,0.311264,-0.808502,0.190369
1142,11.42,-0.463812,1.804878,-2.584129,0.304871,-0.667877,0.183975
1143,11.43,-1.139549,0.9986790000000001,-2.512741,0.319778,-0.48678599999999994,0.143494
1144,11.44,-1.670671,-0.031185999999999988,-2.560229,0.320847,-0.296112,0.096634
1145,11.45,-2.085527,-0.907034,-2.555505,0.29740900000000003,-0.11288499999999999,0.047623
1146,11.46,-2.161755,-1.623816,-2.435237,0.25906399999999996,0.06076,0.014603
1147,11.47,-1.956009,-2.07136,-2.257342,0.198349,0.2099,-0.001373
1148,11.48,-1.42382,-2.3620810000000003,-2.027314,0.126968,0.307892,0.002884
1149,11.49,-0.656666,-2.5548439999999997,-1.705639,0.041748,0.339859,0.013535
1150,11.5,0.014311999999999991,-2.58062,-1.268882,-0.040268,0.297241,0.02951
1151,11.51,0.49390600000000007,-2.5880900000000002,-0.768179,-0.10206599999999999,0.23652600000000001,0.040175999999999996
1152,11.52,0.761092,-2.591189,-0.299794,-0.11804200000000001,0.179001,0.052948
1153,11.53,0.9765440000000001,-2.5764400000000003,-0.06489500000000001,-0.097794,0.133194,0.068924
1154,11.54,1.115705,-2.533248,0.0767,-0.056259,0.10656700000000001,0.089172
1155,11.55,1.2714940000000001,-2.422308,0.038702999999999994,-0.009384,0.101242,0.10195900000000001
1156,11.56,1.398993,-2.319575,-0.15347100000000002,0.030029000000000004,0.10656700000000001,0.106216
1157,11.57,1.585157,-2.023096,-0.326506,0.050277999999999996,0.127869,0.10835299999999999
1158,11.58,1.764925,-1.570227,-0.580673,0.049210000000000004,0.151306,0.09024
1159,11.59,1.698074,-1.0831540000000002,-0.769859,0.031097000000000003,0.166214,0.058273
1160,11.6,1.520075,-0.590025,-0.7751779999999999,0.014053,0.16835,0.022064
1161,11.61,1.249978,-0.138766,-0.650174,0.004471000000000001,0.180069,-0.021622
1162,11.62,0.9717040000000001,0.177607,-0.519969,0.00019799999999999983,0.21629299999999999,-0.06315599999999999
1163,11.63,0.717275,0.23990100000000003,-0.324962,-0.00618,0.277008,-0.106842
1164,11.64,0.723275,-0.08164799999999997,0.109854,-0.01152,0.345184,-0.15477
1165,11.65,0.990757,-1.4321320000000002,0.514305,-0.018966999999999998,0.398453,-0.237869
1166,11.66,0.824772,-1.4331969999999998,0.552249,-0.065842,0.44319200000000003,-0.291122
1167,11.67,0.034187000000000016,0.48839,0.202951,-0.191544,0.41655,-0.20484899999999998
1168,11.68,-0.06962499999999999,0.30895,1.377995,-0.340683,0.280197,-0.10790999999999999
1169,11.69,0.633157,-0.214955,2.2167790000000003,-0.32150300000000004,0.23120100000000002,-0.053574000000000004
1170,11.7,1.29787,-0.589838,2.121622,-0.20858800000000002,0.186462,-0.03653
1171,11.71,1.6925990000000002,-0.721766,1.6680529999999998,-0.127625,0.094849,-0.026947000000000002
1172,11.72,2.096789,-0.452654,1.1924709999999998,-0.128693,-0.01806600000000001,-0.009903
1173,11.73,2.680281,-0.25988,1.081027,-0.173431,-0.11288499999999999,-0.001373
1174,11.74,3.319778,-0.281767,1.094925,-0.202194,-0.200226,-0.017349
1175,11.75,3.573556,-0.496367,1.1152090000000001,-0.21816999999999998,-0.292908,-0.058899
1176,11.76,3.5171639999999997,-0.7697689999999999,1.246292,-0.26823400000000003,-0.388779,-0.10363800000000001
1177,11.77,3.191693,-1.111744,1.5383850000000001,-0.346008,-0.43991099999999994,-0.12600699999999998
1178,11.78,2.596809,-1.523236,1.8234099999999998,-0.41098,-0.44523599999999997,-0.14093
1179,11.79,1.873634,-1.845853,1.792332,-0.45573400000000003,-0.39624000000000004,-0.143051
1180,11.8,0.8481709999999999,-1.761177,1.480779,-0.5185850000000001,-0.308884,-0.144119
1181,11.81,-0.5361009999999999,-1.106759,1.028737,-0.630432,-0.228989,-0.127075
1182,11.82,-1.515579,-0.234013,1.104007,-0.787018,-0.191711,-0.100449
1183,11.83,-2.420008,0.7862930000000001,1.7247150000000002,-0.9223180000000001,-0.21621700000000002,-0.07914700000000001
1184,11.84,-3.0648310000000003,1.461206,2.3828080000000003,-0.9287110000000001,-0.25669899999999995,-0.050385
1185,11.85,-3.138201,1.909175,2.275097,-0.776367,-0.292908,-0.018417
1186,11.86,-3.002828,2.2998540000000003,1.37315,-0.543076,-0.34936500000000004,0.00502
1187,11.87,-2.829307,2.650169,0.17226600000000014,-0.327896,-0.420746,0.024184999999999998
1188,11.88,-2.892122,3.128258,-0.846115,-0.19368,-0.45163000000000003,0.023132
1189,11.89,-3.0642669999999996,3.5581129999999996,-1.523124,-0.137207,-0.37493899999999997,0.010345
1190,11.9,-3.264888,4.145504,-1.8861189999999999,-0.11483800000000001,-0.194901,0.001816
1191,11.91,-3.4067230000000004,4.723744,-1.9333939999999998,-0.083954,0.07141099999999999,0.017792
1192,11.92,-3.127452,5.02503,-1.653411,-0.040268,0.355835,0.036972000000000005
1193,11.93,-2.559556,4.933075,-1.1934049999999998,-0.006180000000000002,0.579544,0.067871
1194,11.94,-1.929354,4.202046,-0.898631,0.033234,0.6903229999999999,0.10407999999999999
1195,11.95,-1.252731,3.0780790000000002,-0.839888,0.12271099999999999,0.679672,0.139236
1196,11.96,-0.47521599999999997,1.6634779999999998,-1.126015,0.2612,0.584869,0.16053800000000001
1197,11.97,0.06670700000000003,0.16272899999999998,-1.6894580000000001,0.385834,0.457031,0.167999
1198,11.98,0.382159,-1.136755,-2.193879,0.447617,0.326004,0.162674
1199,11.99,0.7180949999999999,-2.051002,-2.471606,0.433762,0.19178800000000001,0.14030499999999999
1200,12.0,1.035677,-2.6245119999999997,-2.346545,0.370911,0.087387,0.095566
1201,12.01,1.224032,-2.934457,-2.088573,0.304871,0.0010990000000000028,0.02951
1202,12.02,1.149289,-3.040197,-1.6867169999999998,0.249481,-0.039383,-0.038665999999999985
1203,12.03,0.9897090000000001,-3.060881,-1.385129,0.228165,-0.03299,-0.087662
1204,12.04,0.685289,-2.898699,-1.1307209999999999,0.23562600000000003,3.099999999999978e-05,-0.11428800000000001
1205,12.05,0.297662,-2.691019,-1.015587,0.255875,0.038391,-0.111099
1206,12.06,-0.14426499999999998,-2.448066,-0.8810120000000001,0.2612,0.06288099999999999,-0.086594
1207,12.07,-0.506097,-2.1512759999999997,-0.745487,0.251602,0.06501799999999999,-0.048248
1208,12.08,-0.763524,-1.6871169999999998,-0.5415949999999999,0.234558,0.047974,-0.018417
1209,12.09,-0.9432459999999999,-1.173239,-0.314481,0.22283899999999998,0.019211000000000002,0.008209000000000001
1210,12.1,-1.087457,-0.654038,-0.16517,0.226044,-0.027663999999999998,0.030579000000000002
1211,12.11,-1.04799,-0.23594200000000004,-0.049951999999999996,0.23030100000000003,-0.10116599999999999,0.049759
1212,12.12,-0.867002,0.09915400000000002,0.040944,0.243088,-0.18425,0.072128
1213,12.13,-0.6183529999999999,0.29233600000000004,0.247989,0.255875,-0.25882,0.094498
1214,12.14,-0.39111799999999997,0.382812,0.411699,0.272919,-0.31101999999999996,0.11260999999999999
1215,12.15,-0.15739,0.40715500000000004,0.776452,0.298477,-0.324875,0.12858599999999998
1216,12.16,0.049095,0.379997,1.0253809999999999,0.320847,-0.29823299999999997,0.13284300000000002
1217,12.17,0.131353,0.28165100000000004,1.210697,0.34642,-0.249237,0.13711500000000001
1218,12.18,0.072953,-0.004678999999999989,1.3083799999999999,0.371979,-0.18425,0.13711500000000001
1219,12.19,-0.21769499999999997,-0.3871,1.343566,0.39115900000000003,-0.108627,0.134979
1220,12.2,-0.825631,-0.7068369999999999,1.396266,0.384766,-0.013809000000000002,0.125397
1221,12.21,-1.4423350000000001,-1.00586,1.555995,0.365585,0.10336300000000001,0.115799
1222,12.22,-1.930548,-1.262472,1.579018,0.3134,0.22480799999999998,0.10407999999999999
1223,12.23,-2.313018,-1.430657,1.638726,0.23562600000000003,0.351578,0.084915
1224,12.24,-2.4367080000000003,-1.428669,1.73731,0.13656600000000002,0.467682,0.072128
1225,12.25,-2.427327,-1.419469,1.933038,0.023636000000000004,0.571014,0.052948
1226,12.26,-2.160046,-1.423904,2.216093,-0.087143,0.687134,0.052948
1227,12.27,-1.628714,-1.318925,2.505259,-0.188339,0.764893,0.052948
1228,12.28,-0.966722,-1.284736,2.620027,-0.25972,0.765961,0.042297
1229,12.29,-0.23934,-1.389464,2.558362,-0.300201,0.67009,0.033783
1230,12.3,0.616788,-1.520433,2.283272,-0.323639,0.47300699999999996,0.035904000000000005
1231,12.31,1.634488,-1.312665,1.915271,-0.339615,0.16409300000000002,0.055084
1232,12.32,2.7237970000000002,-0.5823649999999999,1.508263,-0.363052,-0.16188,0.084915
1233,12.33,3.958852,0.531414,1.39772,-0.41737399999999997,-0.34617600000000004,0.106216
1234,12.34,4.995033,1.944893,1.373217,-0.48982200000000004,-0.324875,0.069992
1235,12.35,4.712789,3.1081990000000004,1.195685,-0.538818,-0.23219299999999998,-0.043991
1236,12.36,2.885998,3.7524879999999996,0.62778,-0.501541,-0.146973,-0.170746
1237,12.37,1.0976620000000001,3.72281,-0.285115,-0.376892,-0.078796,-0.249588
1238,12.38,0.228675,3.412242,-1.32956,-0.221375,-0.074524,-0.271957
1239,12.39,0.540274,3.458364,-2.417129,-0.09353600000000001,-0.189575,-0.249588
1240,12.4,0.94068,3.6026230000000004,-2.967335,-0.031754000000000004,-0.41648900000000005,-0.188858
1241,12.41,1.8273970000000002,4.1927389999999995,-3.167949,-0.041336000000000005,-0.6519010000000001,-0.07275399999999999
1242,12.42,2.831599,4.958626000000001,-3.056604,-0.106323,-0.8585659999999999,0.054015999999999995
1243,12.43,3.4521889999999997,5.39328,-2.350158,-0.21816999999999998,-0.9246059999999999,0.152023
1244,12.44,3.3896089999999997,5.205984,-1.345292,-0.284225,-0.869217,0.196762
1245,12.45,2.1945360000000003,4.639501999999999,-0.6336609999999999,-0.20539899999999997,-0.709427,0.156281
1246,12.46,1.145095,3.835002,-0.623761,0.011916999999999995,-0.5144810000000001,0.09024
1247,12.47,0.175091,2.3139830000000003,-0.8481299999999999,0.262253,-0.318481,0.025253
1248,12.48,-0.778147,0.4377110000000001,-1.115561,0.46785,-0.121399,-0.024811
1249,12.49,-1.562324,-1.427918,-1.329418,0.583969,0.0746,-0.061035
1250,12.5,-2.259611,-2.974223,-1.554717,0.616989,0.243988,-0.08340499999999999
1251,12.51,-2.8211049999999998,-4.060778,-1.919142,0.577576,0.381409,-0.08340499999999999
1252,12.52,-2.9898700000000002,-4.738467,-2.302768,0.476379,0.471954,-0.077011
1253,12.53,-2.558577,-5.153923000000001,-2.5826439999999997,0.351746,0.48367299999999996,-0.075943
1254,12.54,-1.612693,-5.2176849999999995,-2.635907,0.22283899999999998,0.39311199999999996,-0.08872999999999999
1255,12.55,-0.7246060000000001,-4.831068,-2.38008,0.10566700000000001,0.257828,-0.117493
1256,12.56,-0.06000099999999998,-4.3340190000000005,-1.9863259999999998,-0.001923000000000001,0.142776,-0.131332
1257,12.57,0.494066,-3.707775,-1.5494350000000001,-0.096741,0.078873,-0.12600699999999998
1258,12.58,0.988289,-2.925404,-1.08499,-0.170242,0.06288099999999999,-0.105774
1259,12.59,1.482112,-2.0047919999999997,-0.651583,-0.21072399999999997,0.086319,-0.068481
1260,12.6,1.9115849999999999,-1.039752,-0.27908099999999997,-0.22349499999999997,0.139587,-0.031204000000000003
1261,12.61,2.2065759999999996,-0.16258,-0.03433,-0.20645100000000002,0.20776399999999998,-0.0003049999999999997
1262,12.62,2.3757919999999997,0.593175,0.257114,-0.160645,0.296188,0.017792
1263,12.63,2.251488,1.22046,0.461449,-0.083954,0.398453,0.010345
1264,12.64,1.904123,1.7096930000000001,0.6269319999999999,0.025772000000000003,0.49325600000000003,-0.024811
1265,12.65,1.341141,1.8160830000000001,0.685662,0.158936,0.5625,-0.08340499999999999
1266,12.66,0.771208,1.707281,0.7469020000000001,0.295288,0.599777,-0.16755699999999998
1267,12.67,0.237485,1.228209,0.692575,0.403946,0.5976560000000001,-0.277283
1268,12.68,-0.06113699999999999,0.18065499999999998,0.801033,0.45719899999999997,0.567825,-0.385941
1269,12.69,0.420595,-2.100307,0.825666,0.452942,0.531601,-0.5180359999999999
1270,12.7,0.48084799999999994,-2.456732,0.336919,0.365585,0.512436,-0.574493
1271,12.71,0.09256900000000001,0.2124210000000003,-0.490147,0.151474,0.459167,-0.412567
1272,12.72,0.9045629999999999,-0.324685,0.9458290000000001,-0.123367,0.291916,-0.254913
1273,12.73,2.096977,-1.132163,2.04275,-0.194733,0.263153,-0.153702
1274,12.74,2.928411,-2.0831169999999997,2.1247759999999998,-0.155319,0.217346,-0.09724400000000001
1275,12.75,3.373696,-2.77563,1.7464819999999999,-0.13508599999999998,0.107635,-0.06636
1276,12.76,3.3785190000000003,-2.853194,1.5049649999999999,-0.21391300000000002,-0.023392000000000003,-0.025879
1277,12.77,3.449335,-2.864758,1.7350830000000002,-0.328964,-0.140579,0.0060880000000000005
1278,12.78,3.413922,-2.761923,2.1804419999999998,-0.40779099999999996,-0.243912,-0.006698999999999999
1279,12.79,2.885507,-2.571556,2.570535,-0.434418,-0.315277,-0.048248
1280,12.8,2.133516,-2.158371,2.585573,-0.43974300000000005,-0.306763,-0.078079
1281,12.81,1.252891,-1.559584,2.27069,-0.43974300000000005,-0.210892,-0.08126799999999999
1282,12.82,0.307518,-0.7560100000000001,1.601879,-0.448273,-0.058548,-0.049316000000000006
1283,12.83,-0.8532709999999999,0.33824299999999996,0.579859,-0.508987,0.11828599999999999,0.009276999999999999
1284,12.84,-2.044742,1.737707,0.079341,-0.671982,0.206696,0.08064299999999999
1285,12.85,-3.144213,3.021471,0.7377859999999999,-0.8818360000000001,0.139587,0.156281
1286,12.86,-3.5598910000000004,4.788257,2.892329,-0.853073,-0.053223,0.341644
1287,12.87,-3.088683,5.103714,2.523746,-0.555862,-0.090515,0.402359
1288,12.88,-2.723011,5.089224,1.206244,-0.24800100000000003,-0.167206,0.41194200000000003
1289,12.89,-2.557954,4.784944,-0.244688,-0.051987000000000005,-0.230057,0.362946
1290,12.9,-2.409626,4.3864529999999995,-1.169934,0.015121,-0.189575,0.271332
1291,12.91,-2.294531,4.087097,-1.671328,0.006592000000000002,-0.045776,0.182907
1292,12.92,-2.190143,4.116495,-2.069269,-0.030685000000000004,0.12573200000000004,0.130722
1293,12.93,-1.626579,4.29073,-2.232287,-0.053055,0.267426,0.139236
1294,12.94,-0.8214040000000001,4.1148739999999995,-2.19815,-0.033889999999999997,0.370743,0.169067
1295,12.95,-0.210527,3.484519,-2.1522,0.039626999999999996,0.44638100000000003,0.17865
1296,12.96,0.348448,2.418787,-2.23136,0.149338,0.47300699999999996,0.14562999999999998
1297,12.97,0.573459,1.281377,-2.473235,0.256927,0.474075,0.08277899999999999
1298,12.98,0.614545,0.21208600000000002,-2.698274,0.336823,0.42826800000000004,0.005019999999999997
1299,12.99,0.634617,-0.808459,-2.7483869999999997,0.380508,0.323883,-0.074875
1300,13.0,0.48766000000000004,-1.6099780000000001,-2.766096,0.376236,0.200302,-0.149445
1301,13.01,0.251053,-2.215822,-2.647202,0.328308,0.089523,-0.20484899999999998
1302,13.02,-0.011179000000000008,-2.757084,-2.316306,0.268646,0.0032350000000000018,-0.23359699999999997
1303,13.03,-0.15238,-3.208946,-1.878439,0.212189,-0.050033999999999995,-0.222946
1304,13.04,-0.24686599999999997,-3.533553,-1.47979,0.164261,-0.087311,-0.190994
1305,13.05,-0.250321,-3.70155,-1.1066770000000001,0.12271099999999999,-0.11821,-0.14093
1306,13.06,-0.26118800000000003,-3.656796,-0.824793,0.097137,-0.154419,-0.087662
1307,13.07,-0.33303699999999997,-3.493103,-0.6337189999999999,0.073715,-0.201294,-0.037598
1308,13.08,-0.35041500000000003,-3.279491,-0.523033,0.052399,-0.254562,0.002884000000000001
1309,13.09,-0.408085,-2.943251,-0.335081,0.035355000000000004,-0.29823299999999997,0.033783
1310,13.1,-0.497762,-2.472084,-0.169889,0.023636,-0.333389,0.051879999999999996
1311,13.11,-0.650781,-2.079672,-0.010205,0.017242,-0.364288,0.058273
1312,13.12,-0.770418,-1.590281,0.08482100000000001,0.014053,-0.386658,0.060410000000000005
1313,13.13,-0.87087,-1.09674,0.154909,0.020447,-0.400497,0.059341
1314,13.14,-0.9076700000000001,-0.610974,0.232073,0.018311,-0.406891,0.059341
1315,13.15,-0.8596219999999999,-0.199953,0.33958499999999997,0.018311,-0.405823,0.062546
1316,13.16,-0.75852,0.10553900000000001,0.535882,0.011917,-0.41114799999999996,0.075317
1317,13.17,-0.575116,0.267488,0.8454510000000001,0.008728,-0.405823,0.103027
1318,13.18,-0.30938699999999997,0.333376,1.257981,0.014053,-0.387726,0.131775
1319,13.19,-0.044428,0.343333,1.605047,0.038558999999999996,-0.351501,0.149887
1320,13.2,-0.065488,0.253726,1.881182,0.074768,-0.325928,0.14562999999999998
1321,13.21,-0.309342,0.090533,1.9695470000000002,0.106735,-0.32913200000000004,0.114731
1322,13.22,-0.811114,-0.197928,1.9933130000000001,0.12803599999999998,-0.334457,0.075317
1323,13.23,-1.286504,-0.46709300000000004,1.9815080000000003,0.11845399999999999,-0.305695,0.044433999999999994
1324,13.24,-1.600771,-0.747224,2.082711,0.08969099999999999,-0.2258,0.026320999999999997
1325,13.25,-1.7878939999999999,-0.934832,2.148566,0.050277999999999996,-0.10328699999999999,0.019928
1326,13.26,-1.922289,-1.155419,2.334917,-0.010451999999999996,0.057555999999999996,0.025253
1327,13.27,-1.966682,-1.28151,2.4881580000000003,-0.07862899999999999,0.22587600000000002,0.047623
1328,13.28,-1.8178439999999998,-1.38442,2.563243,-0.148926,0.36648600000000003,0.07638500000000001
1329,13.29,-1.514302,-1.481606,2.543372,-0.203262,0.44319200000000003,0.10407999999999999
1330,13.3,-1.200473,-1.482365,2.416821,-0.24693299999999999,0.45063800000000004,0.12858599999999998
1331,13.31,-0.69892,-1.48205,2.040266,-0.273575,0.371811,0.141373
1332,13.32,-0.17348200000000005,-1.179689,1.529423,-0.293808,0.187531,0.144562
1333,13.33,0.6153090000000001,-0.401506,0.9940110000000001,-0.32043499999999997,-0.015944999999999997,0.14030499999999999
1334,13.34,1.689639,0.603162,0.851506,-0.38649,-0.141647,0.139236
1335,13.35,3.016427,1.946236,1.175553,-0.498337,-0.137375,0.110474
1336,13.36,3.67181,3.36277,1.6218139999999999,-0.583557,-0.026595999999999998,0.013534999999999998
1337,13.37,3.422081,4.451556,1.7293830000000001,-0.538818,0.094849,-0.13028
1338,13.38,2.292112,4.823477,0.965745,-0.356659,0.183258,-0.26236
1339,13.39,1.4909,4.4527790000000005,-0.3387349999999999,-0.125504,0.22267199999999998,-0.326279
1340,13.4,1.315675,3.6494839999999997,-1.778501,0.044952,0.188583,-0.315628
1341,13.41,1.480141,2.886219,-2.827196,0.124847,0.05011,-0.244263
1342,13.42,1.918498,2.539128,-3.273943,0.126968,-0.167206,-0.134537
1343,13.43,2.325401,2.5722080000000003,-3.2923940000000003,0.06625399999999998,-0.406891,-0.010970999999999995
1344,13.44,2.7715110000000003,2.786946,-2.829754,-0.036011,-0.646576,0.10728499999999999
1345,13.45,2.7871240000000004,3.0035529999999997,-1.972479,-0.11483800000000001,-0.8649600000000001,0.181854
1346,13.46,2.1548990000000003,3.2158830000000003,-1.026404,-0.11911,-0.973618,0.201019
1347,13.47,1.097752,3.0603990000000003,-0.512505,-0.016846,-0.9352719999999999,0.17865
1348,13.48,0.15979100000000007,2.5049349999999997,-0.667319,0.166382,-0.8255459999999999,0.13711500000000001
1349,13.49,-0.750332,1.49651,-1.030972,0.35281399999999996,-0.6646880000000001,0.094498
1350,13.5,-1.322786,0.408551,-1.554959,0.48384099999999997,-0.446304,0.052948
1351,13.51,-1.6652369999999999,-0.6224770000000001,-1.94107,0.541367,-0.198105,0.014602999999999996
1352,13.52,-1.917415,-1.492507,-2.318784,0.530701,0.031998,-0.015228
1353,13.53,-1.9727540000000001,-2.194444,-2.479756,0.458267,0.218414,-0.031204000000000003
1354,13.54,-1.773932,-2.860373,-2.3622669999999997,0.353867,0.32814,-0.039719
1355,13.55,-1.297513,-3.347556,-2.1456009999999996,0.24841300000000002,0.344116,-0.053574000000000004
1356,13.56,-0.794991,-3.599361,-1.66441,0.15998800000000002,0.28979499999999997,-0.070618
1357,13.57,-0.3387140000000001,-3.625075,-1.11237,0.096085,0.215225,-0.08872999999999999
1358,13.58,0.081157,-3.420835,-0.548284,0.06518600000000001,0.170486,-0.100449
1359,13.59,0.393466,-3.085057,-0.16533699999999998,0.068375,0.151306,-0.106842
1360,13.6,0.7098140000000001,-2.6134619999999997,-0.071281,0.091812,0.136398,-0.090851
1361,13.61,1.079744,-2.041819,-0.18139,0.119522,0.12254300000000001,-0.07380700000000001
1362,13.62,1.374053,-1.470633,-0.36731199999999997,0.13761900000000002,0.11296099999999999,-0.048248
1363,13.63,1.731609,-0.9296840000000001,-0.469962,0.155731,0.10656700000000001,-0.020554
1364,13.64,2.091773,-0.47032700000000005,-0.48361800000000005,0.168518,0.120407,-0.0024410000000000005
1365,13.65,2.2623729999999997,-0.05218600000000001,-0.5340520000000001,0.17598,0.155563,0.0007480000000000001
1366,13.66,2.133049,0.363716,-0.450024,0.179169,0.192856,-0.018417
1367,13.67,1.6915959999999999,0.580858,-0.25045,0.178101,0.22799699999999998,-0.054641999999999996
1368,13.68,1.13774,0.589032,0.09578500000000001,0.172775,0.262085,-0.10363800000000001
1369,13.69,0.643736,0.35170500000000005,0.44574300000000006,0.170654,0.290848,-0.16436800000000001
1370,13.7,0.443112,-0.341505,0.770188,0.168518,0.332397,-0.23893699999999998
1371,13.71,0.42285200000000006,-1.690867,0.955449,0.15361,0.380341,-0.345459
1372,13.72,0.175952,-1.671992,0.7846069999999999,0.095016,0.422943,-0.37954699999999997
1373,13.73,-0.35836599999999996,-0.236144,0.381703,-0.02536,0.39311199999999996,-0.297516
1374,13.74,-0.129598,-0.6421819999999999,1.4248339999999995,-0.156387,0.251434,-0.202713
1375,13.75,0.663479,-1.269104,1.981961,-0.14999400000000002,0.154495,-0.14093
1376,13.76,1.303289,-2.009614,1.867376,-0.094604,0.075668,-0.11323499999999999
1377,13.77,1.799268,-2.415717,1.4763709999999999,-0.087143,-0.036179,-0.08872999999999999
1378,13.78,2.264328,-2.393185,1.383171,-0.159592,-0.16934200000000002,-0.070618
1379,13.79,2.761135,-2.266331,1.6008850000000001,-0.266113,-0.287582,-0.070618
1380,13.8,3.075493,-2.156689,2.008491,-0.347076,-0.360016,-0.091919
1381,13.81,3.034482,-1.830269,2.051366,-0.393936,-0.369614,-0.116425
1382,13.82,2.564679,-1.422256,1.9855060000000002,-0.421646,-0.320602,-0.138794
1383,13.83,1.751291,-0.902914,1.562461,-0.445068,-0.23751799999999998,-0.141998
1384,13.84,0.4329540000000001,0.16418700000000006,0.827736,-0.49408,-0.145905,-0.12600699999999998
1385,13.85,-1.0959299999999998,1.520624,0.399979,-0.638947,-0.038314999999999995,-0.06955
1386,13.86,-2.44286,3.123278,0.954606,-0.853073,0.040512,0.006088000000000003
1387,13.87,-3.7175160000000003,4.346966,2.099022,-0.961731,0.076736,0.075317
1388,13.88,-4.530296,4.969768,2.8157669999999997,-0.831772,0.104431,0.14562999999999998
1389,13.89,-4.624333999999999,5.037565,2.238858,-0.522842,0.134262,0.221268
