,ts,ax,ay,az,wx,wy,wz
0,0.0,-0.045372,-0.031353,-0.038662,-0.058044000000000005,0.043106,0.03154
1,0.01,-0.025317,-0.063526,-0.081968,-0.058044000000000005,0.039917,0.033676
2,0.02,0.010139000000000002,-0.104102,-0.058941999999999994,-0.06018099999999999,0.045242000000000004,0.036864999999999995
3,0.03,-0.032197,-0.066101,-0.030449000000000007,-0.064438,0.046294999999999996,0.041122000000000006
4,0.04,-0.008408000000000002,-0.115531,-0.036883,-0.067642,0.0495,0.042191
5,0.05,-0.031459,-0.054214,-0.081961,-0.07083099999999999,0.051620000000000006,0.044327
6,0.06,-0.008693999999999997,-0.061684,-0.056863,-0.075089,0.0495,0.049651999999999995
7,0.07,0.036656,-0.06579199999999999,-0.069757,-0.077225,0.0495,0.049651999999999995
8,0.08,-0.01142,0.022632,-0.089882,-0.08255,0.047363,0.048583999999999995
9,0.09,-0.024659,0.015027999999999996,-0.044495,-0.08680700000000001,0.047363,0.053909000000000006
10,0.1,0.022847,0.024796000000000002,-0.039008,-0.088943,0.050568,0.053909000000000006
11,0.11,-0.005878,0.064703,-0.017425,-0.092133,0.045242000000000004,0.05072
12,0.12,0.068605,0.11893299999999997,-0.0008979999999999994,-0.099594,0.04097,0.052841
13,0.13,0.098036,0.199771,0.0029670000000000013,-0.10173,0.037781,0.049651999999999995
14,0.14,0.125076,0.220347,0.043815,-0.102783,0.037781,0.047516
15,0.15,0.178269,0.19636800000000001,0.027833999999999998,-0.107056,0.036713,0.043259
16,0.16,0.21801199999999998,0.186462,0.08016000000000001,-0.109177,0.034575999999999996,0.035797
17,0.17,0.178629,0.183428,0.102773,-0.10491900000000001,0.033524,0.034729
18,0.18,0.204541,0.14386400000000002,0.101691,-0.098526,0.034575999999999996,0.030472000000000003
19,0.19,0.179009,0.16587000000000002,0.091241,-0.09106399999999999,0.026062000000000002,0.024078
20,0.2,0.15407300000000002,0.131693,0.077635,-0.081482,0.009018,0.020888999999999998
21,0.21,0.209558,0.115022,0.069603,-0.07296799999999999,-0.009094,0.020888999999999998
22,0.22,0.19351300000000002,0.099324,0.036134,-0.066574,-0.034652999999999996,0.018753
23,0.23,0.19198199999999999,0.114105,-0.025553,-0.06018099999999999,-0.058089999999999996,0.018753
24,0.24,0.22143200000000002,0.07093200000000001,-0.089363,-0.058044000000000005,-0.081528,0.021957
25,0.25,0.288302,0.113346,-0.110294,-0.055923,-0.09963999999999999,0.025146
26,0.26,0.269486,0.073541,-0.13209100000000001,-0.054854999999999994,-0.113495,0.025146
27,0.27,0.280225,0.048634,-0.133345,-0.053787,-0.13053900000000002,0.025146
28,0.28,0.210166,0.016798,-0.08878,-0.055923,-0.156097,0.027282999999999998
29,0.29,0.166234,-0.028681999999999992,-0.099958,-0.055923,-0.17421,0.027282999999999998
30,0.3,0.08513899999999999,-0.051427,-0.044037,-0.055923,-0.202972,0.028350999999999998
31,0.31,0.063186,-0.10623599999999998,-0.0303,-0.050598000000000004,-0.218948,0.025146
32,0.32,0.013866000000000005,-0.11271500000000001,-0.020569,-0.044205,-0.22853099999999998,0.024078
33,0.33,0.021038000000000008,-0.136351,-0.08416500000000003,-0.033554,-0.23706100000000002,0.023025999999999998
34,0.34,0.00715,-0.128469,-0.12148699999999998,-0.03035,-0.24771100000000001,0.019821000000000002
35,0.35,0.028533,-0.173734,-0.15798900000000002,-0.022888,-0.245575,0.021957
36,0.36,0.057711,-0.11478900000000002,-0.21514499999999998,-0.019699,-0.24664299999999997,0.024078
37,0.37,0.084918,-0.11170899999999999,-0.26674200000000003,-0.020766999999999997,-0.248779,0.023025999999999998
38,0.38,0.111748,-0.077819,-0.246376,-0.03035,-0.257294,0.026215
39,0.39,0.11257,-0.066954,-0.215995,-0.038879000000000004,-0.266891,0.028350999999999998
40,0.4,0.12354100000000001,-0.057559000000000006,-0.138625,-0.043137,-0.290329,0.028350999999999998
41,0.41,0.12816,-0.074929,-0.17995,-0.044205,-0.309494,0.029404000000000003
42,0.42,0.198739,-0.113257,-0.214797,-0.047394,-0.330795,0.030472000000000003
43,0.43,0.190691,-0.119101,-0.141546,-0.047394,-0.349976,0.030472000000000003
44,0.44,0.22829899999999997,-0.099727,-0.07681,-0.053787,-0.363831,0.030472000000000003
45,0.45,0.24281599999999998,-0.069622,0.031465000000000014,-0.050598000000000004,-0.374481,0.03154
46,0.46,0.23738,0.027024,0.13381600000000002,-0.051651,-0.3862,0.03154
47,0.47,0.238242,0.060892999999999996,0.170208,-0.048462,-0.396851,0.028350999999999998
48,0.48,0.176722,0.146926,0.234206,-0.038879000000000004,-0.408569,0.026215
49,0.49,0.169566,0.157993,0.18681099999999998,-0.028229,-0.418152,0.023025999999999998
50,0.5,0.145174,0.13894,0.191246,-0.01651,-0.425613,0.020888999999999998
51,0.51,0.107794,0.103497,0.169497,-0.011184999999999999,-0.4384,0.021957
52,0.52,0.073963,-0.021708,0.11468699999999998,-0.006912000000000001,-0.45011899999999994,0.021957
53,0.53,0.11340599999999999,-0.140689,0.022843000000000002,-0.010117000000000001,-0.47035200000000005,0.024078
54,0.54,0.086137,-0.13991800000000001,0.052833000000000005,-0.018631,-0.49058500000000005,0.033676
55,0.55,0.134204,-0.135448,0.021552,-0.026093,-0.505508,0.039001
56,0.56,0.174004,-0.166053,0.07744999999999999,-0.033554,-0.523621,0.039001
57,0.57,0.137863,-0.058713,0.08379400000000001,-0.036743,-0.533203,0.045395
58,0.58,0.199983,-0.052662,0.09597,-0.038879000000000004,-0.539597,0.042191
59,0.59,0.184184,0.042839,0.121174,-0.037811000000000004,-0.547058,0.039001
60,0.6,0.17089100000000002,0.011537,0.145069,-0.035675,-0.551315,0.036864999999999995
61,0.61,0.12218299999999999,0.02897,0.108608,-0.031418,-0.560898,0.033676
62,0.62,0.087099,0.018290999999999998,0.094739,-0.03035,-0.574753,0.034729
63,0.63,0.075791,0.013551999999999998,0.097963,-0.029282,-0.5875239999999999,0.034729
64,0.64,0.064912,-0.008884999999999999,0.11813199999999999,-0.028229,-0.6035159999999999,0.033676
65,0.65,0.053655999999999995,-0.016267,0.131827,-0.025024,-0.610962,0.035797
66,0.66,0.022956999999999998,-0.017352,0.162628,-0.021835,-0.62056,0.034729
67,0.67,0.064323,-0.039928,0.091774,-0.020766999999999997,-0.630142,0.039001
68,0.68,0.052277,-0.050291,0.056382,-0.021835,-0.639725,0.041122000000000006
69,0.69,0.071132,-0.052016,0.052314,-0.027161,-0.64505,0.043259
70,0.7,0.068965,-0.053417,0.049911000000000004,-0.032486,-0.648254,0.042191
71,0.71,0.077288,-0.081787,0.040352,-0.037811000000000004,-0.651443,0.045395
72,0.72,0.052947,-0.081015,0.026975,-0.043137,-0.655701,0.043259
73,0.73,0.060086,-0.059797,0.079029,-0.049530000000000005,-0.66423,0.048583999999999995
74,0.74,0.036198,-0.026219,0.096026,-0.055923,-0.668488,0.049651999999999995
75,0.75,0.012276000000000006,-0.030882,0.13984000000000002,-0.058044000000000005,-0.677017,0.048583999999999995
76,0.76,-0.010856999999999999,0.013494999999999998,0.18315,-0.056976,-0.682343,0.05072
77,0.77,-0.043521,-0.008272,0.183142,-0.05271900000000001,-0.6855319999999999,0.05072
78,0.78,-0.035182,0.007701999999999994,0.20186099999999998,-0.051651,-0.6929930000000001,0.056046000000000006
79,0.79,-0.072615,-0.06916900000000001,0.13199,-0.051651,-0.695129,0.056046000000000006
80,0.8,-0.041803,-0.10513,0.135633,-0.050598000000000004,-0.695129,0.057114
81,0.81,-0.17443399999999998,-0.14571199999999998,0.10789800000000001,-0.051651,-0.6929930000000001,0.056046000000000006
82,0.82,-0.15978,-0.188654,0.090555,-0.056976,-0.6866,0.060302999999999995
83,0.83,-0.068843,-0.152912,0.06963,-0.064438,-0.677017,0.08692899999999999
84,0.84,-0.246574,-0.094592,0.072394,-0.075089,-0.671692,0.057114
85,0.85,-0.22676100000000002,-0.056398000000000004,0.08731799999999999,-0.081482,-0.6599729999999999,0.06349199999999999
86,0.86,-0.308276,-0.03808,0.09161799999999999,-0.09106399999999999,-0.64505,0.06562799999999999
87,0.87,-0.335913,-0.018595,0.12013399999999999,-0.099594,-0.629074,0.067764
88,0.88,-0.33805,-0.006392000000000003,0.14566700000000002,-0.109177,-0.618423,0.06456
89,0.89,-0.41484899999999997,-0.051433000000000006,0.18057,-0.11770599999999999,-0.597122,0.062439
90,0.9,-0.404463,-0.054374,0.226306,-0.127289,-0.581146,0.061371
91,0.91,-0.375198,0.022331999999999998,0.24694000000000002,-0.130493,-0.55983,0.07309
92,0.92,-0.400696,-0.033257,0.272933,-0.125168,-0.534271,0.076279
93,0.93,-0.28226,-0.045534,0.285648,-0.131546,-0.51297,0.069885
94,0.94,-0.324745,0.037119,0.359101,-0.137939,-0.498047,0.051773
95,0.95,-0.258686,0.07908,0.361635,-0.139008,-0.477814,0.046448
96,0.96,-0.22022399999999998,0.123326,0.405109,-0.135818,-0.45970200000000006,0.045395
97,0.97,-0.175811,0.16228,0.350961,-0.133682,-0.45011899999999994,0.037933
98,0.98,-0.174519,0.161083,0.341244,-0.126221,-0.44477799999999995,0.037933
99,0.99,-0.17430299999999999,0.184633,0.358171,-0.120895,-0.447983,0.036864999999999995
100,1.0,-0.179778,0.226228,0.308444,-0.113449,-0.44265699999999997,0.033676
101,1.01,-0.12321800000000001,0.228659,0.284727,-0.10598800000000001,-0.43412799999999996,0.028350999999999998
102,1.02,-0.19076600000000002,0.27126999999999996,0.294273,-0.10173,-0.414963,0.021957
103,1.03,-0.167905,0.275621,0.289758,-0.09640499999999999,-0.396851,0.017685
104,1.04,-0.174758,0.330104,0.24753699999999998,-0.088943,-0.37554899999999997,0.009170999999999999
105,1.05,-0.196475,0.31449699999999997,0.25654499999999997,-0.08255,-0.35318,-0.0014800000000000006
106,1.06,-0.20855500000000002,0.322221,0.20039400000000002,-0.07296799999999999,-0.329742,-0.006804999999999999
107,1.07,-0.16510999999999998,0.34123600000000004,0.218592,-0.064438,-0.307373,-0.014266999999999998
108,1.08,-0.15806099999999998,0.28166599999999997,0.195104,-0.058044000000000005,-0.286057,-0.024918
109,1.09,-0.15733,0.24099299999999999,0.20663099999999998,-0.048462,-0.265823,-0.029175
110,1.1,-0.18843800000000002,0.14726199999999998,0.14368399999999998,-0.039932,-0.248779,-0.033447000000000005
111,1.11,-0.195979,0.081817,0.134421,-0.031418,-0.231735,-0.036636
112,1.12,-0.21359099999999998,0.063537,0.10236100000000001,-0.023956,-0.220016,-0.037704
113,1.13,-0.23442600000000002,0.026384000000000005,0.08608099999999999,-0.014374000000000001,-0.197647,-0.037704
114,1.14,-0.289056,0.007789000000000002,0.030388,-0.009048,-0.17421,-0.040894
115,1.15,-0.320427,0.001431,0.005631000000000001,-0.001587,-0.156097,-0.038773
116,1.16,-0.319152,0.030667000000000003,-0.088296,0.00267,-0.13266,-0.0345
117,1.17,-0.34471599999999997,0.028787,-0.12500799999999998,0.005875,-0.11561600000000001,-0.031311
118,1.18,-0.331658,-0.006696,-0.174618,0.009064000000000001,-0.096451,-0.031311
119,1.19,-0.300239,0.012898999999999996,-0.19045499999999999,0.009064000000000001,-0.077271,-0.030243
120,1.2,-0.300103,-0.018953,-0.174649,0.010131999999999999,-0.053833000000000006,-0.025986000000000002
121,1.21,-0.269815,-0.013974,-0.176755,0.012253,-0.036788999999999995,-0.025986000000000002
122,1.22,-0.247623,-0.047085,-0.16112200000000002,0.015456999999999999,-0.012283,-0.023849000000000002
123,1.23,-0.22206900000000002,-0.071574,-0.144758,0.017578,0.005828999999999999,-0.022781
124,1.24,-0.214398,-0.046959,-0.185661,0.020782,0.029251,-0.017456
125,1.25,-0.187493,-0.08930700000000001,-0.084861,0.022919,0.0495,-0.014266999999999998
126,1.26,-0.176741,-0.010765999999999998,-0.099266,0.029297000000000004,0.069733,-0.008942
127,1.27,-0.11228900000000001,-0.014691999999999998,-0.090787,0.037827,0.08252000000000001,-0.007873999999999999
128,1.28,-0.092026,-0.019063999999999998,-0.13460999999999998,0.039963,0.098495,-0.004684000000000001
129,1.29,-0.048408,-0.05281,-0.235342,0.038895,0.110214,-0.000412
130,1.3,-0.0034280000000000005,-0.043902,-0.26015900000000003,0.032501,0.11981199999999999,0.004912999999999999
131,1.31,0.069202,-0.075446,-0.23133299999999998,0.021851,0.13151600000000002,0.004913
132,1.32,0.062761,-0.063657,-0.199238,0.015456999999999999,0.142181,0.011307
133,1.33,0.056669000000000004,-0.015109999999999997,-0.119104,0.013321000000000001,0.154953,0.013428
134,1.34,0.0552,-0.0009890000000000003,-0.013450000000000009,0.017578,0.163483,0.014496
135,1.35,0.051897000000000006,0.022743,0.039342,0.023972,0.173065,0.016632
136,1.36,0.084801,0.082465,0.095726,0.03569,0.181595,0.013428
137,1.37,0.083571,0.06632,0.099939,0.044219999999999995,0.192245,0.013428
138,1.38,0.059623,0.030027,0.074642,0.051666,0.202896,0.010239
139,1.39,0.0723,0.0003020000000000002,-0.015135,0.053801999999999996,0.212479,0.001709
140,1.4,0.06890399999999999,-0.07640599999999999,-0.037672000000000004,0.051666,0.206085,0.0006410000000000001
141,1.41,0.034706,-0.045362,-0.060873000000000003,0.046341,0.20503200000000002,0.002777
142,1.42,-0.016056,-0.053741,-0.0574,0.044219999999999995,0.20076,0.004913
143,1.43,-0.0069,-0.092171,-0.079608,0.043151999999999996,0.199707,0.005981
144,1.44,-0.028848000000000002,-0.081952,-0.091644,0.045288,0.202896,0.009170999999999999
145,1.45,-0.016551,-0.095532,-0.09165,0.042083999999999996,0.212479,0.009170999999999999
146,1.46,-0.002783,-0.110171,-0.11477899999999999,0.038895,0.226334,0.01236
147,1.47,0.015889,-0.07321699999999999,-0.105875,0.031432999999999996,0.248703,0.015563999999999998
148,1.48,0.040146,-0.131326,-0.123116,0.026108,0.26361100000000004,0.01236
149,1.49,0.015933999999999997,-0.129088,-0.10051900000000001,0.014388999999999999,0.276398,0.011307
150,1.5,0.020708,-0.148028,-0.08477699999999999,0.005875,0.287048,0.014496
151,1.51,0.015854,-0.15254,-0.046761000000000004,-0.0015870000000000005,0.29025300000000004,0.015563999999999998
152,1.52,-0.0061649999999999995,-0.130411,0.026099000000000004,-0.004790999999999999,0.28918499999999997,0.018753
153,1.53,-0.026986,-0.13211199999999998,0.006010999999999999,-0.0037229999999999997,0.291306,0.019821000000000002
154,1.54,-0.036607,-0.071753,0.036081,-0.006912000000000001,0.295578,0.026215
155,1.55,0.031927,-0.039033,0.062652,-0.012237999999999999,0.298767,0.030472000000000003
156,1.56,0.099485,0.02266,0.018902,-0.017563,0.305161,0.04007
157,1.57,0.155636,0.09008,0.055934000000000005,-0.026093,0.30409200000000003,0.041122000000000006
158,1.58,0.23481300000000002,0.15962300000000001,0.085146,-0.033554,0.307297,0.039001
159,1.59,0.278483,0.255332,0.127416,-0.037811000000000004,0.30835,0.034729
160,1.6,0.338054,0.286552,0.20659899999999998,-0.038879000000000004,0.315811,0.029404000000000003
161,1.61,0.38545999999999997,0.32250300000000004,0.33301,-0.034607,0.314743,0.023025999999999998
162,1.62,0.458801,0.37606300000000004,0.363838,-0.027161,0.324341,0.01236
163,1.63,0.463145,0.350582,0.38549,-0.012238000000000002,0.33073400000000003,0.002777
164,1.64,0.477988,0.28037,0.385365,0.00267,0.33924899999999997,-0.007873999999999999
165,1.65,0.45704700000000004,0.190598,0.328324,0.019714,0.348831,-0.014266999999999998
166,1.66,0.367578,0.14288,0.264782,0.032501,0.34777800000000003,-0.020659999999999998
167,1.67,0.32512800000000003,0.065483,0.181533,0.042083999999999996,0.340317,-0.021729
168,1.68,0.24473000000000003,0.048058,0.082115,0.049545,0.32753000000000004,-0.022781
169,1.69,0.22474499999999997,0.027686000000000002,0.036681,0.052734,0.30835,-0.020659999999999998
170,1.7,0.189638,0.051641,-0.083301,0.057007,0.29025300000000004,-0.016403
171,1.71,0.204151,0.080322,-0.14088,0.053801999999999996,0.27214099999999997,-0.015335
172,1.72,0.248717,0.060479,-0.17924600000000002,0.051666,0.25296,-0.018524000000000002
173,1.73,0.20861999999999997,0.071153,-0.19652999999999998,0.050613,0.23911999999999997,-0.018524000000000002
174,1.74,0.1955,-0.055581000000000005,-0.14484,0.043151999999999996,0.223129,-0.018524000000000002
175,1.75,0.161092,-0.158725,-0.126255,0.034622,0.21675100000000003,-0.013199
176,1.76,0.142448,-0.142742,-0.062659,0.033569,0.21675100000000003,-0.015335
177,1.77,0.11666199999999999,-0.117854,-0.074487,0.033569,0.21675100000000003,-0.013199
178,1.78,0.107927,-0.092374,-0.05284,0.034622,0.21994,-0.012131
179,1.79,0.113159,-0.020378999999999998,-0.057745000000000005,0.030364999999999996,0.214615,-0.006804999999999999
180,1.8,0.12131800000000001,0.085583,-0.015794999999999997,0.028244,0.217804,0.0006409999999999996
181,1.81,0.195294,0.12553599999999998,0.023489000000000003,0.02504,0.21568299999999999,0.004913
182,1.82,0.150587,0.11828499999999999,0.040201,0.030364999999999996,0.217804,0.007034
183,1.83,0.158003,0.127169,0.094167,0.041016000000000004,0.21887199999999998,0.004913
184,1.84,0.130686,0.13610799999999998,0.145957,0.048477,0.223129,-0.000412
185,1.85,0.139625,0.134847,0.118646,0.054871,0.22207600000000002,-0.004684000000000001
186,1.86,0.096183,0.12818,0.134338,0.05806,0.22207600000000002,-0.007873999999999999
187,1.87,0.07763099999999999,0.11975699999999999,0.153555,0.06552100000000001,0.212479,-0.008942
188,1.88,0.058425,0.070608,0.091448,0.066589,0.210358,-0.003616
189,1.89,0.11437699999999999,0.06311,0.12133599999999999,0.06552100000000001,0.210358,-0.00148
190,1.9,0.089877,0.017286000000000003,0.103681,0.06765700000000001,0.217804,-0.00148
191,1.91,0.16864400000000002,-0.012336000000000005,0.053838,0.06977799999999999,0.23379499999999998,-0.002548
192,1.92,0.198212,0.004661,-0.017268000000000002,0.06871000000000001,0.246567,-0.007873999999999999
193,1.93,0.25909499999999996,0.082371,-0.028562999999999998,0.063385,0.258286,-0.015335
194,1.94,0.30889,0.07234600000000001,-0.0039429999999999995,0.053801999999999996,0.264679,-0.021729
195,1.95,0.329919,0.058026999999999995,0.054064999999999995,0.046341,0.27214099999999997,-0.031311
196,1.96,0.35060399999999997,0.053938,0.06478400000000001,0.043151999999999996,0.277466,-0.036636
197,1.97,0.291667,0.0027270000000000003,0.066687,0.043151999999999996,0.28598,-0.04303
198,1.98,0.291154,-0.031779,0.061819000000000006,0.044219999999999995,0.29451,-0.054749
199,1.99,0.271384,-0.048117,0.059783,0.042083999999999996,0.30941799999999997,-0.059005999999999996
200,2.0,0.184111,-0.057138,-0.019685,0.041016000000000004,0.317947,-0.060074
201,2.01,0.170854,-0.065472,-0.071309,0.039963,0.32966599999999996,-0.063263
202,2.02,0.166642,-0.08959,-0.13248,0.038895,0.342438,-0.064331
203,2.03,0.186251,-0.10641600000000001,-0.200649,0.036758,0.355225,-0.066467
204,2.04,0.20517399999999997,-0.15642999999999999,-0.26003699999999996,0.026108,0.35736100000000004,-0.064331
205,2.05,0.203888,-0.12006300000000002,-0.278828,0.014388999999999999,0.352036,-0.063263
206,2.06,0.20667199999999997,-0.11895599999999999,-0.30340300000000003,0.007996,0.35096700000000003,-0.056870000000000004
207,2.07,0.22634,-0.151201,-0.339266,0.004807,0.353104,-0.055817
208,2.08,0.22957199999999997,-0.185893,-0.398308,-0.0015870000000000005,0.36055,-0.055817
209,2.09,0.222865,-0.202943,-0.401963,-0.00798,0.37440500000000004,-0.055817
210,2.1,0.257269,-0.226096,-0.48145200000000005,-0.017563,0.38612399999999997,-0.060074
211,2.11,0.272514,-0.153443,-0.528967,-0.032486,0.39784200000000003,-0.059005999999999996
212,2.12,0.331993,-0.10495299999999999,-0.5041720000000001,-0.044205,0.406357,-0.060074
213,2.13,0.321089,-0.068011,-0.453536,-0.053787,0.414886,-0.063263
214,2.14,0.35996500000000003,-0.059889,-0.385535,-0.05271900000000001,0.423401,-0.066467
215,2.15,0.320745,-0.02667,-0.416181,-0.05271900000000001,0.425537,-0.068588
216,2.16,0.331743,-0.10348399999999999,-0.49344799999999994,-0.054854999999999994,0.423401,-0.065399
217,2.17,0.385733,-0.12626600000000002,-0.5274760000000001,-0.053787,0.41914399999999996,-0.066467
218,2.18,0.341681,-0.135947,-0.50644,-0.061249,0.41700699999999996,-0.065399
219,2.19,0.40821199999999996,-0.101357,-0.5286850000000001,-0.064438,0.41700699999999996,-0.065399
220,2.2,0.41453599999999996,-0.07686799999999999,-0.486029,-0.061249,0.41700699999999996,-0.067535
221,2.21,0.439579,-0.059595,-0.42582600000000004,-0.055923,0.415955,-0.068588
222,2.22,0.46170500000000003,0.014292999999999997,-0.379128,-0.05271900000000001,0.418076,-0.071793
223,2.23,0.456113,0.020363,-0.38128,-0.042068,0.418076,-0.073914
224,2.24,0.46701099999999995,0.041527,-0.406456,-0.034607,0.418076,-0.07925399999999999
225,2.25,0.48369399999999996,0.039352,-0.407414,-0.027161,0.415955,-0.080307
226,2.26,0.503483,0.040962,-0.415234,-0.021835,0.41275,-0.085632
227,2.27,0.4953,0.094168,-0.41336300000000004,-0.01651,0.40316799999999997,-0.0867
228,2.28,0.5130239999999999,0.11202000000000001,-0.344317,-0.001587,0.389313,-0.087769
229,2.29,0.43067700000000003,0.043033999999999996,-0.34689200000000003,0.020782,0.372269,-0.088837
230,2.3,0.429737,0.083638,-0.40219699999999997,0.038895,0.35736100000000004,-0.084579
231,2.31,0.40868699999999997,0.021634999999999998,-0.44480299999999995,0.049545,0.341385,-0.080307
232,2.32,0.418274,0.036012999999999996,-0.398936,0.055938999999999996,0.331787,-0.07925399999999999
233,2.33,0.44125299999999995,0.079947,-0.43473500000000004,0.062332000000000005,0.332855,-0.07925399999999999
234,2.34,0.455147,0.032522,-0.391934,0.064453,0.33924899999999997,-0.07498200000000001
235,2.35,0.48275100000000004,-0.025256,-0.403455,0.07084700000000001,0.345642,-0.07925399999999999
236,2.36,0.525085,-0.103876,-0.46308299999999997,0.06977799999999999,0.342438,-0.078186
237,2.37,0.47058199999999994,-0.117822,-0.453585,0.064453,0.325394,-0.081375
238,2.38,0.463789,-0.124054,-0.440086,0.048477,0.31048600000000004,-0.08244299999999999
239,2.39,0.45258400000000004,-0.071657,-0.353931,0.03569,0.29025300000000004,-0.088837
240,2.4,0.437572,0.010596000000000008,-0.28213699999999997,0.034622,0.278534,-0.101624
241,2.41,0.349394,0.106424,-0.062381999999999986,0.045288,0.279587,-0.117599
242,2.42,0.34785900000000003,0.132416,0.12802200000000002,0.06977799999999999,0.28598,-0.135712
243,2.43,0.266488,0.09676900000000001,0.289232,0.098541,0.28065500000000004,-0.142105
244,2.44,0.068539,-0.014580999999999997,0.253785,0.127304,0.27214099999999997,-0.146362
245,2.45,-0.056799,-0.129668,0.260881,0.148605,0.26149,-0.141037
246,2.46,-0.258031,-0.301089,0.257166,0.16246,0.264679,-0.12931800000000002
247,2.47,-0.48729799999999995,-0.383416,0.30345,0.167786,0.288116,-0.11439500000000001
248,2.48,-0.72444,-0.467632,0.291689,0.176315,0.32006799999999996,-0.098419
249,2.49,-0.9522870000000001,-0.599783,0.138101,0.191223,0.342438,-0.078186
250,2.5,-0.9982479999999999,-0.659017,-0.126411,0.19761700000000001,0.334991,-0.056870000000000004
251,2.51,-1.037353,-0.585791,-0.366875,0.19229100000000002,0.29237399999999997,-0.029175
252,2.52,-0.9802139999999999,-0.42119799999999996,-0.44723500000000005,0.16246,0.248703,-0.003616
253,2.53,-0.94949,-0.09164,-0.526982,0.127304,0.22419699999999998,0.007034
254,2.54,-0.846675,0.294824,-0.621464,0.09535199999999999,0.21141100000000002,0.003845
255,2.55,-0.741546,0.5747220000000001,-0.6293340000000001,0.053801999999999996,0.217804,-0.012131
256,2.56,-0.683593,0.787038,-0.567075,0.010132000000000002,0.248703,-0.037704
257,2.57,-0.626847,0.747312,-0.442596,-0.023956,0.28279099999999996,-0.066467
258,2.58,-0.6306579999999999,0.672131,-0.49497299999999994,-0.028229,0.316879,-0.09309400000000001
259,2.59,-0.704892,0.526947,-0.58268,-0.018631,0.33073400000000003,-0.12506099999999998
260,2.6,-0.688878,0.247034,-0.8507399999999999,-0.011184999999999999,0.31262199999999996,-0.144226
261,2.61,-0.669979,-0.012580999999999995,-1.1158569999999999,-0.015441999999999999,0.264679,-0.157013
262,2.62,-0.5238,-0.185534,-0.9485889999999999,-0.021835,0.21568299999999999,-0.158081
263,2.63,-0.39461199999999996,-0.22254000000000002,-0.690692,-0.037811000000000004,0.17627,-0.153809
264,2.64,-0.310794,-0.18301900000000002,-0.518626,-0.045273,0.1017,-0.153809
265,2.65,-0.297687,-0.151996,-0.49546,-0.048462,0.007949999999999999,-0.160202
266,2.66,-0.43702799999999997,-0.074459,-0.417261,-0.039932,-0.09111,-0.171921
267,2.67,-0.600901,-0.042512,-0.36344899999999997,-0.023956,-0.155029,-0.17724600000000001
268,2.68,-0.813238,0.00081,-0.332021,-0.010117000000000001,-0.17846700000000001,-0.18364
269,2.69,-0.9414049999999999,-0.050802999999999994,-0.250578,-0.0026550000000000002,-0.179535,-0.18896500000000002
270,2.7,-1.061668,-0.06655900000000001,-0.12900999999999999,-0.004790999999999999,-0.155029,-0.201752
271,2.71,-1.258167,-0.106275,-0.079731,-0.011184999999999999,-0.11561600000000001,-0.21666
272,2.72,-1.387044,-0.291108,-0.023975,-0.0037230000000000006,-0.06662,-0.23690799999999998
273,2.73,-1.507758,-0.5184840000000001,-0.12225,0.0112,-0.026137999999999998,-0.259277
274,2.74,-1.514616,-0.929976,-0.22353699999999999,0.018646,-0.003769,-0.296555
275,2.75,-1.690148,-1.893046,-0.43836400000000003,-0.010117000000000001,-0.022934,-0.41481
276,2.76,-1.643146,0.17219800000000007,-0.731513,-0.215714,0.0036930000000000023,-0.369003
277,2.77,-0.867974,0.471413,-0.193502,-0.078293,0.107025,-0.20600900000000003
278,2.78,-0.8638049999999999,-0.057057000000000004,-0.804679,0.003738,0.11235,-0.18470799999999998
279,2.79,-0.968347,-0.38598000000000005,-0.776469,-0.042068,0.10382100000000001,-0.187897
280,2.8,-1.071493,-0.514725,-0.669743,-0.056976,0.08038300000000001,-0.18364
281,2.81,-0.9403549999999999,-0.510618,-0.6856,-0.067642,0.083588,-0.182571
282,2.82,-0.8928159999999999,-0.66359,-0.807311,-0.07402,0.075058,-0.186844
283,2.83,-0.816739,-0.702655,-0.9423090000000001,-0.080414,0.069733,-0.18364
284,2.84,-0.755314,-0.599507,-1.117958,-0.100662,0.048431,-0.174057
285,2.85,-0.726735,-0.548044,-1.1084129999999999,-0.125168,0.013275000000000002,-0.159149
286,2.86,-0.634217,-0.484885,-1.071394,-0.14965799999999999,-0.015488,-0.138901
287,2.87,-0.6360939999999999,-0.44223500000000004,-0.996817,-0.16777,-0.047439999999999996,-0.130386
288,2.88,-0.5475180000000001,-0.394365,-0.939816,-0.179489,-0.07194500000000001,-0.11972000000000001
289,2.89,-0.611783,-0.302931,-0.928892,-0.183746,-0.09538300000000001,-0.112274
290,2.9,-0.673854,-0.188974,-0.9503739999999999,-0.184814,-0.109222,-0.10481300000000002
291,2.91,-0.735378,-0.17316800000000002,-0.8925870000000001,-0.179489,-0.113495,-0.09523
292,2.92,-0.837065,-0.267898,-0.799838,-0.1763,-0.10603299999999999,-0.085632
293,2.93,-0.949944,-0.367677,-0.784391,-0.174164,-0.090057,-0.072861
294,2.94,-0.92099,-0.419937,-0.845299,-0.181625,-0.083664,-0.063263
295,2.95,-0.9567200000000001,-0.45715200000000006,-0.947486,-0.19014,-0.082596,-0.065399
296,2.96,-0.885943,-0.48415,-1.058183,-0.20079,-0.092178,-0.063263
297,2.97,-0.888716,-0.491932,-1.266989,-0.21038800000000002,-0.10817,-0.057937999999999996
298,2.98,-0.83515,-0.41489499999999996,-1.366978,-0.23168899999999998,-0.116684,-0.045166000000000005
299,2.99,-0.819593,-0.45460600000000007,-1.281068,-0.257248,-0.11987300000000001,-0.037704
300,3.0,-0.858964,-0.24748699999999998,-1.144758,-0.27536,-0.120941,-0.025986000000000002
301,3.01,-0.849716,-0.083321,-0.9556370000000001,-0.29347199999999996,-0.127335,-0.014266999999999998
302,3.02,-0.8038770000000001,0.053020000000000005,-0.8300120000000001,-0.30093400000000003,-0.137985,-0.004684000000000001
303,3.03,-0.747945,0.17891700000000002,-0.743259,-0.31051599999999996,-0.150772,0.008102
304,3.04,-0.527724,0.41034899999999996,-0.6816939999999999,-0.313705,-0.152908,0.025146
305,3.05,-0.473529,0.628185,-0.775339,-0.30093400000000003,-0.16568,0.036864999999999995
306,3.06,-0.660205,0.523278,-0.8845120000000001,-0.284943,-0.186996,0.03154
307,3.07,-0.56748,0.922667,-1.051811,-0.262573,-0.200836,0.066696
308,3.08,-0.742532,1.027444,-1.094723,-0.235947,-0.208298,0.06881699999999999
309,3.09,-0.714013,1.01732,-1.1785459999999999,-0.20931999999999998,-0.220016,0.08267200000000001
310,3.1,-0.8453219999999999,0.9792770000000001,-1.414993,-0.1763,-0.24664299999999997,0.094391
311,3.11,-0.877921,1.1511870000000002,-1.7159659999999999,-0.131546,-0.274338,0.113571
312,3.12,-1.008167,1.162728,-2.049912,-0.087875,-0.29884299999999997,0.130615
313,3.13,-1.020797,1.151081,-2.304611,-0.053787,-0.306305,0.154053
314,3.14,-1.1349719999999999,0.9561379999999999,-2.4283669999999997,-0.032486,-0.305237,0.17002899999999999
315,3.15,-1.064933,0.649155,-2.510401,-0.028229,-0.290329,0.21051
316,3.16,-1.076533,0.449647,-2.554579,-0.032486,-0.293518,0.223282
317,3.17,-1.107546,0.516201,-2.5676400000000004,-0.037811000000000004,-0.30098,0.240326
318,3.18,-1.0581610000000001,0.7408319999999999,-2.524775,-0.051651,-0.312698,0.233948
319,3.19,-1.1522219999999999,0.8800049999999999,-2.249684,-0.071899,-0.31163,0.223282
320,3.2,-1.2985719999999998,1.037354,-1.853073,-0.084686,-0.309494,0.215836
321,3.21,-1.389286,1.065854,-1.301385,-0.102783,-0.289261,0.22435
322,3.22,-1.364269,0.9617620000000001,-0.60168,-0.109177,-0.260498,0.24778699999999998
323,3.23,-1.201926,0.9842139999999999,0.16577799999999998,-0.08680700000000001,-0.238129,0.27868699999999996
324,3.24,-1.031523,1.15856,0.7772100000000001,-0.064438,-0.21148699999999998,0.295731
325,3.25,-0.887473,1.403598,1.204964,-0.07083099999999999,-0.182724,0.28294400000000003
326,3.26,-0.904934,1.530273,1.801437,-0.11024500000000001,-0.185928,0.25737
327,3.27,-0.647779,1.4479520000000001,2.369724,-0.169907,-0.08046,0.24353000000000002
328,3.28,-0.18299000000000004,1.219462,2.776053,-0.174164,-0.04425,0.231812
329,3.29,0.432309,0.633112,2.983746,-0.13475,-0.09111,0.206238
330,3.3,1.243118,-0.15619799999999998,2.833966,-0.058044000000000005,-0.22534200000000001,0.160431
331,3.31,2.064186,-1.078558,2.507835,0.031432999999999996,-0.418152,0.137009
332,3.32,2.4744770000000003,-1.8128400000000002,2.163289,0.134766,-0.629074,0.102921
333,3.33,2.644925,-2.033419,1.4343569999999999,0.21785,-0.7196199999999999,0.059235
334,3.34,2.2229900000000002,-1.560452,0.516109,0.265793,-0.7036439999999999,0.018753
335,3.35,1.581504,-0.855799,-0.06433400000000003,0.23063699999999998,-0.602448,0.030472000000000003
336,3.36,0.4499139999999999,-0.13399899999999998,-0.19356099999999998,0.13050799999999999,-0.408569,-0.0014800000000000006
337,3.37,-0.511622,0.299567,-0.115503,0.011200000000000009,-0.134796,0.019821000000000002
338,3.38,-1.394892,0.52836,0.100781,-0.088943,0.10382100000000001,0.047516
339,3.39,-1.8548779999999998,0.577997,0.378608,-0.137939,0.243378,0.08267200000000001
340,3.4,-1.8979130000000002,0.422867,0.652454,-0.153915,0.284927,0.127411
341,3.41,-1.771359,0.156873,0.9784780000000001,-0.143265,0.278534,0.168961
342,3.42,-1.4489239999999999,-0.03767799999999999,1.159018,-0.11557,0.27320900000000004,0.217957
343,3.43,-1.056837,-0.158404,1.187353,-0.059113,0.278534,0.258438
344,3.44,-0.696375,-0.45588100000000004,1.069713,0.0005339999999999998,0.291306,0.289337
345,3.45,-0.35381399999999996,-0.7051229999999999,0.902542,0.05806,0.298767,0.313843
346,3.46,-0.107261,-0.848224,0.647393,0.09642,0.306229,0.33194
347,3.47,0.111052,-0.9943360000000001,0.376162,0.11346400000000001,0.326462,0.344727
348,3.48,0.284304,-1.175062,0.099661,0.12091099999999999,0.348831,0.353256
349,3.49,0.44685,-1.3546,-0.10123500000000002,0.106003,0.36694299999999996,0.357513
350,3.5,0.5209590000000001,-1.471476,-0.256722,0.078308,0.390381,0.361771
351,3.51,0.6860430000000001,-1.5508170000000001,-0.308053,0.043151999999999996,0.399963,0.37135300000000004
352,3.52,0.685516,-1.5738370000000002,-0.320604,0.0026699999999999988,0.411682,0.347931
353,3.53,0.777205,-1.509768,-0.32802,-0.043137,0.410629,0.319168
354,3.54,0.6484770000000001,-1.348758,-0.287556,-0.068695,0.41700699999999996,0.28613299999999997
355,3.55,0.6150979999999999,-1.129881,-0.29840700000000003,-0.079361,0.410629,0.25737
356,3.56,0.5866939999999999,-0.922558,-0.249889,-0.075089,0.390381,0.23288000000000003
357,3.57,0.480459,-0.769753,-0.197726,-0.07083099999999999,0.348831,0.20411700000000002
358,3.58,0.458108,-0.655167,-0.137938,-0.062317,0.31369,0.184937
359,3.59,0.48676400000000003,-0.681384,-0.21377100000000002,-0.046326,0.30409200000000003,0.168961
360,3.6,0.502394,-0.799639,-0.344582,-0.03035,0.305161,0.159378
361,3.61,0.526638,-0.8555280000000001,-0.477408,-0.019699,0.298767,0.14978
362,3.62,0.503778,-1.0118209999999999,-0.61783,-0.013306,0.27214099999999997,0.135941
363,3.63,0.614483,-1.050133,-0.717437,-0.013306,0.23911999999999997,0.118896
364,3.64,0.655335,-1.1704629999999998,-0.755347,-0.019699,0.206085,0.096527
365,3.65,0.675797,-1.249079,-0.8282379999999999,-0.027161,0.181595,0.06349199999999999
366,3.66,0.597971,-1.317763,-0.8536,-0.036743,0.171997,0.029404000000000003
367,3.67,0.46145600000000003,-1.221724,-0.917024,-0.051651,0.18371600000000002,-0.0036160000000000007
368,3.68,0.388887,-1.427698,-1.037723,-0.071899,0.21994,0.014496
369,3.69,0.01419200000000001,-1.143959,-1.068158,-0.085739,0.244446,-0.063263
370,3.7,-0.23072,-0.945117,-1.1946139999999998,-0.103851,0.28279099999999996,-0.09629800000000001
371,3.71,-0.460276,-0.731074,-1.307911,-0.119827,0.331787,-0.130386
372,3.72,-0.41661099999999995,-0.5029819999999999,-1.3981219999999999,-0.14221199999999998,0.345642,-0.162338
373,3.73,-0.31043899999999996,-0.346816,-1.25167,-0.151794,0.33924899999999997,-0.18045
374,3.74,-0.05504899999999999,-0.25797,-1.1125180000000001,-0.153915,0.35096700000000003,-0.185776
375,3.75,0.19462000000000002,-0.066433,-0.9231959999999999,-0.152863,0.342438,-0.17619300000000002
376,3.76,0.45682700000000004,0.150763,-0.80653,-0.16883900000000002,0.278534,-0.138901
377,3.77,0.638709,0.5640390000000001,-0.656404,-0.202927,0.199707,-0.083511
378,3.78,0.659651,0.951161,-0.477912,-0.21464499999999997,0.124069,-0.044098000000000005
379,3.79,0.659269,1.141601,-0.408595,-0.182678,0.053757000000000006,-0.028122
380,3.8,0.620859,1.367375,-0.45876300000000003,-0.129425,-0.008025999999999998,-0.037704
381,3.81,0.5678850000000001,1.668882,-0.778539,-0.047394,-0.01123,-0.025986000000000002
382,3.82,0.059522000000000026,1.671889,-1.220184,0.081497,0.022873000000000004,-0.068588
383,3.83,-0.35382800000000003,1.661529,-1.646956,0.196548,0.136856,-0.11334200000000001
384,3.84,-0.8565139999999999,1.529981,-1.9285599999999998,0.30094899999999997,0.276398,-0.157013
385,3.85,-1.380953,1.475911,-2.320268,0.372314,0.41914399999999996,-0.210281
386,3.86,-1.846093,1.396461,-2.768024,0.39682,0.568283,-0.265671
387,3.87,-2.033337,1.248833,-3.271873,0.397888,0.735535,-0.31466700000000003
388,3.88,-1.858224,1.33794,-3.615032,0.380844,0.934738,-0.34875500000000004
389,3.89,-1.403502,1.582317,-3.8331910000000002,0.375519,1.061493,-0.35835300000000003
390,3.9,-0.938524,1.8897279999999999,-3.657635,0.39361599999999997,1.124344,-0.344498
391,3.91,-0.16862099999999994,2.1790439999999998,-3.162373,0.434097,1.101974,-0.30189499999999997
392,3.92,0.784521,2.142738,-2.4411419999999997,0.47139,0.979477,-0.265671
393,3.93,2.087992,2.3826400000000003,-1.442472,0.474579,0.7813260000000001,-0.229446
394,3.94,3.622232,2.891285,-0.646315,0.412796,0.569351,-0.17619300000000002
395,3.95,5.0399199999999995,3.4490760000000003,0.6348810000000001,0.249817,0.23911999999999997,-0.102676
396,3.96,5.619999,3.15033,2.533779,0.022919,-0.075134,-0.035568
397,3.97,4.965011,2.091017,4.366091,-0.120895,-0.324417,-0.027054
398,3.98,2.9728939999999997,1.1740059999999999,5.388258,-0.112381,-0.503372,-0.050491
399,3.99,0.20794200000000007,0.496755,5.503271,0.031432999999999996,-0.47035200000000005,-0.041962
400,4.0,-2.0380979999999997,0.347376,4.656114,0.238098,-0.270081,0.010239000000000002
401,4.01,-3.224027,0.312686,3.828865,0.408539,-0.029326999999999995,0.043259
402,4.02,-3.5906309999999997,0.013384000000000036,3.194242,0.478851,0.14856000000000005,0.054977
403,4.03,-3.598271,0.08232399999999998,2.253525,0.46286000000000005,0.25721700000000003,0.094391
404,4.04,-2.7708009999999996,0.583769,1.460661,0.378708,0.344574,0.144455
405,4.05,-1.333681,1.147743,0.932442,0.24874899999999997,0.387192,0.173218
406,4.06,0.13902500000000007,1.841459,0.46567600000000003,0.115585,0.322205,0.189194
407,4.07,1.339696,2.422263,0.266216,-0.001587000000000005,0.164551,0.174286
408,4.08,1.7706819999999999,2.483444,0.4367,-0.062317,-0.045319,0.11250299999999999
409,4.09,1.187354,1.8786349999999998,0.945001,-0.077225,-0.22427399999999997,0.028350999999999998
410,4.1,0.29143,0.784184,1.465088,-0.085739,-0.28179899999999997,-0.04303
411,4.11,-0.09715599999999999,-0.14432500000000004,1.812562,-0.079361,-0.262619,-0.103745
412,4.12,-0.182908,-0.8241879999999999,1.7134779999999998,-0.061249,-0.21788000000000002,-0.154877
413,4.13,-0.23263000000000003,-1.475824,1.433532,-0.035675,-0.18486,-0.19856300000000002
414,4.14,-0.139344,-2.038136,1.0161850000000001,-0.014374000000000001,-0.175278,-0.22305300000000003
415,4.15,0.101872,-2.580526,0.623783,-0.006912000000000001,-0.18486,-0.24009699999999998
416,4.16,0.246142,-2.9484209999999997,0.17249100000000006,-0.028229,-0.204041,-0.24649000000000001
417,4.17,0.31127,-3.239231,-0.10808800000000002,-0.09320099999999999,-0.233856,-0.262466
418,4.18,0.355408,-3.24079,-0.312423,-0.14646900000000002,-0.290329,-0.24116500000000002
419,4.19,0.011234999999999995,-3.2471900000000002,-0.300888,-0.206116,-0.368088,-0.24330100000000002
420,4.2,-0.31937600000000005,-3.047558,-0.284825,-0.258316,-0.435196,-0.23477199999999998
421,4.21,-0.590599,-2.843568,-0.20318599999999998,-0.303055,-0.494858,-0.218796
422,4.22,-0.907473,-2.532439,-0.05344299999999999,-0.32969699999999996,-0.530014,-0.204956
423,4.23,-1.241778,-2.224942,0.19067500000000004,-0.339279,-0.536392,-0.200684
424,4.24,-1.503889,-1.800776,0.386179,-0.314774,-0.528946,-0.178314
425,4.25,-1.5270290000000002,-1.461651,0.48479700000000003,-0.273239,-0.520416,-0.166595
426,4.26,-1.3555979999999999,-1.150522,0.46732299999999993,-0.20931999999999998,-0.495911,-0.14315799999999998
427,4.27,-1.229538,-0.97725,0.27116,-0.141144,-0.461823,-0.121857
428,4.28,-1.083332,-0.8900870000000001,0.0012820000000000056,-0.071899,-0.420288,-0.090958
429,4.29,-0.967902,-0.906859,-0.393212,-0.011184999999999999,-0.38513200000000003,-0.063263
430,4.3,-0.910494,-0.9501790000000001,-0.721178,0.034622,-0.349976,-0.0345
431,4.31,-0.983402,-1.0708950000000002,-1.0299120000000002,0.061264,-0.314819,-0.014266999999999998
432,4.32,-1.1153469999999999,-1.272412,-1.334195,0.074051,-0.273285,0.003845
433,4.33,-1.268157,-1.5892540000000002,-1.553836,0.074051,-0.24131799999999998,0.017685
434,4.34,-1.459009,-1.880742,-1.685654,0.07191499999999999,-0.215759,0.024078
435,4.35,-1.566235,-1.999352,-1.8113669999999997,0.07084700000000001,-0.195511,0.035797
436,4.36,-1.448283,-1.866659,-1.928273,0.083633,-0.175278,0.043259
437,4.37,-1.355643,-1.632074,-2.002999,0.097473,-0.172073,0.056046000000000006
438,4.38,-0.976269,-1.091734,-2.1388599999999998,0.11665299999999999,-0.161423,0.08267200000000001
439,4.39,-0.739644,-0.782833,-2.0997939999999997,0.115585,-0.13159200000000001,0.099716
440,4.4,-0.76126,-0.650459,-1.8307669999999998,0.088959,-0.11987300000000001,0.08374
441,4.41,-1.104532,-0.56472,-1.301241,0.022919,-0.073013,0.045395
442,4.42,-1.363931,-0.31904299999999997,-0.641892,-0.075089,-0.016556,-0.0004119999999999957
443,4.43,-1.406817,0.17586300000000002,0.0006530000000000148,-0.16030899999999998,0.014343000000000003,-0.033447000000000005
444,4.44,-1.169529,0.789907,0.45143,-0.22316,0.012206999999999999,-0.048355
445,4.45,-0.9490639999999999,1.483414,0.423918,-0.266846,-0.020812999999999998,-0.07605
446,4.46,-0.8646459999999999,2.167273,0.283454,-0.278564,-0.048507999999999996,-0.11546300000000001
447,4.47,-0.604109,2.7394380000000003,0.15093,-0.225296,-0.017609,-0.149551
448,4.48,-0.20868,3.4502080000000004,-0.12207799999999999,-0.09640499999999999,0.026062,-0.163406
449,4.49,-0.141775,3.836931,-0.483335,0.094284,0.013275000000000002,-0.152756
450,4.5,-0.318701,4.004268,-0.998761,0.366989,-0.087921,-0.085632
451,4.51,-0.44365600000000005,3.813958,-1.714549,0.625854,-0.270081,-0.018524000000000002
452,4.52,-0.38159499999999996,3.4694019999999997,-2.524267,0.818665,-0.508698,0.069885
453,4.53,-0.139504,3.2217290000000003,-2.7808200000000003,0.8687290000000001,-0.7782140000000001,0.103973
454,4.54,-0.111626,2.913735,-2.266248,0.765396,-0.955048,0.11143499999999999
455,4.55,-1.131716,2.5246560000000002,-0.9102309999999999,0.57045,-0.951859,0.078415
456,4.56,-2.229236,2.289384,0.5748170000000001,0.369125,-0.8197629999999999,0.004913000000000001
457,4.57,-2.756956,1.534543,2.0883380000000002,0.20401,-0.547058,-0.10588099999999999
458,4.58,-2.491384,0.207441,3.3381769999999995,0.10493499999999999,-0.218948,-0.193237
459,4.59,-0.742316,-0.97557,4.137883,0.078308,-0.0005649999999999961,-0.210281
460,4.6,1.5484009999999997,-1.148387,3.978212,0.101746,-0.0037690000000000015,-0.266739
461,4.61,2.6185240000000003,-0.68786,3.671536,0.174179,-0.25943,-0.338104
462,4.62,3.547471,0.0052079999999999895,3.22001,0.27858,-0.575806,-0.33064299999999996
463,4.63,4.356278,0.628663,2.425665,0.33078,-0.783539,-0.258209
464,4.64,4.553229,1.222112,1.532119,0.296692,-0.842133,-0.186844
465,4.65,3.770814,1.474046,0.9931399999999999,0.15181,-0.701508,-0.174057
466,4.66,2.2432939999999997,1.8027080000000002,0.381592,-0.034607,-0.472488,-0.191101
467,4.67,0.32649099999999986,1.92668,0.293864,-0.20079,-0.27860999999999997,-0.18045
468,4.68,-1.2785739999999999,1.954652,0.719071,-0.295609,-0.094315,-0.126114
469,4.69,-2.1495900000000003,1.74652,1.081128,-0.314774,0.097427,-0.046219
470,4.7,-2.542135,1.511125,1.284398,-0.307327,0.26149,0.052841
471,4.71,-2.384714,1.025327,1.434941,-0.279617,0.33711199999999997,0.156174
472,4.72,-1.879101,0.634617,1.498653,-0.225296,0.334991,0.261642
473,4.73,-1.2122600000000001,0.251646,1.489055,-0.14646900000000002,0.270004,0.35112
474,4.74,-0.321404,-0.293197,1.4193209999999998,-0.05271900000000001,0.181595,0.420364
475,4.75,0.33107800000000004,-0.912259,1.128511,0.029297,0.083588,0.454453
476,4.76,0.876395,-1.663036,0.7401260000000001,0.07191499999999999,0.015411,0.47256499999999996
477,4.77,1.275917,-2.497014,0.3935500000000001,0.066589,-0.020812999999999998,0.47361800000000004
478,4.78,1.614439,-3.476975,-0.01511900000000001,-0.0005189999999999986,-0.0336,0.43633999999999995
479,4.79,1.689446,-3.85575,-0.251261,-0.045273,-0.035720999999999996,0.40331999999999996
480,4.8,1.7530759999999999,-4.197039,-0.442902,-0.100662,-0.030396,0.376678
481,4.81,1.637312,-4.154281,-0.45368100000000006,-0.16351300000000002,-0.021881,0.33194
482,4.82,1.57199,-3.981821,-0.32272,-0.237015,0.007950000000000002,0.297852
483,4.83,1.361394,-3.7349989999999997,-0.143861,-0.305191,0.02713,0.260574
484,4.84,1.162852,-3.253221,-0.001131000000000007,-0.352066,0.04097,0.22435
485,4.85,0.945737,-2.7334669999999996,0.08982899999999999,-0.375504,0.046294999999999996,0.186005
486,4.86,0.7853100000000001,-2.210922,0.10956600000000001,-0.36911,0.035644999999999996,0.150848
487,4.87,0.617452,-1.7453310000000002,0.09516000000000001,-0.348862,0.024994,0.117828
488,4.88,0.457449,-1.268872,0.017091999999999996,-0.31797800000000004,0.004761,0.093323
489,4.89,0.342094,-1.222475,-0.046531,-0.29347199999999996,-0.01123,0.078415
490,4.9,0.36395900000000003,-1.148823,-0.08367899999999999,-0.26364099999999996,-0.019745,0.054977
491,4.91,0.43341599999999997,-1.273591,-0.25678,-0.234879,-0.008026,0.03154
492,4.92,0.579963,-1.6055190000000001,-0.473837,-0.20079,0.006881999999999999,-0.0004119999999999992
493,4.93,0.567392,-1.7681930000000001,-0.7590319999999999,-0.169907,0.019669,-0.017456
494,4.94,0.543322,-1.72069,-1.189249,-0.136871,0.06015,-0.031311
495,4.95,0.343069,-1.491195,-1.7050459999999998,-0.098526,0.10809300000000001,-0.056870000000000004
496,4.96,0.003113000000000005,-1.184172,-2.115447,-0.051651,0.136856,-0.094162
497,4.97,-0.316578,-0.569924,-2.55037,-0.01651,0.156021,-0.136765
498,4.98,-0.562181,-0.03206799999999998,-2.787193,-0.0026550000000000002,0.20503200000000002,-0.165527
499,4.99,-0.578154,0.31421,-2.822092,-0.038879000000000004,0.301971,-0.18896500000000002
500,5.0,-0.162175,0.438313,-2.2410759999999996,-0.095337,0.33924899999999997,-0.20600900000000003
501,5.01,0.413901,0.718074,-1.6012709999999999,-0.143265,0.264679,-0.195358
502,5.02,1.1645,1.027208,-0.8550030000000001,-0.185883,0.158157,-0.139969
503,5.03,1.736845,1.351092,-0.19680699999999998,-0.216766,0.08570900000000001,-0.061141999999999995
504,5.04,2.034068,1.886191,-0.22447399999999998,-0.22316,0.036713,0.011307
505,5.05,1.999426,2.707267,-0.5656760000000001,-0.20185899999999998,-0.036788999999999995,0.078415
506,5.06,1.417246,3.4352970000000003,-0.928479,-0.141144,-0.035720999999999996,0.12529
507,5.07,0.8842709999999999,3.8134690000000004,-1.392427,-0.031418,0.10276800000000001,0.197723
508,5.08,-0.05826300000000001,3.912154,-1.6556939999999998,0.17099,0.24549899999999997,0.093323
509,5.09,-0.503366,3.8737489999999997,-1.9518,0.382965,0.406357,-0.007873999999999999
510,5.1,-1.312663,3.538872,-1.9505150000000002,0.6194609999999999,0.58107,-0.136765
511,5.11,-1.952132,3.148101,-2.134307,0.839966,0.7504430000000001,-0.275253
512,5.12,-1.5703040000000001,3.131328,-2.311786,0.903885,0.852707,-0.412674
513,5.13,0.2297560000000001,3.69633,-1.7530419999999998,0.6918949999999999,0.838852,-0.42865
514,5.14,3.004824,3.9878400000000003,-0.06489999999999996,0.273254,0.73233,-0.289108
515,5.15,4.133021,3.221647,2.306164,-0.108124,0.5203399999999999,-0.08990500000000001
516,5.16,4.313725,2.099487,4.6004830000000005,-0.297729,0.342438,0.085861
517,5.17,2.840704,0.520841,6.221472,-0.23915100000000003,0.20822100000000002,0.131668
518,5.18,0.326959,-0.258662,6.262792,0.010132000000000002,0.13151600000000002,0.13913
519,5.19,-1.1124370000000001,-0.041250000000000016,5.172618,0.304138,0.07505800000000001,0.197723
520,5.2,-1.8814520000000001,0.421625,4.171607,0.499084,-0.06980900000000001,0.187073
521,5.21,-2.579125,1.0952620000000002,3.091935,0.545959,-0.094315,0.154053
522,5.22,-2.676118,1.8888740000000002,1.928139,0.47564700000000004,0.110214,0.142334
523,5.23,-2.056696,2.236714,1.040586,0.345688,0.33924899999999997,0.134872
524,5.24,-1.32774,2.26626,0.555926,0.19229100000000002,0.41275,0.130615
525,5.25,-0.39664499999999997,2.124613,0.5624600000000001,0.043152,0.388245,0.12529
526,5.26,0.167095,1.83318,0.8271379999999999,-0.07402,0.26361100000000004,0.110367
527,5.27,0.408032,1.656468,1.340384,-0.129425,0.07932999999999997,0.072021
528,5.28,0.15908,1.201862,1.916718,-0.140076,-0.084732,0.011306999999999998
529,5.29,-0.10984300000000001,0.5109,2.237886,-0.11450199999999999,-0.16568,-0.044098000000000005
530,5.3,-0.12436900000000001,-0.17785400000000004,2.143046,-0.078293,-0.172073,-0.094162
531,5.31,-0.24761999999999998,-0.806573,1.8165950000000002,-0.042068,-0.143311,-0.14315799999999998
532,5.32,-0.23226999999999998,-1.432566,1.343561,-0.005843999999999999,-0.096451,-0.175125
533,5.33,-0.20493699999999998,-2.016425,0.941809,0.017578,-0.062363,-0.200684
534,5.34,-0.206808,-2.616909,0.617375,0.0037380000000000004,-0.027206,-0.227325
535,5.35,-0.26153899999999997,-3.12412,0.381333,-0.023956,-0.012283,-0.24969499999999997
536,5.36,-0.31184,-3.502964,0.128798,-0.056976,-0.014419999999999999,-0.257141
537,5.37,-0.49277200000000004,-3.684399,0.021428,-0.098526,-0.030396,-0.248627
538,5.38,-0.63025,-3.7077430000000002,-0.04793,-0.140076,-0.049576,-0.23477199999999998
539,5.39,-0.652752,-3.662327,-0.061466,-0.1763,-0.094315,-0.21453899999999998
540,5.4,-0.8243149999999999,-3.5602620000000003,-0.178281,-0.208252,-0.155029,-0.197495
541,5.41,-0.94137,-3.4846690000000002,-0.076499,-0.248734,-0.21255500000000002,-0.17938199999999999
542,5.42,-1.1095270000000002,-3.232392,0.07941000000000001,-0.28282199999999996,-0.238129,-0.158081
543,5.43,-1.1028149999999999,-2.88258,0.271767,-0.29986599999999997,-0.24025,-0.134644
544,5.44,-1.167132,-2.584357,0.396447,-0.305191,-0.22641,-0.12506099999999998
545,5.45,-1.1806530000000002,-2.178975,0.464341,-0.27536,-0.210434,-0.088837
546,5.46,-1.1094760000000001,-1.841877,0.299236,-0.238083,-0.181671,-0.07711799999999999
547,5.47,-1.080334,-1.483248,0.059899000000000015,-0.192276,-0.14119,-0.059005999999999996
548,5.48,-1.024758,-1.1683270000000001,-0.23524300000000006,-0.152863,-0.094315,-0.045166000000000005
549,5.49,-0.998109,-0.9293290000000001,-0.42429399999999995,-0.118774,-0.047439999999999996,-0.033447000000000005
550,5.5,-1.0004790000000001,-0.80547,-0.614594,-0.09320099999999999,-0.015488,-0.018524000000000002
551,5.51,-1.052638,-0.8437399999999999,-0.8038529999999999,-0.061249,-0.0027010000000000003,0.002777
552,5.52,-1.153057,-1.041142,-1.021045,-0.027161,-0.01442,0.028350999999999998
553,5.53,-1.181484,-1.236629,-1.302189,0.015457000000000004,-0.051697,0.060302999999999995
554,5.54,-1.1758,-1.340017,-1.633055,0.061264,-0.092178,0.09120199999999999
555,5.55,-1.033849,-1.433877,-1.9184330000000003,0.115585,-0.13372799999999999,0.12208599999999999
556,5.56,-0.9485399999999999,-1.428614,-2.0870330000000004,0.177368,-0.16781600000000002,0.14871199999999998
557,5.57,-0.7691520000000001,-1.265309,-2.178373,0.225311,-0.179535,0.174286
558,5.58,-0.700226,-1.071843,-2.313224,0.20613099999999998,-0.188049,0.180679
559,5.59,-0.639578,-1.096012,-2.030064,0.101746,-0.16781600000000002,0.160431
560,5.6,-0.533285,-0.902624,-1.5360040000000001,-0.066574,-0.07833899999999999,0.127411
561,5.61,-0.7136779999999999,-0.41904300000000005,-0.8626149999999999,-0.255127,0.031387,0.079483
562,5.62,-0.9192440000000001,0.16427100000000006,-0.209998,-0.40213000000000004,0.13046300000000002,0.044327
563,5.63,-1.102951,1.2376049999999998,0.028772999999999993,-0.477768,0.190109,0.011306999999999998
564,5.64,-1.563432,2.806264,-0.145868,-0.47030600000000006,0.177322,-0.057937999999999996
565,5.65,-1.661807,4.214375,-0.323113,-0.391479,0.159225,-0.11866800000000001
566,5.66,-1.014946,4.9798160000000005,-0.439582,-0.26152,0.162415,-0.14315799999999998
567,5.67,-0.25135099999999994,4.988673,-0.673578,-0.053787,0.128326,-0.11334200000000001
568,5.68,0.268041,4.646922,-1.189201,0.239166,0.030319,-0.036636
569,5.69,0.6313409999999999,4.192915,-2.286036,0.565125,-0.172073,0.067764
570,5.7,1.0667309999999999,3.551591,-3.429408,0.8271790000000001,-0.484207,0.164703
571,5.71,1.199354,2.998926,-3.981959,0.9230649999999999,-0.7909999999999999,0.219025
572,5.72,0.824313,2.639957,-3.439461,0.813339,-0.967834,0.203049
573,5.73,-1.114025,2.011167,-1.731536,0.544891,-0.961441,0.11675999999999999
574,5.74,-3.172988,1.841566,0.32696000000000003,0.279633,-0.867691,-0.005736999999999999
575,5.75,-4.371535,1.1230790000000002,2.723533,0.03782699999999999,-0.6844640000000001,-0.11334200000000001
576,5.76,-3.916691,-0.05091800000000002,5.0064400000000004,-0.147537,-0.3862,-0.158081
577,5.77,-1.6848049999999999,-1.29565,6.529892,-0.180557,-0.15823399999999999,-0.12825
578,5.78,1.10649,-1.292668,6.349379,-0.069763,-0.103897,-0.123993
579,5.79,2.385504,-0.295153,5.317997,0.088959,-0.2509,-0.21133400000000002
580,5.8,3.3757699999999997,1.317559,4.4182879999999995,0.284973,-0.39259299999999997,-0.274185
581,5.81,4.453841000000001,2.663036,3.1928520000000002,0.450089,-0.437332,-0.309341
582,5.82,4.592033,3.371288,1.8785439999999998,0.508667,-0.37554899999999997,-0.32106
583,5.83,2.8332040000000003,2.441066,1.125074,0.420258,-0.257294,-0.36047399999999996
584,5.84,0.764777,1.9252,0.691609,0.27111799999999997,-0.058090000000000024,-0.353027
585,5.85,-1.428613,1.567487,0.34121799999999997,0.115585,0.13046300000000002,-0.286972
586,5.86,-2.822725,1.343289,0.47122700000000006,-0.021835,0.231659,-0.163406
587,5.87,-3.595622,1.107942,0.924676,-0.11663800000000002,0.34671,-0.014266999999999988
588,5.88,-3.386562,0.868425,1.352846,-0.164581,0.452164,0.137009
589,5.89,-2.6871150000000004,0.587344,1.7772330000000003,-0.165634,0.475601,0.266968
590,5.9,-1.8211810000000002,0.265204,1.907016,-0.11131300000000001,0.428726,0.360703
591,5.91,-0.765088,-0.08102000000000001,1.73695,-0.032486,0.359482,0.434204
592,5.92,0.12117700000000005,-0.5540229999999999,1.373638,0.042083999999999996,0.284927,0.468292
593,5.93,0.782375,-1.303502,1.004574,0.100677,0.21887199999999998,0.48214700000000005
594,5.94,1.126291,-2.059053,0.616833,0.12091099999999999,0.17945899999999998,0.485336
595,5.95,1.338216,-2.859772,0.32549,0.10493499999999999,0.165604,0.478958
596,5.96,1.404041,-3.549711,0.108866,0.07084700000000001,0.165604,0.46403500000000003
597,5.97,1.252615,-4.001518,-0.074043,0.015457,0.171997,0.45019499999999996
598,5.98,1.179929,-4.332368,-0.11292200000000001,-0.047394,0.19117699999999999,0.433151
599,5.99,0.987682,-4.464422,-0.110482,-0.107056,0.21675100000000003,0.404388
600,6.0,0.8609700000000001,-4.4100790000000005,-0.063266,-0.170959,0.244446,0.38095100000000004
601,6.01,0.7659199999999999,-4.106024,-0.052994000000000006,-0.241272,0.255096,0.35112
602,6.02,0.616526,-3.787075,0.018758000000000004,-0.304123,0.267883,0.308502
603,6.03,0.393946,-3.239903,0.086079,-0.328629,0.288116,0.25737
604,6.04,0.08887800000000001,-2.695087,0.091696,-0.325424,0.31901599999999997,0.20411700000000002
605,6.05,-0.013434,-2.17389,-0.034594,-0.298798,0.33924899999999997,0.15298499999999998
606,6.06,0.050677999999999994,-1.7067400000000001,-0.169811,-0.26152,0.324341,0.10824600000000001
607,6.07,0.245613,-1.3639299999999999,-0.201706,-0.219971,0.27426100000000003,0.076279
608,6.08,0.602849,-1.216128,-0.269042,-0.170959,0.21568299999999999,0.053909000000000006
609,6.09,0.858052,-1.2341520000000001,-0.320845,-0.107056,0.152832,0.035797
610,6.1,1.0867879999999999,-1.330244,-0.364607,-0.059113,0.125137,0.019821000000000002
611,6.11,1.196027,-1.441703,-0.581983,-0.033554,0.12619,0.0006409999999999992
612,6.12,1.058518,-1.389923,-0.9381290000000001,-0.014373999999999996,0.156021,-0.023849000000000002
613,6.13,0.6248020000000001,-1.211811,-1.301851,0.006926999999999999,0.194366,-0.046219
614,6.14,-0.06720900000000002,-1.186727,-1.721856,0.02504,0.25721700000000003,-0.088837
615,6.15,-0.780127,-1.0737139999999998,-2.11722,0.031432999999999996,0.338181,-0.144226
616,6.16,-1.142655,-0.733241,-2.496518,0.013321000000000001,0.409561,-0.18896500000000002
617,6.17,-1.248845,-0.357599,-2.548102,-0.040999999999999995,0.44471700000000003,-0.212402
618,6.18,-1.003587,-0.00043899999999999495,-2.28952,-0.09106399999999999,0.47773699999999997,-0.21347
619,6.19,0.06708599999999998,0.650522,-1.5490620000000002,-0.14221199999999998,0.408493,-0.172989
620,6.2,0.7923180000000001,1.3921540000000001,-1.260471,-0.178421,0.26254299999999997,-0.117599
621,6.21,1.600315,2.115871,-0.953262,-0.191208,0.181595,-0.044098000000000005
622,6.22,2.199273,2.939814,-1.082757,-0.16030899999999998,0.11235,-0.0025480000000000017
623,6.23,2.361899,3.6987629999999996,-1.397706,-0.10491900000000001,-0.02507,0.027282999999999998
624,6.24,1.8887880000000001,4.106634,-1.412872,-0.032486,-0.086853,0.04007
625,6.25,0.940448,4.06034,-1.623832,0.078308,0.014343000000000003,0.033676
626,6.26,0.09902599999999996,3.6754019999999996,-1.991497,0.23170500000000002,0.160278,-0.011077999999999998
627,6.27,-0.8222379999999999,3.582758,-2.279173,0.452209,0.31048600000000004,-0.155945
628,6.28,-1.7622259999999998,3.208918,-2.624551,0.6599430000000001,0.499039,-0.286972
629,6.29,-2.3181979999999998,2.98142,-3.021784,0.786713,0.698242,-0.421204
630,6.3,-1.713862,3.3776599999999997,-3.187202,0.717468,0.811157,-0.50322
631,6.31,0.3134739999999999,4.567880000000001,-2.066998,0.44262700000000005,0.769623,-0.45315600000000006
632,6.32,3.1122919999999996,5.085595,0.005754999999999955,0.06658900000000001,0.6034390000000001,-0.278458
633,6.33,4.509246,4.533854,2.5281130000000003,-0.249802,0.316879,-0.06221
634,6.34,4.930135,2.94595,5.745808,-0.35525500000000004,0.050568,0.10504200000000001
635,6.35,3.938164,0.8790969999999999,7.741371000000001,-0.15925599999999998,-0.053833000000000006,0.14765899999999998
636,6.36,1.264225,-0.19381800000000002,7.0302929999999995,0.196548,-0.084732,0.10824600000000001
637,6.37,-0.47203,0.057155999999999964,5.321858,0.505478,-0.052765,0.10611
638,6.38,-1.7477610000000001,0.173965,4.1584650000000005,0.6631319999999999,-0.043182,0.054977
639,6.39,-2.9361770000000003,0.46155100000000004,2.876744,0.63118,0.0036930000000000023,0.0070339999999999995
640,6.4,-3.79724,1.341566,1.5672469999999998,0.48843400000000003,0.17413300000000004,0.001709
641,6.41,-3.5678980000000005,1.8364650000000002,0.6914779999999999,0.293488,0.38612399999999997,0.010239
642,6.42,-2.5821810000000003,2.024299,0.183922,0.100677,0.42767299999999997,0.029404000000000003
643,6.43,-1.325423,1.968549,0.044923000000000005,-0.076157,0.33711199999999997,0.059235
644,6.44,-0.195915,1.8086810000000002,0.143144,-0.213577,0.124069,0.074158
645,6.45,0.554767,1.540563,0.657942,-0.297729,-0.12521400000000002,0.085861
646,6.46,0.769958,1.071983,1.576946,-0.342468,-0.302048,0.066696
647,6.47,0.618017,0.355258,2.3354369999999998,-0.331818,-0.33825700000000003,0.013428
648,6.48,0.493424,-0.420183,2.588229,-0.290283,-0.29991100000000004,-0.063263
649,6.49,0.27969299999999997,-1.167007,2.373389,-0.22210700000000003,-0.2509,-0.136765
650,6.5,0.056531,-1.927368,1.8412979999999999,-0.144333,-0.201904,-0.192169
651,6.51,-0.10385599999999999,-2.513024,1.3368200000000001,-0.07296799999999999,-0.162491,-0.23477199999999998
652,6.52,-0.094697,-3.082159,0.799017,-0.036743,-0.12307699999999999,-0.25501999999999997
653,6.53,-0.058963,-3.5997,0.408393,-0.035675,-0.107101,-0.272064
654,6.54,-0.136692,-3.874599,0.151989,-0.059113,-0.11561600000000001,-0.269928
655,6.55,-0.24116700000000002,-4.108847,-0.145332,-0.095337,-0.13372799999999999,-0.250748
656,6.56,-0.32865500000000003,-4.111708,-0.388385,-0.129425,-0.177399,-0.207077
657,6.57,-0.502023,-4.103194,-0.59672,-0.172028,-0.22959899999999997,-0.171921
658,6.58,-0.7126319999999999,-3.830634,-0.645304,-0.22743200000000002,-0.284988,-0.146362
659,6.59,-0.914587,-3.5379,-0.536382,-0.281754,-0.33825700000000003,-0.11972000000000001
660,6.6,-1.165621,-2.96,-0.21911,-0.333954,-0.41068999999999994,-0.085632
661,6.61,-1.261572,-2.51809,0.066439,-0.343536,-0.43626400000000004,-0.065399
662,6.62,-1.329205,-2.047771,0.261131,-0.323303,-0.43626400000000004,-0.04303
663,6.63,-1.2264709999999999,-1.58546,0.368207,-0.286011,-0.407501,-0.012131
664,6.64,-1.098122,-1.266118,0.27683,-0.23168899999999998,-0.359558,0.023026000000000005
665,6.65,-1.015414,-1.0672700000000002,-0.037436000000000025,-0.169907,-0.315887,0.052841
666,6.66,-0.9609409999999999,-1.017385,-0.343875,-0.109177,-0.280731,0.08267200000000001
667,6.67,-0.8998450000000001,-1.032499,-0.757092,-0.054854999999999994,-0.24664299999999997,0.098648
668,6.68,-1.0176969999999999,-1.125716,-1.128473,-0.013306000000000002,-0.206161,0.102921
669,6.69,-1.253918,-1.315346,-1.375491,0.015456999999999999,-0.159302,0.099716
670,6.7,-1.50274,-1.4416790000000002,-1.607626,0.042083999999999996,-0.114548,0.107178
671,6.71,-1.636159,-1.436051,-1.908275,0.078308,-0.083664,0.127411
672,6.72,-1.71912,-1.316719,-2.294645,0.126236,-0.073013,0.14765899999999998
673,6.73,-1.583905,-1.178265,-2.644874,0.173111,-0.07406599999999999,0.178543
674,6.74,-1.4909350000000001,-1.1827159999999999,-2.9035490000000004,0.182693,-0.068741,0.201981
675,6.75,-1.406397,-1.421964,-2.672417,0.12197899999999999,-0.045319,0.20091199999999998
676,6.76,-1.171791,-1.476251,-2.049641,0.022919,-0.010161999999999996,0.179611
677,6.77,-0.869613,-0.978352,-1.3142719999999999,-0.094269,0.021805,0.151917
678,6.78,-0.8031510000000001,-0.12088,-0.824751,-0.230621,0.031387,0.130615
679,6.79,-0.662812,0.552938,-0.31401,-0.380829,0.04097,0.130615
680,6.8,-0.395079,1.400608,0.026621,-0.49054,0.059082,0.127411
681,6.81,-0.590705,2.734187,0.016566,-0.507584,0.023926000000000003,0.07309
682,6.82,-1.032047,4.246269,0.098284,-0.439407,-0.012283,-0.014267000000000004
683,6.83,-0.944738,5.128387,0.275951,-0.312653,0.023926,-0.07711799999999999
684,6.84,-0.40981300000000004,5.417644999999999,0.19522,-0.099594,0.056961000000000005,-0.089905
685,6.85,-0.119782,5.204816,-0.22400100000000003,0.21466100000000002,0.011154000000000004,-0.068588
686,6.86,0.147299,4.886513,-1.145831,0.567261,-0.162491,-0.010009999999999998
687,6.87,0.15826400000000002,4.3888,-2.052108,0.8580780000000001,-0.437332,0.058166999999999996
688,6.88,0.062661,3.8623160000000003,-2.464115,0.9720610000000001,-0.716431,0.113571
689,6.89,-0.695608,3.215831,-1.65792,0.815475,-0.8293459999999999,0.10504200000000001
690,6.9,-2.248834,2.6047700000000003,-0.306284,0.5289149999999999,-0.749451,0.012359999999999996
691,6.91,-3.979129,1.483701,1.400521,0.232773,-0.527878,-0.16127
692,6.92,-4.364575,0.22706400000000004,3.304094,-0.067642,-0.134796,-0.258209
693,6.93,-2.823099,-1.240528,4.877472,-0.248734,0.149628,-0.289108
694,6.94,0.13015700000000008,-1.772604,5.395267,-0.22210700000000003,0.173065,-0.28483600000000003
695,6.95,1.7733290000000002,-0.46004399999999995,4.760168,-0.059113,-0.051697000000000014,-0.391373
696,6.96,2.745039,1.29669,4.168861,0.147552,-0.266891,-0.45101899999999995
697,6.97,4.664732,2.6074919999999997,3.426332,0.329712,-0.32014499999999996,-0.37645
698,6.98,5.694262999999999,3.2725470000000003,2.399448,0.392563,-0.282867,-0.297623
699,6.99,4.128894,2.79243,1.655514,0.316925,-0.248779,-0.282715
700,7.0,2.314818,2.144213,1.063503,0.167786,-0.161423,-0.27951
701,7.01,0.07277,1.607824,0.581626,0.019713999999999995,-0.07406599999999999,-0.248627
702,7.02,-1.6385200000000002,1.283232,0.46951000000000004,-0.11131300000000001,-0.014420000000000002,-0.17619300000000002
703,7.03,-2.729283,1.309841,0.6099479999999999,-0.197601,0.11447100000000003,-0.07605
704,7.04,-3.055501,1.337623,0.8699479999999999,-0.247665,0.296646,0.041121999999999985
705,7.05,-2.735646,1.166511,1.1982979999999999,-0.278564,0.43725600000000003,0.171097
706,7.06,-2.134188,0.739436,1.489722,-0.27003499999999997,0.5096890000000001,0.284012
707,7.07,-1.398347,0.030241000000000073,1.608554,-0.22210700000000003,0.513947,0.378815
708,7.08,-0.7926879999999998,-0.6907260000000001,1.491406,-0.14646900000000002,0.456421,0.44699099999999997
709,7.09,-0.172248,-1.433632,1.201109,-0.06337000000000001,0.37440500000000004,0.49386599999999997
710,7.1,0.27465,-2.143002,0.816112,0.0026699999999999988,0.301971,0.520493
711,7.11,0.5548270000000001,-2.807093,0.497421,0.044219999999999995,0.248703,0.527954
712,7.12,0.826767,-3.526454,0.21905700000000003,0.057007,0.21994,0.522629
713,7.13,0.925141,-4.100494,-0.001468999999999998,0.039963,0.206085,0.497055
714,7.14,0.996886,-4.486314,-0.166348,-0.020766999999999997,0.22100799999999998,0.460846
715,7.15,0.986344,-4.638511,-0.302865,-0.094269,0.24231,0.420364
716,7.16,1.062245,-4.545618,-0.36039499999999997,-0.15925599999999998,0.247635,0.388397
717,7.17,1.049177,-4.332041,-0.365456,-0.219971,0.25296,0.34686300000000003
718,7.18,1.022116,-4.023741,-0.22976999999999997,-0.272171,0.27214099999999997,0.311707
719,7.19,0.947692,-3.6555440000000003,-0.11546700000000001,-0.321167,0.28385900000000003,0.275482
720,7.2,0.8763540000000001,-3.151059,0.079876,-0.348862,0.278534,0.233948
721,7.21,0.867358,-2.583542,0.3027,-0.34993,0.258286,0.194519
722,7.22,0.941665,-1.963902,0.41343199999999997,-0.312653,0.229523,0.14978
723,7.23,1.165267,-1.464284,0.379644,-0.257248,0.199707,0.10611
724,7.24,1.326892,-1.125694,0.150866,-0.195465,0.173065,0.06456
725,7.25,1.382855,-0.959047,-0.185905,-0.137939,0.142181,0.03154
726,7.26,1.3304,-1.121026,-0.5288689999999999,-0.085739,0.098495,-0.004683999999999999
727,7.27,1.087374,-1.3013780000000001,-0.9183399999999999,-0.03035,0.050568,-0.037704
728,7.28,0.8536239999999999,-1.388862,-1.2739989999999999,0.013321000000000005,0.023926,-0.061141999999999995
729,7.29,0.463142,-1.320109,-1.825764,0.07084700000000001,0.048431,-0.08244299999999999
730,7.3,0.16213600000000006,-1.245982,-2.0550200000000003,0.086823,0.08677699999999999,-0.10588099999999999
731,7.31,-0.239454,-1.112585,-2.31605,0.079376,0.150696,-0.144226
732,7.32,-0.641403,-0.9572139999999999,-2.560508,0.06552100000000001,0.22419699999999998,-0.195358
733,7.33,-0.6718189999999999,-0.627634,-2.7842279999999997,0.047409,0.260422,-0.24330100000000002
734,7.34,-0.513883,-0.31469,-2.4973919999999996,-0.01651,0.20929,-0.250748
735,7.35,0.031216999999999995,0.06962300000000002,-1.88847,-0.132614,0.091049,-0.186844
736,7.36,0.698102,0.920112,-1.339029,-0.262573,-0.064484,-0.092026
737,7.37,1.149024,1.701659,-0.60035,-0.36911,-0.183792,0.018752999999999992
738,7.38,1.523458,2.577222,0.02609900000000001,-0.38508600000000004,-0.181671,0.099716
739,7.39,1.530063,3.4617190000000004,-0.012303999999999995,-0.32969699999999996,-0.181671,0.115692
740,7.4,0.952261,4.225651,-0.316077,-0.23168899999999998,-0.175278,0.08480800000000001
741,7.41,-0.23773199999999994,4.649653,-0.704464,-0.087875,-0.057022,0.017685
742,7.42,-1.384832,4.840735,-1.3389389999999999,0.101746,0.16134600000000002,-0.081375
743,7.43,-2.098889,4.117022,-2.0296060000000002,0.267929,0.436188,-0.142105
744,7.44,-2.822979,3.6989050000000003,-2.4460889999999997,0.49694799999999995,0.669479,-0.32959
745,7.45,-3.3289489999999997,3.228278,-2.916474,0.7227939999999999,0.9144899999999999,-0.44357299999999994
746,7.46,-3.137321,2.586642,-3.178385,0.912415,1.140335,-0.519196
747,7.47,-1.8848470000000002,2.19162,-3.389868,0.994431,1.285202,-0.534119
748,7.48,0.233416,2.583964,-3.079792,0.893234,1.238327,-0.481918
749,7.49,2.8910980000000004,3.4605699999999997,-1.502209,0.563004,1.040192,-0.34768699999999997
750,7.5,5.107367,3.694148,1.3059209999999999,0.07298300000000002,0.763229,-0.11334200000000001
751,7.51,5.788703,2.611143,4.190532,-0.22636399999999998,0.515015,0.09545900000000003
752,7.52,5.068101,0.3037969999999999,6.764548,-0.198669,0.28065500000000004,0.151917
753,7.53,2.594761,-1.005564,7.294857,0.06658900000000002,0.14856,0.101852
754,7.54,0.89195,-0.671061,6.319897,0.39468400000000003,0.180527,0.101852
755,7.55,-0.6129600000000001,0.166622,4.865933,0.6663359999999999,0.20822100000000002,0.061371
756,7.56,-2.340664,0.918111,3.205452,0.774994,0.156021,-0.0004119999999999957
757,7.57,-3.63866,1.8077400000000001,1.501256,0.720657,0.198639,-0.015335
758,7.58,-4.533354,2.580607,0.583144,0.5619350000000001,0.425537,0.004912999999999999
759,7.59,-3.9042120000000002,3.0003610000000003,0.365201,0.373383,0.668411,0.093323
760,7.6,-1.652594,3.1766080000000003,0.324716,0.226379,0.756836,0.159378
761,7.61,0.389254,3.117865,0.472375,0.127304,0.7067720000000001,0.196655
762,7.62,1.7093669999999999,3.003356,0.956886,0.06765700000000001,0.568283,0.20837399999999998
763,7.63,2.426015,2.505379,1.601967,0.07191499999999999,0.35736100000000004,0.177475
764,7.64,2.820973,1.6511509999999998,2.133851,0.11026,0.150696,0.101852
765,7.65,2.898632,0.728308,2.362539,0.157135,0.0047610000000000005,0.0070339999999999995
766,7.66,2.225178,-0.235108,2.1619040000000003,0.198685,-0.09963999999999999,-0.106949
767,7.67,1.68715,-1.242033,1.7491130000000001,0.239166,-0.202972,-0.19856300000000002
768,7.68,1.3741729999999999,-2.2274700000000003,1.347574,0.28070100000000003,-0.295654,-0.266739
769,7.69,0.8489530000000001,-3.119718,0.959808,0.302017,-0.372345,-0.34024
770,7.7,0.36325599999999997,-3.9803949999999997,0.617639,0.260468,-0.427734,-0.397766
771,7.71,-0.04133400000000004,-4.7445059999999994,0.479196,0.177368,-0.463959,-0.42758199999999996
772,7.72,-0.244114,-5.258771,0.300414,0.085754,-0.484207,-0.41481
773,7.73,-0.42737299999999995,-5.3671489999999995,0.024945,-0.009048000000000007,-0.5097659999999999,-0.382843
774,7.74,-0.48539799999999994,-5.260676999999999,-0.28899299999999994,-0.11131300000000001,-0.564102,-0.337036
775,7.75,-0.540592,-4.971107,-0.41985900000000004,-0.228485,-0.6343989999999999,-0.297623
776,7.76,-0.483417,-4.610232,-0.371893,-0.36697399999999997,-0.704712,-0.27313200000000004
777,7.77,-0.43433,-4.075817,-0.18039000000000002,-0.467117,-0.7782140000000001,-0.24542199999999997
778,7.78,-0.351272,-3.440173,0.122421,-0.532089,-0.853851,-0.22412100000000001
779,7.79,-0.281206,-2.786851,0.406366,-0.5470119999999999,-0.930542,-0.200684
780,7.8,-0.435813,-2.0461549999999997,0.6927479999999999,-0.5129239999999999,-0.9955290000000001,-0.167664
781,7.81,-0.636745,-1.420052,0.734421,-0.440475,-1.021088,-0.123993
782,7.82,-0.809383,-1.012749,0.640818,-0.34993,-1.007248,-0.07925399999999999
783,7.83,-1.066238,-0.7998770000000001,0.259709,-0.262573,-0.9625090000000001,-0.041962
784,7.84,-1.279895,-0.662231,-0.16302300000000006,-0.186951,-0.889008,0.0070339999999999995
785,7.85,-1.6043479999999999,-0.81111,-0.54803,-0.11238099999999998,-0.793121,0.041122000000000006
786,7.86,-1.920598,-1.06617,-1.02424,-0.048462,-0.688736,0.075211
787,7.87,-2.333499,-1.378773,-1.31279,-0.00798,-0.585403,0.100784
788,7.88,-2.633167,-1.682,-1.543426,0.019714,-0.48100299999999996,0.126343
789,7.89,-2.602281,-1.8528229999999999,-1.910216,0.041016000000000004,-0.37554899999999997,0.160431
790,7.9,-2.385795,-2.0362419999999997,-2.3507919999999998,0.052734,-0.30098,0.184937
791,7.91,-1.96425,-2.250753,-2.745924,0.059128,-0.260498,0.19558699999999998
792,7.92,-1.528521,-2.122976,-3.116616,0.032501,-0.238129,0.188141
793,7.93,-1.062168,-1.6655389999999999,-2.864347,-0.05804400000000001,-0.227478,0.181747
794,7.94,-0.6995819999999999,-0.650281,-2.382843,-0.20079,-0.22534200000000001,0.144455
795,7.95,-0.515245,0.4842860000000001,-1.534936,-0.401062,-0.22215300000000002,0.08480800000000001
796,7.96,-0.169874,1.7254310000000002,-0.4889250000000001,-0.591751,-0.191254,0.027282999999999998
797,7.97,0.06806099999999997,2.5490720000000002,0.6133629999999999,-0.6886899999999999,-0.127335,-0.018524000000000002
798,7.98,0.063702,3.4862949999999997,0.967089,-0.66951,-0.027206,-0.067535
799,7.99,-0.362221,4.6188139999999995,0.836455,-0.529968,0.010086,-0.13783299999999998
800,8.0,-0.9152819999999999,5.44625,0.47258500000000003,-0.309448,0.065475,-0.18470799999999998
801,8.01,-0.923752,5.526689,-0.474013,-0.045273000000000015,0.11660799999999999,-0.170853
802,8.02,-0.5019239999999999,4.812142,-1.95115,0.232773,0.074005,-0.092026
803,8.03,-0.016100000000000003,3.871728,-3.317563,0.491623,-0.07620199999999999,0.009171
804,8.04,0.519476,3.001816,-4.408951999999999,0.6876369999999999,-0.248779,0.130615
805,8.05,1.0537590000000001,2.196589,-5.065154,0.798431,-0.425613,0.219025
806,8.06,1.259084,1.428316,-5.1215779999999995,0.80481,-0.658905,0.240326
807,8.07,1.101632,1.171399,-4.271969,0.717468,-0.87941,0.20091199999999998
808,8.08,-0.04430400000000001,1.210081,-2.33248,0.550217,-1.026413,0.090134
809,8.09,-1.639719,1.160886,0.444783,0.32225,-1.0115049999999999,-0.025985999999999995
810,8.1,-2.614125,0.467505,3.3280870000000005,0.111328,-0.862366,-0.148483
811,8.11,-3.192972,-0.662696,5.433755000000001,-0.0015869999999999981,-0.6130979999999999,-0.229446
812,8.12,-2.675989,-2.273413,6.808733,-0.076157,-0.409637,-0.24649000000000001
813,8.13,-1.227069,-3.1643,7.377235000000001,-0.112381,-0.264755,-0.21560700000000002
814,8.14,0.582585,-1.976635,6.0316730000000005,-0.090012,-0.24025,-0.203888
815,8.15,2.1398330000000003,0.919573,4.240825,0.045288,-0.32547,-0.253952
816,8.16,3.744013,3.6141650000000003,2.414002,0.234894,-0.24664299999999997,-0.33171100000000003
817,8.17,4.4275519999999995,5.0010129999999995,0.570442,0.320114,-0.079407,-0.42758199999999996
818,8.18,3.874053,5.182783000000001,-0.3831410000000001,0.225311,0.1017,-0.486176
819,8.19,2.0352650000000003,3.9105209999999997,-0.340476,0.0016020000000000062,0.247635,-0.48831199999999997
820,8.2,-0.4517780000000001,3.03817,-0.30357,-0.20079,0.31048600000000004,-0.405212
821,8.21,-2.4474150000000003,2.365286,0.245023,-0.32969699999999996,0.314743,-0.266739
822,8.22,-3.485502,1.876011,1.107853,-0.356323,0.358429,-0.101624
823,8.23,-3.604004,1.553782,1.762484,-0.302002,0.44258100000000006,0.079483
824,8.24,-3.0940630000000002,1.158863,2.12993,-0.183746,0.49050900000000003,0.240326
825,8.25,-2.58566,0.464616,1.904695,-0.054854999999999994,0.551239,0.382019
826,8.26,-1.820571,-0.546578,1.45446,0.051666,0.60556,0.513046
827,8.27,-1.012351,-1.641109,0.9156,0.12091099999999999,0.6258090000000001,0.606781
828,8.28,-0.384833,-2.725633,0.341258,0.146484,0.658829,0.658981
829,8.29,0.2502880000000001,-3.770039,-0.214593,0.10813900000000001,0.698242,0.6866760000000001
830,8.3,0.687044,-4.721579,-0.741544,0.009064000000000004,0.730194,0.677094
831,8.31,1.0356,-5.469854,-0.910961,-0.12303199999999999,0.741913,0.658981
832,8.32,1.195699,-5.911982,-0.9244620000000001,-0.260452,0.755768,0.619568
833,8.33,1.2351940000000001,-6.152183999999999,-0.9019219999999999,-0.38295,0.734467,0.575897
834,8.34,1.21967,-6.0157099999999994,-0.626078,-0.48416099999999995,0.686523,0.531143
835,8.35,1.2289430000000001,-5.612083,-0.24475700000000003,-0.558716,0.668411,0.481079
836,8.36,1.144734,-4.8898459999999995,0.031086000000000006,-0.597076,0.684387,0.42248500000000005
837,8.37,1.1695959999999999,-3.8867269999999996,0.126769,-0.599197,0.724869,0.355377
838,8.38,1.079424,-2.964471,-0.026139000000000003,-0.574707,0.763229,0.272293
839,8.39,0.8748239999999999,-2.242337,-0.168772,-0.5352939999999999,0.78772,0.194519
840,8.4,0.700171,-1.7992990000000002,-0.351743,-0.489487,0.794113,0.12529
841,8.41,0.655645,-1.594655,-0.612221,-0.431961,0.779205,0.07309
842,8.42,0.817132,-1.488516,-0.8948209999999999,-0.38295,0.735535,0.04007
843,8.43,1.083443,-1.412523,-1.226667,-0.322235,0.671616,0.020888999999999998
844,8.44,1.262491,-1.388087,-1.5383870000000002,-0.26364099999999996,0.60556,0.005981
845,8.45,1.291557,-1.193481,-1.8430549999999999,-0.19653299999999999,0.551239,-0.011078
846,8.46,0.962434,-0.967245,-2.322657,-0.13475,0.5203399999999999,-0.033447000000000005
847,8.47,0.4973639999999999,-0.9174700000000001,-2.6158330000000003,-0.094269,0.510757,-0.065399
848,8.48,0.158676,-0.757637,-2.875986,-0.08255,0.500107,-0.11866800000000001
849,8.49,-0.181837,-0.44743599999999994,-2.864794,-0.087875,0.475601,-0.167664
850,8.5,-0.400524,-0.111453,-2.9223779999999997,-0.090012,0.46388199999999996,-0.193237
851,8.51,-0.212131,-0.052119000000000006,-2.32368,-0.118774,0.408493,-0.1698
852,8.52,0.4318709999999999,0.590171,-1.794083,-0.15712,0.31262199999999996,-0.101624
853,8.53,1.079545,1.650318,-1.385572,-0.238083,0.20076,-0.011077999999999998
854,8.54,1.526159,3.242782,-1.268448,-0.315842,0.125137,0.096527
855,8.55,2.247545,4.9181669999999995,-1.424126,-0.339279,0.062286,0.21690399999999999
856,8.56,3.0350919999999997,5.9959169999999995,-1.599766,-0.302002,-0.000565000000000003,0.325546
857,8.57,2.8083970000000003,6.327121,-1.386232,-0.186951,-0.082596,0.377747
858,8.58,2.077253,6.126355,-1.157821,0.029297000000000007,-0.137985,0.359634
859,8.59,1.106524,5.527716000000001,-1.113315,0.361664,-0.13159200000000001,0.272293
860,8.6,-0.07600200000000001,4.616287000000001,-1.508636,0.753677,-0.059158,0.15724200000000002
861,8.61,-0.9269129999999999,3.154938,-2.250886,1.059418,0.120865,0.069885
862,8.62,-1.31123,2.461533,-2.532029,1.202164,0.230591,-0.19429
863,8.63,0.3167169999999999,2.61167,-1.912353,1.024261,0.270004,-0.275253
864,8.64,3.178787,3.1037209999999997,0.049123999999999945,0.557678,0.293442,-0.12506099999999998
865,8.65,4.858812,3.081884,2.229172,0.12197899999999999,0.268936,0.057113999999999984
866,8.66,4.923719999999999,2.354181,4.881362,-0.12196400000000002,0.180527,0.20518499999999998
867,8.67,2.966804,0.19791700000000007,6.887474,-0.116638,-0.004837000000000008,0.19133
868,8.68,0.11243200000000007,-0.23072200000000004,7.108737,0.12197899999999999,-0.22427399999999997,0.151917
869,8.69,-1.8205669999999998,0.316266,6.176285,0.428772,-0.376602,0.193466
870,8.7,-2.9233119999999997,0.595669,4.896907,0.6918949999999999,-0.561966,0.21690399999999999
871,8.71,-3.750221,1.5589820000000003,3.1360189999999997,0.7813720000000001,-0.6727449999999999,0.223282
872,8.72,-3.571277,2.9723080000000004,1.6861689999999998,0.678055,-0.543854,0.22541799999999998
873,8.73,-2.1003819999999997,3.9849900000000003,0.8283440000000001,0.46286000000000005,-0.220016,0.24353000000000002
874,8.74,-0.34087899999999993,4.418648,0.186724,0.246613,0.047363,0.22116100000000002
875,8.75,0.897968,3.8175160000000004,-0.027093,0.081497,0.160278,0.177475
876,8.76,1.230292,2.750886,0.191743,-0.025024000000000008,0.133652,0.128479
877,8.77,1.216246,1.759439,0.721571,-0.09320099999999999,-0.010162000000000004,0.080536
878,8.78,1.381391,0.754722,1.411255,-0.130493,-0.194443,0.026215
879,8.79,1.1674719999999998,-0.363073,1.909693,-0.137939,-0.359558,-0.057937999999999996
880,8.8,0.7756850000000001,-1.2740479999999998,1.9939529999999999,-0.1241,-0.476746,-0.141037
881,8.81,0.529559,-2.208948,1.8147080000000002,-0.09320099999999999,-0.577942,-0.19429000000000002
882,8.82,0.43343400000000004,-3.1118810000000003,1.560151,-0.059113,-0.673813,-0.23158299999999998
883,8.83,0.196209,-3.837132,1.310972,-0.022888,-0.7377319999999999,-0.282715
884,8.84,-0.200934,-4.317176,1.034505,-0.011184999999999999,-0.748383,-0.34024
885,8.85,-0.35314,-4.7976160000000005,0.763124,-0.020766999999999997,-0.7185520000000001,-0.37751799999999996
886,8.86,-0.8917430000000001,-5.094769,0.48630100000000004,-0.044205,-0.6940609999999999,-0.398819
887,8.87,-1.302426,-4.995031,0.13278099999999998,-0.071899,-0.6599729999999999,-0.389236
888,8.88,-1.556073,-4.786643,-0.208326,-0.11131300000000001,-0.641861,-0.367935
889,8.89,-1.9486580000000002,-4.565622,-0.458714,-0.16777,-0.607773,-0.345566
890,8.9,-2.1201529999999997,-4.18255,-0.665922,-0.23915100000000003,-0.574753,-0.31359899999999996
891,8.91,-2.199388,-3.837968,-0.739284,-0.305191,-0.563034,-0.27313200000000004
892,8.92,-2.075373,-3.442708,-0.680049,-0.365906,-0.5534359999999999,-0.22837800000000003
893,8.93,-1.9385970000000001,-3.083996,-0.627548,-0.414917,-0.572617,-0.174057
894,8.94,-1.6837529999999998,-2.843594,-0.523908,-0.451126,-0.617355,-0.135712
895,8.95,-1.495279,-2.5926720000000003,-0.491971,-0.46177700000000005,-0.643997,-0.10055499999999999
896,8.96,-1.392675,-2.359265,-0.459247,-0.44154399999999994,-0.614166,-0.07498200000000001
897,8.97,-1.430995,-1.98027,-0.417382,-0.399994,-0.503372,-0.06221
898,8.98,-1.6660150000000002,-1.713725,-0.357667,-0.34034699999999996,-0.31163,-0.05368
899,8.99,-2.002147,-1.6349989999999999,-0.422129,-0.247665,-0.13586399999999998,-0.035568
900,9.0,-2.154941,-1.587092,-0.964168,-0.143265,-0.008025999999999998,-0.0025480000000000017
901,9.01,-2.016489,-1.7295880000000001,-1.552072,-0.056976,0.046294999999999996,0.019821000000000002
902,9.02,-1.448697,-1.631269,-1.977773,0.018646,0.020737000000000002,0.033676
903,9.03,-0.935593,-1.291608,-2.3712720000000003,0.088959,-0.052765,0.03154
904,9.04,-0.483038,-0.7957,-2.762852,0.13156099999999998,-0.16568,0.017685
905,9.05,0.008543000000000023,-0.351434,-2.694648,0.081497,-0.255173,-0.011078
906,9.06,0.635057,0.16425599999999996,-2.5640560000000003,-0.061249,-0.288193,-0.041962
907,9.07,0.711705,0.960114,-2.053162,-0.26364099999999996,-0.32547,-0.049423
908,9.08,0.005180000000000074,2.1795880000000003,-1.1758600000000001,-0.431961,-0.330795,-0.041962
909,9.09,-0.603908,3.231115,-0.20720300000000005,-0.519302,-0.231735,-0.021729
910,9.1,-1.130536,4.21707,0.32665900000000003,-0.5001369999999999,-0.10282899999999999,-0.011078
911,9.11,-1.743328,5.487544000000001,-0.07643,-0.345673,-0.07620199999999999,-0.047287
912,9.12,-2.519723,6.234159,-0.606895,-0.13793900000000006,-0.124146,-0.11866800000000001
913,9.13,-2.668314,5.998558999999999,-1.45462,0.076172,-0.114548,-0.12825
914,9.14,-2.128711,5.038651,-2.5833939999999997,0.32225,-0.156097,-0.081375
915,9.15,-1.066897,3.9046440000000002,-3.3035080000000003,0.601349,-0.283936,-0.00041200000000000253
916,9.16,0.08784199999999998,3.152284,-3.4743440000000003,0.83252,-0.49165299999999995,0.085861
917,9.17,0.5794520000000001,2.504055,-2.4909630000000003,0.875122,-0.677017,0.131668
918,9.18,0.286655,2.110929,-0.438145,0.672729,-0.7036439999999999,0.10611
919,9.19,-1.209407,1.159106,2.079538,0.369125,-0.59819,-0.103745
920,9.2,-2.320289,0.097561,4.202141,0.053802000000000016,-0.266891,-0.300827
921,9.21,-2.0171900000000003,-1.3155889999999997,6.1086599999999995,-0.169907,0.06973300000000003,-0.41799899999999995
922,9.22,-0.4183600000000001,-2.483584,7.101617,-0.14221199999999998,0.16774,-0.444626
923,9.23,0.635822,-1.168039,5.800014,0.047409000000000014,0.096375,-0.505356
924,9.24,1.508502,1.0635729999999999,4.314449,0.245544,0.048431,-0.580994
925,9.25,3.7704940000000002,3.293313,3.055694,0.36486799999999997,0.16134600000000002,-0.598038
926,9.26,4.749334999999999,4.9878919999999995,1.6214879999999998,0.345688,0.293442,-0.622528
927,9.27,3.577233,5.957186,0.652571,0.24768099999999998,0.27320900000000004,-0.626801
928,9.28,1.5708090000000001,5.5328610000000005,0.3534,0.094284,0.25721700000000003,-0.558609
929,9.29,-0.465721,4.628516,0.581386,-0.051651,0.287048,-0.43611099999999997
930,9.3,-2.040823,3.637752,1.4937610000000001,-0.140076,0.33711199999999997,-0.27951
931,9.31,-2.914217,2.58304,2.322089,-0.147537,0.43725600000000003,-0.127182
932,9.32,-2.90935,1.616649,2.941924,-0.090012,0.555496,0.029403999999999993
933,9.33,-2.413939,0.563409,2.925914,0.0016019999999999993,0.654572,0.186005
934,9.34,-1.729532,-0.561492,2.4160459999999997,0.085754,0.719543,0.31703200000000004
935,9.35,-1.032567,-1.658095,1.9395529999999999,0.163528,0.768555,0.41610699999999995
936,9.36,-0.441405,-2.758501,1.511231,0.22424299999999997,0.809036,0.499191
937,9.37,0.007533000000000013,-3.657833,1.033376,0.25407399999999997,0.8441770000000001,0.554581
938,9.38,0.29227,-4.432658,0.6210140000000001,0.23703000000000002,0.880402,0.575897
939,9.39,0.445304,-4.956244,0.21525,0.177368,0.9294129999999999,0.580154
940,9.4,0.540316,-5.313115,-0.122432,0.088959,0.9453889999999999,0.573761
941,9.41,0.578551,-5.594601,-0.292483,-0.017562999999999995,0.9219510000000001,0.547134
942,9.42,0.566863,-5.759218,-0.220167,-0.10598800000000001,0.854843,0.5109100000000001
943,9.43,0.517411,-5.556808999999999,-0.039138000000000006,-0.20185899999999998,0.8303379999999999,0.484283
944,9.44,0.510671,-5.093644,0.14686,-0.29986599999999997,0.821808,0.451248
945,9.45,0.626113,-4.444868,0.20816500000000002,-0.38295,0.829269,0.420364
946,9.46,0.704979,-3.8790660000000003,0.12697,-0.429825,0.856964,0.372421
947,9.47,0.6972109999999999,-3.2018590000000002,-0.043636000000000015,-0.430893,0.889984,0.31596399999999997
948,9.48,0.579076,-2.709775,-0.292118,-0.411713,0.918747,0.264832
949,9.49,0.553767,-2.317447,-0.562511,-0.371231,0.931534,0.22541799999999998
950,9.5,0.725665,-2.00794,-0.724812,-0.323303,0.8825379999999999,0.188141
951,9.51,1.028659,-1.813853,-0.8822409999999999,-0.272171,0.813293,0.171097
952,9.52,1.512893,-1.6769830000000001,-1.001391,-0.203995,0.719543,0.15298499999999998
953,9.53,1.9220259999999998,-1.6808330000000002,-1.092583,-0.108124,0.636459,0.131668
954,9.54,1.969904,-1.615325,-1.227859,0.004807,0.577866,0.110367
955,9.55,1.638575,-1.5763850000000001,-1.535982,0.09214800000000001,0.5533600000000001,0.08692899999999999
956,9.56,1.103955,-1.604056,-1.781484,0.13583399999999998,0.564026,0.042191
957,9.57,0.643744,-1.527596,-2.249094,0.173111,0.587448,-0.021729
958,9.58,0.258334,-1.0849520000000001,-3.1006080000000003,0.185898,0.537384,-0.083511
959,9.59,0.13659200000000002,-0.622262,-3.43399,0.14328,0.4543,-0.10588099999999999
960,9.6,0.096571,-0.143996,-3.293849,0.019713999999999995,0.40103099999999997,-0.088837
961,9.61,0.763939,0.966435,-2.9596270000000002,-0.16883899999999996,0.26574699999999996,-0.027054
962,9.62,1.2049159999999999,2.211759,-2.402947,-0.358459,0.149628,0.042191
963,9.63,1.7130049999999999,3.800318,-1.87769,-0.47030600000000006,0.096375,0.085861
964,9.64,2.424829,5.166034,-1.537949,-0.473495,0.056961000000000005,0.138062
965,9.65,3.16757,5.809178,-1.363518,-0.38508600000000004,-0.014420000000000002,0.192398
966,9.66,3.043973,5.886032,-1.217178,-0.237015,-0.13372799999999999,0.21369899999999997
967,9.67,2.265701,5.5163910000000005,-1.048618,-0.001587000000000005,-0.201904,0.183868
968,9.68,1.1878360000000001,4.75701,-1.379191,0.320114,-0.16355899999999998,0.102921
969,9.69,0.09046200000000004,3.735554,-2.259375,0.6759189999999999,-0.064484,0.0070339999999999995
970,9.7,-0.957973,2.5331599999999996,-3.184158,0.976318,0.066544,-0.09629800000000001
971,9.71,-1.6801540000000001,1.265841,-3.756397,1.115875,0.190109,-0.247559
972,9.72,-0.7594989999999999,0.9444620000000001,-3.246457,1.014679,0.24231,-0.36154200000000003
973,9.73,1.807076,2.30735,-1.1723430000000001,0.69722,0.203964,-0.324265
974,9.74,4.477315,3.4195,2.1700180000000002,0.268982,0.173065,-0.12931800000000002
975,9.75,5.293346,3.334947,5.377346,-0.081482,0.12619,0.04007
976,9.76,4.114919,1.730723,7.781204,-0.16883900000000002,-0.09111,0.119965
977,9.77,1.7063970000000002,0.2902210000000001,8.602949,-0.078293,-0.435196,0.150848
978,9.78,-0.778351,1.139427,8.091646,0.123047,-0.651443,0.21369899999999997
979,9.79,-2.091704,2.012167,6.402205,0.382965,-0.796326,0.28294400000000003
980,9.8,-3.371064,2.866888,4.270599,0.599213,-0.9603729999999999,0.352188
981,9.81,-3.165604,3.865171,2.206898,0.654617,-0.998718,0.3703
982,9.82,-2.2282919999999997,4.311305,0.9573510000000001,0.549149,-0.867691,0.34579499999999996
983,9.83,-0.838924,4.546489,0.302345,0.349945,-0.6343989999999999,0.290405
984,9.84,0.384171,3.9682239999999998,0.320017,0.144348,-0.45970200000000006,0.20944200000000002
985,9.85,1.082509,2.725709,0.618533,0.004807,-0.398972,0.115692
986,9.86,1.388147,1.450607,0.9539040000000001,-0.07402,-0.41389499999999996,0.016632000000000008
987,9.87,1.526608,0.34814399999999995,1.392176,-0.133682,-0.48526,-0.081375
988,9.88,1.194127,-0.6992799999999999,1.827895,-0.166702,-0.551315,-0.18896500000000002
989,9.89,0.666229,-1.737309,1.980884,-0.16883900000000002,-0.573685,-0.27739
990,9.9,0.29730100000000004,-2.714638,1.9220970000000002,-0.144333,-0.590729,-0.339172
991,9.91,-0.01744599999999999,-3.5922099999999997,1.604322,-0.09320099999999999,-0.637604,-0.37326
992,9.92,-0.199809,-4.421785,1.250992,-0.029282,-0.710037,-0.400955
993,9.93,-0.580767,-5.064541,0.81932,0.0026700000000000005,-0.7664949999999999,-0.43292200000000003
994,9.94,-0.701642,-5.547936,0.35304,-0.022888,-0.793121,-0.439301
995,9.95,-0.822788,-5.788641,0.049815,-0.065506,-0.817627,-0.422256
996,9.96,-1.115418,-5.667339,-0.017141999999999998,-0.118774,-0.832535,-0.393494
997,9.97,-1.232216,-5.154196,-0.051472000000000004,-0.173096,-0.8293459999999999,-0.338104
998,9.98,-1.4209399999999999,-4.519163,-0.059521000000000004,-0.21464499999999997,-0.809113,-0.28483600000000003
999,9.99,-1.535166,-3.968499,-0.097076,-0.257248,-0.8101649999999999,-0.23584000000000002
1000,10.0,-1.740128,-3.487,-0.064973,-0.258316,-0.8240200000000001,-0.19961500000000001
1001,10.01,-1.678164,-2.867218,-0.053833000000000006,-0.26152,-0.8410639999999999,-0.154877
1002,10.02,-1.545858,-2.255146,-0.054348,-0.240204,-0.84639,-0.121857
1003,10.03,-1.4066670000000001,-1.663359,-0.061857,-0.198669,-0.837875,-0.10588099999999999
1004,10.04,-1.217964,-1.231618,-0.141059,-0.150726,-0.793121,-0.094162
1005,10.05,-1.059676,-0.9978030000000001,-0.219464,-0.103851,-0.724945,-0.084579
1006,10.06,-1.150474,-0.8741959999999999,-0.410175,-0.066574,-0.626953,-0.07711799999999999
1007,10.07,-1.546422,-0.9711059999999999,-0.611153,-0.010117,-0.510834,-0.06221
1008,10.08,-2.064323,-1.166405,-0.709202,0.064453,-0.380875,-0.044098000000000005
1009,10.09,-2.503771,-1.32843,-1.155933,0.148605,-0.25303600000000004,-0.019592
1010,10.1,-2.779112,-1.6866560000000002,-1.877015,0.227448,-0.185928,0.0017090000000000007
1011,10.11,-2.4743049999999998,-2.243005,-2.531869,0.275375,-0.189117,0.018753
1012,10.12,-1.910611,-2.4721330000000004,-3.240195,0.255142,-0.208298,0.042191
1013,10.13,-1.098165,-2.360466,-3.5198989999999997,0.166718,-0.22427399999999997,0.061371
1014,10.14,-0.261317,-2.133565,-3.2859769999999995,0.004807000000000007,-0.21681199999999998,0.053909000000000006
1015,10.15,0.319285,-1.530942,-2.720311,-0.206116,-0.199768,0.033676
1016,10.16,0.23936100000000002,-0.279562,-1.9005029999999998,-0.43515,-0.201904,0.007034
1017,10.17,-0.797086,1.872471,-1.0028920000000001,-0.623703,-0.197647,-0.018524000000000002
1018,10.18,-1.454472,3.6985,-0.09752899999999998,-0.70253,-0.136917,-0.04303
1019,10.19,-1.862905,5.281434,0.34697599999999995,-0.637558,-0.046370999999999996,-0.060074
1020,10.2,-2.166127,6.578798,0.328164,-0.46817,-0.008026000000000002,-0.101624
1021,10.21,-2.2708310000000003,6.891925,0.06750600000000001,-0.262573,0.088913,-0.152756
1022,10.22,-1.9671900000000002,6.073052,-0.579912,-0.042068,0.23911999999999997,-0.172989
1023,10.23,-1.420828,4.689080000000001,-1.636742,0.19122300000000006,0.316879,-0.13783299999999998
1024,10.24,-0.386626,3.2716790000000002,-2.940016,0.437302,0.288116,-0.05368
1025,10.25,0.804439,1.9697790000000002,-3.8076480000000004,0.623718,0.087845,0.025146
1026,10.26,1.9743950000000001,1.298494,-3.9178,0.69722,-0.199768,0.085861
1027,10.27,1.913807,1.312064,-2.7059599999999997,0.624786,-0.48526,0.05923500000000001
1028,10.28,-0.17443399999999998,1.7856130000000001,-0.24162199999999998,0.447952,-0.655701,-0.111206
1029,10.29,-2.000023,1.913874,2.441913,0.28070100000000003,-0.541718,-0.292297
1030,10.3,-2.43796,0.6364380000000001,4.442595,0.132629,-0.21788000000000002,-0.398819
1031,10.31,-1.7862630000000002,-1.592854,6.005944,0.038895,-0.0037689999999999946,-0.419067
1032,10.32,-0.6188870000000001,-2.4722779999999998,6.493738,0.022919,0.014343,-0.40734899999999996
1033,10.33,0.781177,-1.893923,6.068561,0.034622,-0.032532,-0.396698
1034,10.34,2.750938,0.128602,4.719426,0.115585,-0.034652999999999996,-0.402023
1035,10.35,4.7648150000000005,2.78484,2.851396,0.21785,0.044174,-0.44143699999999997
1036,10.36,5.481557,4.979032,1.602575,0.24449200000000001,0.10809300000000001,-0.491501
1037,10.37,4.510934,5.93498,1.068357,0.181641,0.171997,-0.5362399999999999
1038,10.38,2.19064,5.3374559999999995,0.714741,0.04422000000000001,0.229523,-0.5383760000000001
1039,10.39,-0.3317950000000001,3.9839580000000003,0.47616,-0.108124,0.251892,-0.425461
1040,10.4,-2.075944,3.073209,0.578871,-0.213577,0.276398,-0.251816
1041,10.41,-2.9306080000000003,1.584234,0.879972,-0.279617,0.38398699999999997,0.028350999999999998
1042,10.42,-2.502077,0.581129,1.25387,-0.284943,0.479858,0.194519
1043,10.43,-2.058618,-0.311241,1.5559020000000001,-0.256195,0.53952,0.307449
1044,10.44,-1.62242,-1.07371,1.577899,-0.19653299999999999,0.575745,0.382019
1045,10.45,-1.188605,-2.028552,1.3637299999999999,-0.128357,0.585327,0.41610699999999995
1046,10.46,-0.874424,-3.038316,1.057699,-0.051651,0.575745,0.442734
1047,10.47,-0.26792999999999995,-3.868067,0.63636,0.014389000000000002,0.588516,0.46191400000000005
1048,10.48,0.136929,-4.34234,0.040655000000000004,0.033569,0.617279,0.465103
1049,10.49,0.691294,-4.837351,-0.516763,-0.0015870000000000016,0.650299,0.47042799999999996
1050,10.5,0.9401,-5.215972,-0.824131,-0.07083099999999999,0.689728,0.468292
1051,10.51,1.1842709999999999,-5.461834,-0.844319,-0.166702,0.718491,0.46403500000000003
1052,10.52,1.440175,-5.551476,-0.628901,-0.265778,0.712097,0.43527200000000005
1053,10.53,1.390464,-5.457197,-0.23254699999999998,-0.356323,0.7046359999999999,0.390533
1054,10.54,1.173625,-5.096925,0.2573,-0.41810600000000003,0.7067720000000001,0.34579499999999996
1055,10.55,1.028728,-4.569123,0.538338,-0.43621800000000005,0.728073,0.303177
1056,10.56,0.893768,-3.9127910000000004,0.48593000000000003,-0.417038,0.763229,0.261642
1057,10.57,0.7303029999999999,-3.2819,0.122629,-0.375504,0.793045,0.217957
1058,10.58,0.701019,-2.8131209999999998,-0.385869,-0.333954,0.762161,0.184937
1059,10.59,0.806762,-2.458308,-0.754081,-0.29986599999999997,0.697174,0.15830999999999998
1060,10.6,1.095573,-2.0773740000000003,-1.002737,-0.27003499999999997,0.649246,0.141266
1061,10.61,1.407053,-1.6806619999999999,-1.2549059999999999,-0.23915100000000003,0.615158,0.124222
1062,10.62,1.6112879999999998,-1.428294,-1.467367,-0.19653299999999999,0.589584,0.10824600000000001
1063,10.63,1.49553,-1.218948,-1.7252560000000001,-0.14646900000000002,0.580002,0.090134
1064,10.64,1.007722,-1.140978,-1.9996909999999999,-0.112381,0.583191,0.06456
1065,10.65,0.616631,-1.066254,-2.085067,-0.077225,0.589584,0.025146
1066,10.66,0.230866,-0.754249,-2.526707,-0.058044000000000005,0.5565640000000001,-0.031311
1067,10.67,-0.17510699999999998,-0.28734299999999996,-2.779046,-0.067642,0.497971,-0.038773
1068,10.68,-0.414549,0.030349999999999964,-2.847209,-0.075089,0.470276,-0.024918
1069,10.69,-0.330421,0.23438,-2.45324,-0.118774,0.375473,-0.022781
1070,10.7,0.292452,0.933746,-1.817452,-0.213577,0.25296,-0.013199
1071,10.71,0.809984,2.123052,-1.298238,-0.33609,0.247635,-0.004684000000000001
1072,10.72,1.401071,3.8429919999999997,-1.0627879999999998,-0.398926,0.26149,0.003845
1073,10.73,2.718538,5.586323999999999,-1.067597,-0.36911,0.23379499999999998,0.072021
1074,10.74,4.071534,6.62475,-1.3552309999999999,-0.24340799999999999,0.067612,0.187073
1075,10.75,4.340803,6.618653,-1.511714,-0.06337000000000001,-0.186996,0.264832
1076,10.76,3.759239,5.762791,-1.659014,0.152878,-0.305237,0.272293
1077,10.77,2.341655,5.1177019999999995,-2.1112490000000004,0.401077,-0.288193,0.222229
1078,10.78,1.133665,3.8446879999999997,-2.9147380000000003,0.580048,-0.197647,0.181747
1079,10.79,-0.14093,3.6037809999999997,-3.132159,0.733444,-0.214691,-0.04303
1080,10.8,0.478126,4.255892,-2.526381,0.651413,-0.27860999999999997,-0.18364
1081,10.81,2.267462,4.828797,-0.8496440000000001,0.36486799999999997,-0.360626,-0.130386
1082,10.82,4.451537,4.675478,1.184893,0.061263999999999985,-0.536392,0.045395000000000005
1083,10.83,4.874698,3.7022489999999997,4.057034,-0.11557,-0.839996,0.22009299999999998
1084,10.84,3.728047,1.4262700000000001,7.1966779999999995,-0.099594,-0.9859469999999999,0.28613299999999997
1085,10.85,1.0074220000000005,-0.6469199999999999,8.232852000000001,0.101746,-0.9529110000000001,0.20518499999999998
1086,10.86,-1.448228,-1.0267959999999998,7.368749,0.329712,-0.8240200000000001,0.183868
1087,10.87,-3.097473,-0.2245260000000001,5.360526999999999,0.5597989999999999,-0.7196199999999999,0.193466
1088,10.88,-4.2069529999999995,0.741426,3.247582,0.672729,-0.760101,0.198792
1089,10.89,-4.8940339999999996,1.9939189999999998,1.602442,0.662064,-0.7750239999999999,0.188141
1090,10.9,-4.507353,3.09789,0.7511910000000002,0.529984,-0.547058,0.175354
1091,10.91,-3.2006919999999996,3.6479220000000003,0.420018,0.32757600000000003,-0.16568,0.151917
1092,10.92,-1.677142,3.8009190000000004,0.347119,0.103867,0.09530599999999999,0.126343
1093,10.93,-0.540496,3.280733,0.622147,-0.07402000000000003,0.181595,0.098648
1094,10.94,0.19827400000000006,2.3039099999999997,1.085909,-0.1763,0.138977,0.075211
1095,10.95,0.785668,1.228799,1.523421,-0.213577,0.010085999999999984,0.051773
1096,10.96,1.165095,0.06461899999999997,1.8871900000000001,-0.20931999999999998,-0.135864,0.005981
1097,10.97,1.210377,-1.1239569999999999,2.089082,-0.172028,-0.235992,-0.06858799999999997
1098,10.98,1.102363,-2.183986,1.866557,-0.127289,-0.304169,-0.145294
1099,10.99,0.977508,-3.2625740000000003,1.548509,-0.077225,-0.368088,-0.197495
1100,11.0,0.692281,-4.106195,1.179834,-0.022888,-0.440521,-0.24330100000000002
1101,11.01,0.546972,-4.732618,0.885099,0.020782,-0.478867,-0.282715
1102,11.02,0.05304700000000001,-4.967525,0.538764,0.02504,-0.482071,-0.31466700000000003
1103,11.03,-0.121524,-4.968298,0.195298,0.006926999999999999,-0.467163,-0.309341
1104,11.04,-0.497564,-4.892421,-0.110054,-0.020766999999999997,-0.47142,-0.285904
1105,11.05,-0.7581869999999999,-4.582395,-0.321903,-0.05271900000000001,-0.520416,-0.251816
1106,11.06,-1.063653,-4.2204690000000005,-0.329761,-0.09640499999999999,-0.552383,-0.21772800000000003
1107,11.07,-1.33338,-3.8433019999999996,-0.318425,-0.15498399999999998,-0.581146,-0.193237
1108,11.08,-1.488651,-3.657693,-0.22354699999999997,-0.20931999999999998,-0.607773,-0.1698
1109,11.09,-1.465562,-3.4337129999999996,-0.102336,-0.257248,-0.639725,-0.145294
1110,11.1,-1.4275520000000002,-3.167727,0.02153,-0.276428,-0.6727449999999999,-0.121857
1111,11.11,-1.269455,-2.9278869999999997,0.05056,-0.28282199999999996,-0.711105,-0.092026
1112,11.12,-1.067083,-2.621555,0.053888,-0.272171,-0.714294,-0.07605
1113,11.13,-0.886473,-2.310948,0.0019450000000000003,-0.24659699999999998,-0.6844640000000001,-0.049423
1114,11.14,-0.8213520000000001,-1.975055,-0.21894299999999997,-0.192276,-0.624817,-0.024918
1115,11.15,-1.0779370000000001,-1.6922439999999999,-0.631558,-0.128357,-0.541718,-0.01001
1116,11.16,-1.520904,-1.5329270000000002,-1.1311959999999999,-0.058044000000000005,-0.441589,0.005981
1117,11.17,-1.946895,-1.358741,-1.4263780000000001,0.009064000000000001,-0.34571799999999997,0.015563999999999998
1118,11.18,-2.1049439999999997,-1.063984,-1.9148439999999998,0.082565,-0.267944,0.034729
1119,11.19,-2.330315,-1.013059,-2.189111,0.11239600000000001,-0.25196799999999997,0.037933
1120,11.2,-1.9464650000000001,-1.168794,-2.284498,0.12944,-0.284988,0.036864999999999995
1121,11.21,-1.370882,-1.164079,-2.308805,0.090027,-0.339325,0.032608
1122,11.22,-0.9104260000000001,-0.7582,-2.164543,0.0026699999999999988,-0.369156,0.024078
1123,11.23,-0.5187390000000001,-0.07667099999999999,-1.805877,-0.139008,-0.372345,0.010239
1124,11.24,-0.703941,0.871273,-1.222332,-0.32009899999999997,-0.341461,-0.008942
1125,11.25,-1.135917,2.2595560000000003,-0.5765359999999999,-0.462845,-0.231735,-0.032379000000000005
1126,11.26,-1.037134,3.136941,0.008677999999999991,-0.507584,-0.064484,-0.044098000000000005
1127,11.27,-1.067402,4.319163,-0.06164399999999999,-0.38295,0.020737000000000002,-0.06221
1128,11.28,-1.483733,5.248094,-0.19127,-0.182678,-0.031464,-0.123993
1129,11.29,-1.370169,5.071073999999999,-0.494121,0.05806,-0.034652999999999996,-0.133575
1130,11.3,-0.518579,4.478808,-1.437149,0.315857,-0.042114,-0.09523
1131,11.31,0.751387,3.309072,-2.4192169999999997,0.573654,-0.13053900000000002,-0.051544000000000006
1132,11.32,1.744414,2.21877,-3.041802,0.777115,-0.33399999999999996,-0.013199000000000002
1133,11.33,2.213021,1.391282,-2.894637,0.8697969999999999,-0.574753,0.035797
1134,11.34,1.375594,1.178179,-1.4912520000000002,0.753677,-0.7324069999999999,0.015564
1135,11.35,-0.8544880000000001,2.282548,0.690307,0.45114099999999996,-0.789932,-0.160202
1136,11.36,-2.7490959999999998,2.638664,3.092212,0.054871,-0.6407930000000001,-0.39456199999999997
1137,11.37,-3.880808,1.5829790000000001,5.631959999999999,-0.184814,-0.32014499999999996,-0.521332
1138,11.38,-2.686184,-0.433858,7.62595,-0.15498399999999998,-0.13053900000000002,-0.47871400000000003
1139,11.39,-0.611672,-0.345879,6.950842,0.023971999999999997,-0.070877,-0.42013500000000004
1140,11.4,1.022389,1.058332,5.626523000000001,0.229568,-0.035720999999999996,-0.445694
1141,11.41,3.126421,2.573332,4.3480419999999995,0.45114099999999996,0.11021400000000002,-0.458481
1142,11.42,4.983421,3.546818,2.7356700000000003,0.58963,0.247635,-0.44036899999999995
1143,11.43,5.157248,4.080228,1.268843,0.615204,0.21887199999999998,-0.423325
1144,11.44,3.3522879999999997,4.085898,0.22169300000000006,0.534241,0.170944,-0.433975
1145,11.45,0.8668689999999999,3.556514,-0.349269,0.398956,0.20715300000000003,-0.382843
1146,11.46,-1.461443,2.9241200000000003,-0.222752,0.232773,0.297699,-0.270996
1147,11.47,-2.787468,2.193702,0.394447,0.09642,0.413818,-0.146362
1148,11.48,-3.583504,1.439837,1.342064,0.0005339999999999998,0.56189,-0.031310999999999985
1149,11.49,-3.800033,0.6969390000000001,2.3282119999999997,-0.042068,0.7035680000000001,0.081604
1150,11.5,-3.4370870000000004,0.06045,2.7910779999999997,-0.032486,0.800507,0.207306
1151,11.51,-2.451439,-0.4259379999999999,2.859683,0.020782,0.818619,0.308502
1152,11.52,-1.2260950000000002,-0.931881,2.573233,0.09109500000000001,0.796249,0.399063
1153,11.53,-0.07744099999999997,-1.515326,2.149794,0.153946,0.749374,0.471497
1154,11.54,0.8440479999999999,-2.094831,1.779616,0.18908699999999998,0.72168,0.5109100000000001
1155,11.55,1.420884,-2.645469,1.364758,0.202942,0.731262,0.513046
1156,11.56,1.781296,-3.1330169999999997,0.854203,0.182693,0.745117,0.501328
1157,11.57,2.062361,-3.580639,0.43103500000000006,0.134766,0.7504430000000001,0.468292
1158,11.58,2.079612,-3.974986,0.10583499999999997,0.06977799999999999,0.746185,0.42568999999999996
1159,11.59,1.8046650000000002,-4.172319,-0.042589000000000016,0.005874999999999997,0.752579,0.375626
1160,11.6,1.5712620000000002,-4.245449,-0.064095,-0.06018099999999999,0.779205,0.330887
1161,11.61,1.1018940000000002,-4.153642,-0.077287,-0.139008,0.809036,0.28080700000000003
1162,11.62,0.7572800000000001,-3.885439,0.03978799999999999,-0.228485,0.829269,0.241394
1163,11.63,0.48202700000000004,-3.4148629999999995,0.08759700000000001,-0.30093400000000003,0.845245,0.201981
1164,11.64,0.266733,-2.826996,0.11595,-0.339279,0.853775,0.165756
1165,11.65,0.2304,-2.23719,-0.019872,-0.344604,0.864426,0.128479
1166,11.66,0.31561500000000003,-1.650023,-0.185246,-0.32009899999999997,0.849518,0.096527
1167,11.67,0.568231,-1.247004,-0.452104,-0.284943,0.802643,0.06881699999999999
1168,11.68,0.901011,-1.082563,-0.6340359999999999,-0.245529,0.724869,0.060302999999999995
1169,11.69,1.394742,-1.1500219999999999,-0.809129,-0.20506300000000002,0.6375270000000001,0.058166999999999996
1170,11.7,1.662032,-1.371048,-0.9838520000000001,-0.150726,0.548035,0.06562799999999999
1171,11.71,1.730894,-1.60785,-1.241871,-0.098526,0.48413100000000003,0.077347
1172,11.72,1.393367,-1.920821,-1.4165379999999999,-0.068695,0.45748900000000003,0.09225499999999999
1173,11.73,0.5705439999999999,-2.261877,-1.614244,-0.061249,0.474533,0.056046000000000006
1174,11.74,-0.016793999999999976,-2.0925700000000003,-1.5659459999999998,-0.032486,0.486252,0.0027770000000000017
1175,11.75,-0.351769,-1.791911,-1.674825,0.005875000000000003,0.45748900000000003,-0.059005999999999996
1176,11.76,-0.703008,-1.085895,-1.9512990000000001,0.05806,0.380798,-0.098419
1177,11.77,-0.431051,-0.736528,-2.457321,0.080429,0.31369,-0.10481300000000002
1178,11.78,0.45898500000000003,-1.015824,-2.091715,0.047409,0.20929,-0.07711799999999999
1179,11.79,1.6463020000000002,-0.5379470000000001,-1.593918,-0.022888,0.067612,-0.040894
1180,11.8,2.585998,0.673396,-1.229942,-0.131546,-0.013350999999999998,0.021957000000000004
1181,11.81,3.010402,2.432398,-1.205119,-0.192276,0.005829,0.06349199999999999
1182,11.82,2.973637,3.730542,-1.32612,-0.189072,-0.004837,0.080536
1183,11.83,2.364013,4.020298,-1.45833,-0.132614,-0.045319,0.08906599999999999
1184,11.84,1.356058,3.7633080000000003,-1.331951,-0.049530000000000005,-0.09963999999999999,0.099716
1185,11.85,0.24558,3.2900080000000003,-1.272642,0.083633,-0.094315,0.08374
1186,11.86,-0.730201,2.693187,-1.3707049999999998,0.30307,-0.038925,0.033676
1187,11.87,-1.7389439999999998,2.139813,-1.6734810000000002,0.555542,0.048431,-0.07498200000000001
1188,11.88,-2.462862,1.7076930000000001,-1.8305790000000002,0.728119,0.192245,-0.209213
1189,11.89,-2.087485,2.735439,-1.486038,0.787766,0.278534,-0.327454
1190,11.9,0.05077199999999982,4.120644,-0.178975,0.609879,0.28598,-0.242233
1191,11.91,2.5431630000000003,4.750361,1.590077,0.243423,0.16667200000000001,-0.018524000000000013
1192,11.92,4.045072,4.328633,3.4412260000000003,-0.036743,-0.036788999999999995,0.22648600000000002
1193,11.93,4.274404,2.219955,4.979243,-0.043137,-0.155029,0.410782
1194,11.94,2.263264,0.4315490000000001,5.218914,0.148605,-0.335068,0.42782600000000004
1195,11.95,0.220349,0.20117000000000002,4.761296,0.368057,-0.440521,0.402252
1196,11.96,-1.366457,0.014097,4.209226,0.536362,-0.47035200000000005,0.35112
1197,11.97,-3.211488,0.693974,3.0198970000000003,0.565125,-0.48953199999999997,0.272293
1198,11.98,-3.7400589999999996,1.921846,2.028449,0.433044,-0.352112,0.23288000000000003
1199,11.99,-3.639668,3.050982,1.126898,0.223175,-0.135864,0.22541799999999998
1200,12.0,-2.933894,3.863579,0.532158,0.021850999999999995,0.006881999999999999,0.256317
1201,12.01,-1.2436049999999998,3.706779,0.586514,-0.132614,0.067612,0.28720100000000004
1202,12.02,0.17348699999999995,2.9540029999999997,0.972577,-0.212509,0.028198,0.27655
1203,12.03,0.972865,2.43935,1.461388,-0.23381,-0.103897,0.261642
1204,12.04,1.784091,2.007837,1.837143,-0.219971,-0.277542,0.246719
1205,12.05,2.33906,1.174617,2.1210259999999996,-0.19014,-0.466095,0.194519
1206,12.06,2.297384,0.207936,2.170785,-0.15498399999999998,-0.594986,0.102921
1207,12.07,1.852569,-0.763554,1.896393,-0.11024500000000001,-0.668488,0.0017090000000000024
1208,12.08,1.357961,-1.7307580000000002,1.537475,-0.064438,-0.702576,-0.081375
1209,12.09,0.822342,-2.526344,1.1296680000000001,-0.019699,-0.715363,-0.155945
1210,12.1,0.18651900000000002,-3.2038029999999997,0.768946,0.006927000000000001,-0.707901,-0.21453899999999998
1211,12.11,-0.29294899999999996,-3.704285,0.378584,-0.0005190000000000004,-0.6908569999999999,-0.253952
1212,12.12,-0.911217,-3.9865519999999997,0.148411,-0.032486,-0.668488,-0.278458
1213,12.13,-1.4192,-4.145848,0.020702,-0.077225,-0.641861,-0.275253
1214,12.14,-1.84007,-4.038078,-0.171577,-0.14221199999999998,-0.6280060000000001,-0.259277
1215,12.15,-1.8899740000000003,-3.7694910000000004,-0.306743,-0.207184,-0.623749,-0.23690799999999998
1216,12.16,-1.8415830000000002,-3.4511160000000003,-0.472657,-0.266846,-0.657837,-0.222
1217,12.17,-1.749861,-3.041779,-0.618246,-0.32756,-0.683411,-0.204956
1218,12.18,-1.5250290000000002,-2.686204,-0.7107600000000001,-0.375504,-0.7185520000000001,-0.187897
1219,12.19,-1.309677,-2.343911,-0.620225,-0.403198,-0.7409359999999999,-0.16127
1220,12.2,-1.077034,-2.033856,-0.411826,-0.409592,-0.7505189999999999,-0.138901
1221,12.21,-0.896861,-1.745112,-0.151747,-0.394669,-0.729218,-0.112274
1222,12.22,-0.868756,-1.547297,-0.032856,-0.345673,-0.677017,-0.087769
1223,12.23,-0.9832059999999999,-1.3994030000000002,-0.081416,-0.280685,-0.6035159999999999,-0.061141999999999995
1224,12.24,-1.160686,-1.218361,-0.25002199999999997,-0.20506300000000002,-0.515091,-0.032379000000000005
1225,12.25,-1.521796,-1.075381,-0.5338649999999999,-0.128357,-0.404312,-0.017456
1226,12.26,-1.9410610000000001,-1.141317,-0.7683369999999999,-0.059113,-0.287125,-0.006805000000000001
1227,12.27,-2.255049,-1.295069,-1.043069,-0.009048,-0.17846700000000001,0.011307
1228,12.28,-2.327771,-1.415118,-1.34792,0.027176,-0.097504,0.042191
1229,12.29,-2.122678,-1.3419809999999999,-1.7406869999999999,0.072983,-0.068741,0.08480800000000001
1230,12.3,-2.012541,-1.324726,-2.227329,0.10813900000000001,-0.09324600000000001,0.123154
1231,12.31,-1.6511669999999998,-1.565852,-2.466402,0.124115,-0.142258,0.144455
1232,12.32,-1.243061,-1.655784,-2.491321,0.10281400000000002,-0.16781600000000002,0.142334
1233,12.33,-0.80396,-1.4662959999999998,-2.322192,0.041016000000000004,-0.190186,0.126343
1234,12.34,-0.492687,-0.996041,-1.907002,-0.07296799999999999,-0.25196799999999997,0.113571
1235,12.35,-0.231571,-0.37398400000000004,-1.214927,-0.230621,-0.305237,0.103973
1236,12.36,-0.10547100000000001,0.255664,-0.44878900000000005,-0.38295,-0.326538,0.101852
1237,12.37,-0.035288,1.048133,0.173279,-0.489487,-0.28179899999999997,0.10504200000000001
1238,12.38,-0.092503,2.556692,0.32397,-0.482025,-0.185928,0.070953
1239,12.39,-0.9275200000000001,4.254817,0.073577,-0.373367,-0.09431499999999997,-0.040894
1240,12.4,-1.6628740000000002,5.148626,-0.032379000000000005,-0.215714,0.033524,-0.174057
1241,12.41,-1.935382,5.016447,-0.12164200000000001,-0.037811000000000004,0.182648,-0.25501999999999997
1242,12.42,-2.1209740000000004,4.159058,-0.539339,0.18376199999999998,0.29237399999999997,-0.276321
1243,12.43,-1.894686,3.251168,-1.187705,0.46286000000000005,0.307297,-0.22837800000000003
1244,12.44,-1.1404940000000001,2.4798970000000002,-2.140117,0.733444,0.184784,-0.1698
1245,12.45,0.09186499999999996,2.180339,-2.745041,0.8857729999999999,-0.087921,-0.123993
1246,12.46,0.8237770000000001,1.806026,-2.4867619999999997,0.839966,-0.357437,-0.111206
1247,12.47,0.754909,1.556684,-1.467364,0.630112,-0.507629,-0.142105
1248,12.48,-0.011799000000000004,1.928064,-0.1962740000000001,0.389359,-0.533203,-0.209213
1249,12.49,-0.8743790000000001,2.404543,1.467661,0.18908699999999998,-0.462891,-0.349823
1250,12.5,-1.7941220000000002,1.61067,3.636586,0.038895,-0.265823,-0.460617
1251,12.51,-2.009045,0.269405,5.449871,-0.006911999999999999,0.04950000000000003,-0.46380600000000005
1252,12.52,-0.838516,-0.394573,5.5076220000000005,0.048477,0.18798800000000002,-0.44036899999999995
1253,12.53,0.5833410000000001,-0.400393,5.084363,0.158203,0.007949999999999999,-0.431854
1254,12.54,2.162354,0.06062200000000001,4.619025,0.291351,-0.231735,-0.393494
1255,12.55,3.6214800000000005,0.752417,3.5663120000000004,0.379776,-0.369156,-0.345566
1256,12.56,4.770468,1.8856400000000002,2.2245,0.379776,-0.38406399999999996,-0.302948
1257,12.57,4.604385,2.65993,0.909992,0.27858,-0.28179899999999997,-0.308273
1258,12.58,3.107885,2.714407,-0.222825,0.103867,-0.142258,-0.34875500000000004
1259,12.59,0.3508389999999999,1.732645,-0.67184,-0.095337,0.02713,-0.350891
1260,12.6,-1.6733049999999998,1.167191,-0.497404,-0.262573,0.213547,-0.259277
1261,12.61,-3.072572,0.952732,0.08912700000000001,-0.38401799999999997,0.411682,-0.144226
1262,12.62,-4.030907,0.8846,1.064463,-0.45433,0.643921,-0.008942000000000005
1263,12.63,-4.297452,0.816346,1.902608,-0.44900500000000004,0.845245,0.134872
1264,12.64,-4.004839,0.661213,2.417977,-0.38401799999999997,0.956039,0.271225
1265,12.65,-3.244552,0.334433,2.460414,-0.266846,0.989059,0.388397
1266,12.66,-2.378302,-0.20526,2.116794,-0.144333,0.960297,0.467239
1267,12.67,-1.530653,-0.920298,1.712366,-0.021835,0.887863,0.537537
1268,12.68,-0.472755,-1.726634,1.228788,0.074051,0.8207549999999999,0.591873
1269,12.69,0.463759,-2.463632,0.741475,0.132629,0.748306,0.623825
1270,12.7,1.368686,-3.116263,0.24039899999999997,0.157135,0.6918489999999999,0.624893
1271,12.71,2.006396,-3.7107360000000003,-0.351001,0.15074200000000001,0.643921,0.5939939999999999
1272,12.72,2.3698770000000002,-4.1114440000000005,-0.8057840000000001,0.100677,0.599167,0.550323
1273,12.73,2.475509,-4.273871,-1.105019,0.027176,0.568283,0.50238
1274,12.74,2.510926,-4.2162180000000005,-1.234278,-0.065506,0.558701,0.45019499999999996
1275,12.75,2.384732,-3.991197,-1.221023,-0.16777,0.5672149999999999,0.37988299999999997
1276,12.76,1.968618,-3.6317180000000002,-1.065476,-0.27110300000000004,0.591721,0.306381
1277,12.77,1.432858,-3.201777,-0.8513719999999999,-0.354187,0.635391,0.240326
1278,12.78,0.946894,-2.724008,-0.635123,-0.409592,0.68866,0.194519
1279,12.79,0.608406,-2.24,-0.498449,-0.42131,0.707825,0.14765899999999998
1280,12.8,0.549061,-1.6861080000000002,-0.443705,-0.396805,0.692917,0.113571
1281,12.81,0.6741159999999999,-1.309137,-0.46295299999999995,-0.34993,0.650299,0.08692899999999999
1282,12.82,0.860477,-1.0057120000000002,-0.501827,-0.290283,0.587448,0.067764
1283,12.83,0.980526,-0.8359709999999999,-0.648243,-0.228485,0.523544,0.059235
1284,12.84,0.999374,-0.77987,-0.8763040000000001,-0.161377,0.45323199999999997,0.05072
1285,12.85,0.931658,-0.7588590000000001,-1.21825,-0.095337,0.370148,0.042191
1286,12.86,0.810141,-0.724669,-1.527335,-0.047393999999999985,0.28385900000000003,0.028350999999999998
1287,12.87,0.557116,-0.829865,-1.7921310000000001,-0.015441999999999999,0.22100799999999998,-0.0004119999999999992
1288,12.88,0.31840599999999997,-1.006697,-2.0420700000000003,0.009064,0.196503,-0.04303
1289,12.89,0.174009,-1.1462219999999999,-2.1877240000000002,0.053801999999999996,0.217804,-0.0867
1290,12.9,-0.143123,-0.998927,-2.468734,0.088959,0.243378,-0.12931800000000002
1291,12.91,-0.27426500000000004,-1.083364,-2.745197,0.06765700000000001,0.25721700000000003,-0.123993
1292,12.92,-0.032098000000000015,-1.4161540000000001,-2.348825,-0.011184999999999999,0.270004,-0.099487
1293,12.93,0.028263999999999997,-1.3126659999999999,-2.084447,-0.151794,0.227402,-0.069656
1294,12.94,0.526652,0.479484,-1.50394,-0.420242,0.114471,0.033676
1295,12.95,0.724448,2.094853,-1.061259,-0.533157,0.050568,0.095459
1296,12.96,1.150021,3.443854,-0.740704,-0.539551,0.0015560000000000018,0.154053
1297,12.97,1.842043,4.200311,-0.801345,-0.452194,-0.050644,0.215836
1298,12.98,1.781996,4.480301,-0.8490979999999999,-0.311584,-0.134796,0.24353000000000002
1299,12.99,1.406017,4.515821,-0.794412,-0.126221,-0.17421,0.228607
1300,13.0,0.742898,4.279387,-0.975794,0.11451699999999998,-0.149704,0.151917
1301,13.01,-0.070967,3.902833,-1.540593,0.39468400000000003,-0.087921,0.044327000000000005
1302,13.02,-0.8164140000000001,3.421524,-2.38259,0.6759189999999999,-0.028275,-0.06007400000000001
1303,13.03,-1.2519790000000002,2.880873,-3.04987,0.883652,0.033524,-0.152756
1304,13.04,-0.04827999999999999,2.8603680000000002,-2.786482,0.8996280000000001,0.133652,-0.195358
1305,13.05,1.7842470000000001,3.473706,-1.649816,0.681244,0.164551,-0.10481300000000002
1306,13.06,3.33049,3.515635,0.08121800000000001,0.321182,0.08252000000000001,0.06349200000000002
1307,13.07,3.982014,2.604074,2.37958,0.015457,-0.07620199999999999,0.22116100000000002
1308,13.08,3.3630480000000005,0.6775259999999999,4.837255,-0.095337,-0.22853099999999998,0.254181
1309,13.09,1.142264,-0.523835,6.0603110000000004,-0.009048,-0.30098,0.217957
1310,13.1,-0.810922,-0.77742,5.930377,0.163528,-0.22853099999999998,0.21051
1311,13.11,-2.2332959999999997,-0.29443,5.058578,0.335037,-0.11029100000000001,0.193466
1312,13.12,-3.392817,0.427295,3.899229,0.44902,-0.103897,0.124222
1313,13.13,-4.457401,1.698582,2.428197,0.500153,-0.065552,0.069885
1314,13.14,-4.481330842879466,2.7156448485047666,1.3538514441854557,0.468185,0.13578800000000002,0.070953
1315,13.15,-3.384489,3.010335,0.816992,0.343552,0.411682,0.081604
1316,13.16,-1.6403759999999998,3.102251,0.390802,0.164597,0.617279,0.093323
1317,13.17,0.28567999999999993,2.53966,0.141087,0.018646,0.685455,0.087997
1318,13.18,1.2367299999999999,1.889214,0.056353,-0.069763,0.6013029999999999,0.076279
1319,13.19,1.9415619999999998,1.279021,0.272978,-0.127289,0.372269,0.052841
1320,13.2,2.186718,0.483266,0.815828,-0.15712,0.11235,0.014496000000000004
1321,13.21,2.026761,-0.27488899999999994,1.374716,-0.185883,-0.068741,-0.048355
1322,13.22,1.559344,-1.037435,1.6737090000000001,-0.191208,-0.169952,-0.122925
1323,13.23,0.770628,-2.109194,1.651979,-0.145401,-0.263687,-0.21772800000000003
1324,13.24,0.25909,-2.751001,1.462538,-0.094269,-0.287125,-0.270996
1325,13.25,-0.204556,-3.437822,1.207068,-0.054854999999999994,-0.265823,-0.304016
1326,13.26,-0.655409,-3.8498379999999996,0.799666,-0.031418,-0.22641,-0.325317
1327,13.27,-1.064259,-4.120369999999999,0.367647,-0.022888,-0.186996,-0.33171100000000003
1328,13.28,-1.34883,-4.07294,-0.025268000000000013,-0.034607,-0.16568,-0.328522
1329,13.29,-1.6734380000000002,-3.8505269999999996,-0.28391500000000003,-0.067642,-0.145447,-0.32106
1330,13.3,-1.7979040000000002,-3.563134,-0.579792,-0.1241,-0.140121,-0.308273
1331,13.31,-1.90198,-3.2360740000000003,-0.729268,-0.183746,-0.157166,-0.298691
1332,13.32,-1.789708,-2.762973,-0.7666430000000001,-0.249802,-0.19339,-0.282715
1333,13.33,-1.618013,-2.4077349999999997,-0.715594,-0.305191,-0.22534200000000001,-0.266739
1334,13.34,-1.413757,-2.059272,-0.656177,-0.343536,-0.263687,-0.239044
1335,13.35,-1.205239,-1.771034,-0.5207890000000001,-0.352066,-0.303101,-0.197495
1336,13.36,-0.972108,-1.558921,-0.409352,-0.343536,-0.321213,-0.155945
1337,13.37,-0.846728,-1.470995,-0.30468,-0.309448,-0.321213,-0.111206
1338,13.38,-0.812663,-1.401169,-0.280992,-0.26364099999999996,-0.29884299999999997,-0.07711799999999999
1339,13.39,-1.024678,-1.265348,-0.497345,-0.20079,-0.254105,-0.054749
1340,13.4,-1.3085360000000001,-1.2519200000000001,-0.8684370000000001,-0.132614,-0.182724,-0.048355
1341,13.41,-1.531831,-1.3158290000000001,-1.269551,-0.067642,-0.120941,-0.047287
1342,13.42,-1.789134,-1.2991469999999998,-1.704854,-0.011184999999999999,-0.073013,-0.041962
1343,13.43,-1.905931,-1.297851,-2.0838799999999997,0.027176,-0.04425,-0.032379000000000005
1344,13.44,-1.9158979999999999,-1.373983,-2.440354,0.054871,-0.028275,-0.022781
1345,13.45,-1.642554,-1.569962,-2.6339240000000004,0.048477,-0.020812999999999998,-0.019592
1346,13.46,-1.157571,-1.7428700000000001,-2.669061,0.0037380000000000017,-0.031464,-0.015335
1347,13.47,-0.5834199999999999,-1.599599,-2.505697,-0.062317,-0.061295,-0.018524000000000002
1348,13.48,-0.26864099999999996,-1.0001149999999999,-2.165276,-0.16351300000000002,-0.137985,-0.023849000000000002
1349,13.49,-0.26450999999999997,-0.157406,-1.562975,-0.314774,-0.209366,-0.045166000000000005
1350,13.5,-0.500762,0.969642,-0.8702650000000001,-0.47563199999999994,-0.22534200000000001,-0.092026
1351,13.51,-0.826794,1.974289,-0.16825199999999998,-0.5811,-0.177399,-0.146362
1352,13.52,-1.152534,3.2017599999999997,0.204873,-0.564056,-0.13053900000000002,-0.210281
1353,13.53,-1.9380959999999998,4.559923,0.39384,-0.417038,-0.13159200000000001,-0.29443400000000003
1354,13.54,-2.368423,4.790948,0.47429099999999996,-0.177353,-0.12307699999999999,-0.33171100000000003
1355,13.55,-2.208151,4.328841000000001,-0.05815999999999999,0.111328,-0.090057,-0.292297
1356,13.56,-1.439511,3.718124,-0.9639979999999999,0.400009,-0.120941,-0.203888
1357,13.57,-0.343407,3.5770510000000004,-1.8855669999999998,0.639694,-0.304169,-0.123993
1358,13.58,-0.13884200000000002,3.6274300000000004,-1.607438,0.715332,-0.6003109999999999,-0.064331
1359,13.59,-0.315126,4.009462999999999,-0.275529,0.57045,-0.817627,-0.07711799999999999
1360,13.6,-0.9623440000000001,4.74072,1.3203120000000002,0.267929,-0.8687590000000001,-0.214539
1361,13.61,-1.8384630000000002,4.94841,3.169253,0.02717600000000001,-0.63121,-0.386047
1362,13.62,-1.385342,3.7327230000000005,4.839167,-0.004790999999999999,-0.136917,-0.48938000000000004
1363,13.63,0.3001029999999999,2.050001,4.850599,0.156067,0.226334,-0.494705
1364,13.64,1.432401,1.6769880000000001,3.9401910000000004,0.37445100000000003,0.185852,-0.533051
1365,13.65,2.576111,1.2973709999999998,3.840115,0.601349,-0.046370999999999996,-0.475525
1366,13.66,4.229789,0.703747,3.120196,0.755814,-0.120941,-0.355148
1367,13.67,5.241714,0.275706,1.7216470000000001,0.7568819999999999,-0.169952,-0.27313200000000004
1368,13.68,5.0023089999999995,0.312744,0.481174,0.6290439999999999,-0.277542,-0.252884
1369,13.69,3.7966230000000003,0.167447,-0.4133540000000001,0.423447,-0.348907,-0.259277
1370,13.7,1.7650119999999998,-0.05495599999999999,-0.752396,0.208267,-0.33399999999999996,-0.262466
1371,13.71,0.12933400000000006,-0.152979,-0.6169789999999999,0.0069270000000000035,-0.23492399999999997,-0.23690799999999998
1372,13.72,-1.295834,-0.161498,0.028108000000000025,-0.16777,-0.087921,-0.186844
1373,13.73,-2.566162,0.036283,0.82986,-0.286011,0.11235,-0.10481300000000002
1374,13.74,-3.216655,0.22820700000000002,1.610951,-0.345673,0.358429,0.018753
1375,13.75,-3.051302,0.26250300000000004,2.35527,-0.34993,0.565079,0.163635
1376,13.76,-2.3068419999999996,0.218836,2.886708,-0.29454,0.687592,0.277618
1377,13.77,-1.2691709999999998,-0.200829,3.1887630000000002,-0.197601,0.727005,0.35430900000000004
1378,13.78,-0.43754399999999993,-0.8508190000000001,3.0823139999999998,-0.084686,0.717422,0.396927
1379,13.79,0.464017,-1.544339,2.451777,0.015457000000000004,0.68013,0.424622
1380,13.8,1.1526319999999999,-2.226987,1.8385880000000001,0.083633,0.6013029999999999,0.421432
1381,13.81,1.684434,-2.8698189999999997,1.1934069999999999,0.128372,0.518219,0.404388
1382,13.82,1.9153790000000002,-3.151621,0.540661,0.134766,0.45536800000000005,0.376678
1383,13.83,2.173577,-3.460958,0.15560800000000002,0.09642,0.392517,0.35112
1384,13.84,2.319578,-3.528508,-0.161727,0.02504,0.352036,0.323425
1385,13.85,2.407089,-3.303689,-0.35820100000000005,-0.059113,0.35415599999999997,0.302124
1386,13.86,2.415315,-2.91208,-0.424727,-0.143265,0.377594,0.27015700000000004
1387,13.87,2.293603,-2.512501,-0.39305999999999996,-0.21038800000000002,0.394638,0.233948
1388,13.88,2.058138,-2.1800450000000002,-0.286781,-0.266846,0.387192,0.198792
1389,13.89,1.7617470000000002,-1.8858110000000001,-0.137343,-0.315842,0.359482,0.167892
1390,13.9,1.4879719999999999,-1.649311,-0.002002999999999998,-0.34034699999999996,0.32006799999999996,0.134872
1391,13.91,1.180814,-1.423602,-0.028715999999999995,-0.34034699999999996,0.28385900000000003,0.103973
1392,13.92,0.879749,-1.1321219999999999,-0.24367800000000003,-0.31797800000000004,0.260422,0.076279
1393,13.93,0.6483760000000001,-0.784478,-0.490146,-0.276428,0.226334,0.045395
1394,13.94,0.455319,-0.434568,-0.805027,-0.21783400000000003,0.18904100000000001,0.026215
1395,13.95,0.404785,-0.23232600000000003,-1.097872,-0.172028,0.1539,0.005981
1396,13.96,0.42795200000000005,-0.33818200000000004,-1.354762,-0.14221199999999998,0.133652,-0.004684000000000001
1397,13.97,0.549597,-0.609807,-1.495211,-0.136871,0.13151600000000002,-0.008942
1398,13.98,0.575715,-0.9662379999999999,-1.609337,-0.14859,0.159225,-0.014266999999999998
1399,13.99,0.44352700000000006,-1.1826,-1.6998,-0.16351300000000002,0.20076,-0.022781
1400,14.0,0.251447,-1.374027,-1.8371650000000002,-0.161377,0.260422,-0.04303
